t_us,seq,ax,ay,az,gx,gy,gz,valid,work_time_us,missed
12967865, 61, -0.43, 0.39, 1.12, 52.12, 38.39, -10.31, 1, 14570, 345
12982951, 62, -0.45, 0.44, 1.01, -37.11, 13.06, -21.55, 1, 14553, 347
12997880, 63, -0.42, 0.56, 0.73, -33.02, -37.90, -38.45, 1, 14608, 349
13012829, 64, -0.36, 0.64, 0.69, -1.34, -51.51, -33.63, 1, 14674, 351
13027901, 65, -0.29, 0.72, 0.77, 60.61, -54.26, 2.08, 1, 14721, 353
13042963, 66, -0.26, 0.65, 0.84, 101.81, -41.02, 14.28, 1, 14614, 355
13057979, 67, -0.24, 0.56, 1.00, 175.17, 0.98, 26.37, 1, 14784, 357
13073166, 68, -0.23, 0.32, 1.07, 151.67, 22.16, 24.84, 1, 14506, 359
13088125, 69, -0.21, 0.24, 0.91, 57.31, 42.30, -17.33, 1, 14653, 361
13103267, 70, -0.24, 0.24, 0.71, 28.44, 45.04, -41.63, 1, 14428, 363
13118067, 71, -0.29, 0.31, 0.74, -16.42, 48.03, -62.07, 1, 14635, 365
13133088, 72, -0.57, 0.74, 0.83, -22.28, 48.65, -48.22, 1, 14605, 367
13148064, 73, -0.69, 0.82, 0.92, 41.02, 31.37, 3.91, 1, 14329, 369
13162826, 74, -0.34, 0.36, 0.88, 57.74, 23.80, 20.26, 1, 14367, 371
13177599, 75, -0.22, 0.18, 0.81, 10.80, 33.26, 4.46, 1, 14476, 373
13192417, 76, -0.24, 0.32, 0.86, -8.79, 45.72, -11.66, 1, 14603, 375
13207450, 77, -0.24, 0.41, 0.92, 15.62, 73.12, -15.32, 1, 14981, 377
13222836, 78, -0.19, 0.37, 0.85, 50.23, 87.59, -12.51, 1, 14387, 379
13237626, 79, -0.14, 0.26, 0.80, 92.22, 101.01, -27.34, 1, 14405, 381
13252448, 80, -0.11, 0.21, 0.99, 82.03, 85.63, -31.31, 1, 14737, 383
13267527, 81, -0.27, 0.19, 0.97, 54.20, 36.32, -31.98, 1, 14862, 385
13282876, 82, -0.30, 0.28, 0.91, 69.95, 17.88, -44.25, 1, 14661, 387
13298017, 83, -0.16, 0.46, 1.05, 97.72, 32.04, -73.61, 1, 14732, 389
13313253, 84, -0.16, 0.46, 1.05, 97.72, 32.04, -73.61, 0, 6069, 391
13319691, 85, -0.16, 0.46, 1.05, 97.72, 32.04, -73.61, 0, 6069, 392
13326280, 86, -0.09, 0.54, 1.32, 54.93, 65.19, -62.93, 1, 14638, 392
13341405, 87, -0.17, 0.41, 1.33, 52.86, 56.76, -62.99, 1, 14745, 394
13356661, 88, -0.14, 0.36, 1.33, 83.01, 37.11, -55.18, 1, 15018, 396
13372050, 89, -0.03, 0.31, 1.33, 83.31, 33.26, -41.38, 1, 14745, 398
13387201, 90, -0.01, 0.28, 1.33, 32.29, 24.29, 0.98, 1, 14714, 400
13402344, 91, -0.08, 0.17, 1.16, 7.69, 17.82, 10.80, 1, 14743, 402
13417456, 92, -0.07, 0.17, 1.05, 8.97, 10.13, -4.82, 1, 14688, 404
13432585, 93, -0.05, 0.31, 0.96, 17.21, 15.14, -19.04, 1, 14781, 406
13447730, 94, 0.00, 0.32, 0.90, -6.77, 9.64, -68.18, 1, 14777, 408
13462880, 95, 0.01, 0.27, 0.93, -40.34, -18.55, -99.37, 1, 14700, 410
13477980, 96, -0.07, 0.26, 0.93, -52.49, -28.32, -86.36, 1, 14593, 412
13493029, 97, -0.15, 0.19, 0.66, -12.39, 19.65, -26.37, 1, 14524, 414
13508070, 98, -0.07, 0.22, 0.67, 110.41, 90.82, 32.41, 1, 14422, 416
13522888, 99, 0.06, 0.17, 1.11, 135.38, 94.42, 12.33, 1, 14554, 418
13537810, 100, 0.12, 0.12, 1.26, 92.16, 83.37, -22.58, 1, 14303, 420
13552642, 101, 0.17, -0.04, 1.27, 61.58, 72.57, -35.52, 1, 14319, 422
13567408, 102, 0.15, 0.01, 1.15, 36.99, 36.44, -38.21, 1, 14667, 424
13582441, 103, 0.08, 0.28, 0.96, 41.14, 24.11, -31.07, 1, 14555, 426
13597337, 104, 0.08, 0.31, 0.92, 56.34, 31.43, -15.75, 1, 14490, 428
13612217, 105, 0.27, 0.15, 0.79, 55.54, 42.42, -8.30, 1, 14996, 430
13627621, 106, 0.38, 0.10, 0.72, 96.56, 52.67, -2.93, 1, 14853, 432
13642815, 107, 0.09, 0.28, 0.37, 189.03, 33.08, -5.49, 1, 14789, 434
13657945, 108, -0.03, 0.37, 0.06, 641.24, -107.91, -61.10, 1, 15180, 436
13673573, 109, -0.07, -1.33, 1.87, 768.92, -166.02, -93.38, 1, 14989, 439
13689055, 110, -0.01, -0.37, 0.96, 27.77, -47.36, -5.92, 1, 14992, 441
13704444, 111, 0.02, -0.07, 0.78, -93.87, 15.99, 8.48, 1, 14884, 443
13719846, 112, 0.09, -0.20, 0.99, -19.10, 6.29, -1.71, 1, 14849, 445
13735205, 113, 0.07, -0.25, 1.02, 18.98, -13.79, -8.18, 1, 15168, 447
13750782, 114, 0.02, -0.25, 1.01, 18.37, -11.60, -8.61, 1, 14905, 449
13766189, 115, 0.03, -0.28, 0.99, 26.49, -1.10, -13.61, 1, 14592, 451
13781161, 116, 0.03, -0.36, 0.91, 18.25, 2.14, -17.70, 1, 14568, 453
13796129, 117, -0.01, -0.32, 0.92, -33.45, 3.11, -1.77, 1, 14747, 455
13811280, 118, 0.05, -0.20, 1.03, -33.20, 9.58, 3.91, 1, 14503, 457
13826198, 119, 0.08, -0.24, 1.00, -11.90, 3.11, -11.23, 1, 14563, 459
13841178, 120, 0.11, -0.23, 1.03, -10.68, -17.33, -20.08, 1, 14783, 461
13856405, 121, 0.07, -0.26, 1.01, 9.46, -47.00, -31.01, 1, 14625, 463
13871502, 122, -0.01, -0.27, 0.93, 7.45, -36.50, -32.10, 1, 14769, 465
13886729, 123, -0.03, -0.25, 0.94, -8.18, -5.43, -27.89, 1, 15088, 467
13902158, 124, -0.03, -0.22, 0.97, -10.50, 6.10, -24.41, 1, 14721, 469
13917248, 125, -0.01, -0.23, 1.00, -9.64, 15.26, -20.26, 1, 14812, 471
13932401, 126, 0.03, -0.23, 1.01, -4.76, 4.27, -19.96, 1, 14730, 473
13947521, 127, 0.03, -0.22, 1.00, -0.31, -1.04, -18.86, 1, 14757, 475
13962667, 128, 0.01, -0.24, 0.97, -0.31, -1.83, -11.11, 1, 14740, 477
13977779, 129, 0.02, -0.25, 0.98, -4.52, -0.73, -6.90, 1, 14782, 479
13992951, 130, 0.01, -0.25, 0.98, -8.12, -1.16, -4.58, 1, 14788, 481
14008111, 131, 0.01, -0.24, 0.99, -6.90, -1.77, -4.27, 1, 14905, 483
14023414, 132, 0.01, -0.24, 0.99, -3.11, -0.43, -1.28, 1, 14754, 485
14038535, 133, 0.02, -0.24, 0.99, -2.99, 0.67, -0.73, 1, 14777, 487
14053759, 134, 0.02, -0.24, 0.98, -4.27, 0.67, -3.42, 1, 14736, 490
14068864, 135, 0.00, -0.22, 0.99, -4.21, 0.24, -4.46, 1, 14751, 492
14083986, 136, 0.00, -0.22, 0.99, -4.27, -0.37, -4.82, 1, 15297, 494
14099758, 137, 0.01, -0.24, 0.99, -5.37, 0.12, -5.37, 1, 14954, 496
14115071, 138, 0.01, -0.24, 1.00, -8.91, -0.31, -8.18, 1, 14829, 498
14130297, 139, 0.01, -0.23, 0.99, -9.95, -1.28, -8.85, 1, 14849, 500
14145573, 140, 0.01, -0.25, 0.98, -10.68, -0.18, -8.79, 1, 14780, 502
14160722, 141, 0.01, -0.23, 0.99, -10.56, 0.92, -9.52, 1, 14879, 504
14175970, 142, 0.00, -0.22, 0.99, -8.00, 2.99, -8.06, 1, 14653, 506
14190959, 143, -0.01, -0.19, 0.99, -14.40, 8.79, -4.21, 1, 14641, 508
14205999, 144, -0.00, -0.19, 1.00, -18.43, 9.83, -0.98, 1, 15075, 510
14221437, 145, 0.02, -0.23, 0.98, -19.47, 7.26, 3.78, 1, 14868, 512
14236686, 146, 0.02, -0.21, 1.00, -15.99, 6.65, 4.27, 1, 14725, 514
14251788, 147, 0.01, -0.21, 1.00, -16.36, 8.61, 7.81, 1, 14768, 516
14266927, 148, 0.01, -0.22, 0.99, -18.62, 10.44, 8.67, 1, 15026, 518
14282436, 149, 0.02, -0.20, 0.98, -18.55, 8.85, 5.37, 1, 14905, 520
14297740, 150, 0.01, -0.18, 0.98, -15.62, 6.71, 3.91, 1, 14863, 522
14313069, 151, 0.01, -0.17, 0.97, -9.46, 8.48, 4.03, 1, 14766, 524
14328232, 152, 0.06, -0.17, 0.96, -3.60, 7.87, 7.26, 1, 14626, 526
14343229, 153, 0.07, -0.21, 0.98, 9.09, 3.42, 8.79, 1, 14452, 528
14358189, 154, 0.04, -0.22, 1.02, 9.22, 0.67, 4.27, 1, 14406, 530
14372957, 155, 0.02, -0.20, 1.01, 3.54, -3.48, -2.69, 1, 14704, 532
14388032, 156, 0.03, -0.17, 0.98, 4.46, -0.55, -1.89, 1, 14558, 534
14403017, 157, 0.02, -0.20, 1.00, 6.84, 1.40, -0.98, 1, 14539, 536
14417900, 158, 0.02, -0.21, 0.96, 7.39, -3.48, -7.14, 1, 14669, 538
14432944, 159, -0.00, -0.19, 0.94, 33.08, -18.37, -25.70, 1, 14592, 540
14448010, 160, 0.02, -0.19, 1.02, 33.81, -15.08, -29.54, 1, 14614, 542
14463022, 161, 0.02, -0.20, 1.00, 9.89, 1.77, -30.82, 1, 14678, 544
14478058, 162, 0.12, -0.26, 0.96, 1.77, 0.67, -30.27, 1, 14665, 546
14493139, 163, 0.11, -0.24, 0.97, -2.01, -30.40, -5.00, 1, 14973, 548
14508560, 164, -0.04, -0.26, 0.97, 1.95, -41.44, 7.87, 1, 14805, 551
14523780, 165, -0.04, -0.25, 0.97, 3.78, -32.10, 15.38, 1, 14598, 553
14538862, 166, 0.00, -0.26, 1.07, -1.65, -57.07, 13.85, 1, 14642, 555
14554021, 167, -0.12, -0.20, 0.95, -2.62, -71.23, 8.54, 1, 14943, 557
14569341, 168, -0.13, -0.23, 0.92, 16.85, -30.27, 7.39, 1, 14815, 559
14584553, 169, -0.05, -0.27, 1.04, 16.30, -19.53, 7.63, 1, 14483, 561
14599496, 170, -0.06, -0.26, 1.04, 9.95, -35.34, 7.57, 1, 14548, 563
14614440, 171, -0.11, -0.25, 0.96, 10.62, -36.99, 9.09, 1, 14525, 565
14629365, 172, -0.12, -0.27, 0.94, 8.79, -19.71, 9.89, 1, 14653, 567
14644433, 173, -0.12, -0.24, 0.96, 6.23, -7.93, 7.51, 1, 14611, 569
14659384, 174, -0.11, -0.23, 0.96, 5.62, 7.87, 6.29, 1, 14708, 571
14674471, 175, -0.09, -0.26, 0.96, 5.31, 13.00, 8.12, 1, 14606, 573
14689473, 176, -0.08, -0.28, 0.95, 0.79, 20.94, 7.81, 1, 14351, 575
14704323, 177, -0.08, -0.23, 1.00, -2.50, 23.68, 5.98, 1, 14547, 577
14719254, 178, -0.08, -0.21, 1.04, -0.43, 13.67, 9.83, 1, 14483, 579
14734087, 179, -0.10, -0.26, 0.97, 1.04, 8.12, 11.90, 1, 14640, 581
14749071, 180, -0.09, -0.27, 0.96, -8.18, 16.17, 8.30, 1, 14693, 583
14764136, 181, -0.07, -0.25, 0.99, -12.70, 21.48, 4.70, 1, 14525, 585
14779170, 182, -0.04, -0.23, 1.00, -13.55, 21.55, 0.79, 1, 14391, 587
14794099, 183, -0.04, -0.23, 1.00, -7.51, 18.25, 5.80, 0, 10299, 589
14804769, 184, -0.01, -0.23, 1.00, 3.23, 13.12, 15.81, 1, 14594, 590
14819768, 185, -0.01, -0.27, 0.97, 3.36, 2.44, 20.08, 1, 14765, 592
14834905, 186, -0.00, -0.25, 0.95, -1.89, 2.26, 14.47, 1, 14462, 594
14849881, 187, -0.00, -0.25, 0.96, -6.65, 3.17, 6.53, 1, 14479, 596
14864790, 188, -0.03, -0.22, 1.00, -13.12, 4.52, 2.44, 1, 14579, 598
14879887, 189, -0.02, -0.21, 1.00, -15.14, 8.85, -5.55, 1, 14659, 600
14895059, 190, 0.00, -0.21, 0.98, -13.67, 9.40, -4.39, 1, 14496, 602
14909955, 191, 0.02, -0.21, 0.98, -9.83, 10.01, 4.88, 1, 14520, 604
14924817, 192, 0.02, -0.18, 0.99, -4.58, 6.47, 14.65, 1, 14408, 606
14939704, 193, 0.01, -0.22, 1.00, 2.87, -0.24, 26.12, 1, 14302, 608
14954402, 194, -0.00, -0.19, 1.01, -4.58, -6.77, 21.79, 1, 14752, 610
14969521, 195, 0.03, -0.17, 0.97, -0.12, -3.91, 20.51, 1, 14516, 612
14984379, 196, 0.08, -0.18, 1.13, 12.33, -10.07, 24.84, 1, 14335, 614
14999234, 197, 0.12, -0.22, 1.26, 29.36, -84.84, 15.87, 1, 14423, 616
15014072, 198, -0.07, -0.32, 1.02, 30.58, -99.49, 7.57, 1, 14583, 618
15029053, 199, -0.11, -0.33, 0.91, 7.45, -80.69, -6.84, 1, 14743, 620
15044164, 200, -0.16, 0.07, 0.84, -24.23, -72.81, -14.53, 1, 14691, 622
15059226, 201, -0.19, 0.26, 0.80, -62.81, -46.33, 31.01, 1, 14648, 624
15074242, 202, -0.11, -0.46, 0.83, -11.66, -15.75, 61.95, 1, 14670, 626
15089264, 203, -0.13, -0.50, 0.93, 0.00, 25.27, 37.48, 1, 14430, 628
15104128, 204, -0.12, -0.22, 1.13, -16.30, 22.34, 14.89, 1, 14563, 630
15119234, 205, -0.15, -0.14, 1.11, -24.78, -0.43, 7.63, 1, 14593, 632
15134240, 206, -0.17, -0.10, 1.01, -27.59, -0.06, 9.64, 1, 14720, 634
15149307, 207, -0.11, -0.07, 1.08, -45.04, -6.96, 19.17, 1, 14728, 636
15164435, 208, -0.12, -0.20, 1.19, -49.93, -36.32, 30.46, 1, 14762, 638
15179566, 209, -0.11, -0.30, 1.13, -75.62, -87.59, 22.89, 1, 14637, 640
15194580, 210, -0.09, -0.27, 1.06, -90.39, -90.03, 7.32, 1, 14732, 642
15209702, 211, -0.12, -0.21, 1.15, -99.12, -88.50, 1.77, 1, 14717, 644
15224849, 212, -0.14, -0.20, 1.13, -85.69, -110.60, 1.83, 1, 14651, 646
15239872, 213, -0.17, -0.17, 1.04, -85.57, -104.55, -8.36, 1, 14921, 648
15255189, 214, -0.31, -0.11, 1.14, -95.03, -65.98, -14.53, 1, 14622, 650
15270221, 215, -0.22, -0.17, 1.12, -88.93, -55.91, -11.41, 1, 14751, 652
15285369, 216, -0.23, -0.12, 1.07, -61.10, -52.43, -11.17, 1, 14761, 654
15300528, 217, -0.40, 0.09, 1.21, -52.19, -44.62, -7.93, 1, 14744, 656
15315674, 218, -0.44, 0.15, 1.27, -39.86, -28.38, 2.87, 1, 14686, 658
15330708, 219, -0.39, 0.22, 1.12, -24.72, -28.08, 8.24, 1, 14699, 660
15345825, 220, -0.41, 0.21, 1.09, 20.45, -23.32, 25.51, 1, 14749, 662
15360970, 221, -0.48, 0.10, 1.25, 31.80, -11.47, 34.48, 1, 14401, 664
15375812, 222, -0.44, 0.02, 1.29, 19.47, 2.69, 36.74, 1, 14749, 666
15391020, 223, -0.44, 0.02, 1.29, 19.47, 2.69, 36.74, 0, 5963, 668
15397382, 224, -0.44, 0.02, 1.29, 19.47, 2.69, 36.74, 0, 5947, 668
15403699, 225, -0.35, -0.00, 1.21, 5.43, -10.50, 20.14, 1, 14576, 669
15418672, 226, -0.42, 0.02, 1.23, -7.14, -15.69, 14.40, 1, 14614, 671
15433681, 227, -0.39, 0.05, 1.02, -13.00, -1.28, 11.41, 1, 14676, 673
15448715, 228, -0.31, 0.04, 0.87, -4.39, 7.69, 4.94, 1, 14567, 675
15463774, 229, -0.30, -0.03, 0.83, 5.19, 30.33, 0.18, 1, 14866, 677
15479008, 230, -0.26, -0.06, 0.91, 5.31, 39.98, 4.94, 1, 14778, 679
15494128, 231, -0.26, -0.05, 0.97, 14.40, 50.23, 16.36, 1, 14497, 681
15509116, 232, -0.30, -0.07, 1.06, 17.64, 54.63, 21.24, 1, 15097, 683
15524583, 233, -0.31, -0.07, 1.03, 3.17, 55.60, 26.86, 1, 14871, 685
15539850, 234, -0.31, -0.09, 0.95, -9.16, 53.10, 28.26, 1, 14676, 687
15554925, 235, -0.31, -0.11, 0.91, 11.60, 31.62, 24.41, 1, 15038, 689
15570297, 236, -0.28, -0.16, 0.95, 38.45, 12.51, 22.89, 1, 14794, 691
15585498, 237, -0.29, -0.12, 1.02, 29.60, -9.09, 21.24, 1, 14590, 693
15600459, 238, -0.26, -0.03, 1.03, 10.31, -16.72, 20.26, 1, 14588, 695
15615414, 239, -0.24, -0.04, 1.08, 4.03, -26.06, 22.52, 1, 14902, 697
15630715, 240, -0.21, -0.15, 1.12, 13.43, -25.88, 22.89, 1, 14729, 699
15645870, 241, -0.23, -0.15, 1.07, 21.91, -29.05, 18.01, 1, 14639, 701
15660853, 242, -0.26, -0.03, 0.90, 13.31, -34.91, 15.93, 1, 14771, 703
15676100, 243, -0.27, 0.05, 0.79, -2.99, -52.00, 13.06, 1, 14782, 705
15691250, 244, -0.27, 0.03, 0.76, 13.18, -51.15, 14.83, 1, 14408, 707
15706109, 245, -0.22, -0.03, 0.89, 53.34, -12.63, 25.76, 1, 14513, 709
15721106, 246, -0.20, -0.06, 1.02, 54.87, 2.69, 27.89, 1, 14456, 711
15735932, 247, -0.21, -0.07, 0.97, 22.71, -10.74, 16.54, 1, 14493, 713
15750825, 248, -0.18, -0.09, 0.84, 10.01, -24.84, 10.07, 1, 14638, 715
15765864, 249, -0.16, -0.11, 0.87, 18.98, -35.83, 7.63, 1, 14492, 717
15780855, 250, -0.24, -0.07, 0.79, 20.45, -31.19, 10.07, 1, 14669, 719
15795983, 251, -0.26, -0.07, 0.70, 8.24, -18.98, 12.94, 1, 14594, 721
15811040, 252, -0.24, -0.05, 0.75, 1.46, -18.86, 10.80, 1, 14662, 723
15826250, 253, -0.23, -0.02, 0.80, -11.96, -12.63, 18.31, 1, 14713, 725
15841451, 254, -0.20, -0.05, 0.74, -40.77, 11.96, 32.96, 1, 14578, 727
15856493, 255, -0.17, -0.11, 0.63, -51.21, 19.78, 34.36, 1, 14527, 729
15871498, 256, -0.13, -0.18, 0.42, -69.09, 12.51, 24.05, 1, 14489, 731
15886327, 257, -0.23, -0.12, 0.32, -60.91, -2.32, 14.89, 1, 14711, 733
15901377, 258, -0.17, -0.09, 0.30, -13.43, -29.60, -4.33, 1, 14728, 735
15916503, 259, -0.12, -0.02, 0.26, -7.75, -34.24, -9.52, 1, 15175, 737
15932146, 260, -0.16, -0.05, 0.24, -36.93, -36.01, -11.90, 1, 15162, 739
15947652, 261, -0.20, -0.15, 0.37, -67.99, -30.94, -16.24, 1, 15102, 741
15963152, 262, -0.22, -0.12, 0.49, -113.04, -1.83, -32.10, 1, 14770, 743
15978293, 263, -0.25, 0.06, 0.65, -99.12, 20.20, -40.10, 1, 14521, 745
15993184, 264, -0.22, 0.13, 0.70, -22.28, 67.14, -57.92, 1, 14689, 747
16008273, 265, -0.20, 0.13, 0.70, 9.89, 81.79, -64.15, 1, 14674, 749
16023319, 266, -0.22, 0.06, 0.64, 58.53, 80.81, -60.18, 1, 14562, 751
16038362, 267, -0.25, -0.11, 0.56, 63.66, 72.81, -54.02, 1, 14664, 753
16053477, 268, -0.26, -0.08, 0.61, 40.47, 54.69, -36.80, 1, 14662, 755
16068632, 269, -0.18, 0.03, 0.85, 23.93, 55.05, -30.40, 1, 14989, 758
16083991, 270, -0.13, 0.03, 0.86, 6.77, 87.77, -29.85, 1, 14928, 760
16099258, 271, -0.12, -0.11, 0.66, 30.40, 87.77, -38.76, 1, 14816, 762
16114454, 272, -0.12, -0.16, 0.55, 91.06, 23.13, -64.15, 1, 14710, 764
16129505, 273, -0.14, -0.12, 0.70, 92.53, -15.38, -64.51, 1, 14803, 766
16144695, 274, -0.15, -0.05, 0.87, 52.19, -31.80, -28.38, 1, 14708, 768
16159802, 275, -0.12, 0.04, 1.02, 22.40, 11.84, -2.99, 1, 14686, 770
16174857, 276, -0.11, 0.08, 0.94, 34.06, 22.03, 1.77, 1, 14441, 772
16189788, 277, -0.14, 0.06, 0.95, 65.61, 23.74, 8.06, 1, 14360, 774
16204519, 278, -0.19, 0.04, 0.92, 51.57, 24.23, 10.01, 1, 14413, 776
16219312, 279, -0.25, 0.01, 0.97, 20.32, 48.40, 25.57, 1, 14267, 778
16234119, 280, -0.20, -0.11, 1.12, 26.25, 74.58, 32.71, 1, 14537, 780
16249192, 281, -0.13, -0.14, 1.33, 30.33, 108.89, 35.52, 1, 14553, 782
16264111, 282, -0.12, -0.15, 1.29, 28.26, 104.61, 37.23, 1, 14580, 784
16279071, 283, -0.15, -0.27, 1.16, 1.04, 88.07, 32.90, 1, 14770, 786
16294219, 284, -0.17, -0.14, 1.32, -10.56, 94.06, 34.12, 1, 14702, 788
16309288, 285, -0.11, -0.25, 1.44, -4.33, 132.32, 41.08, 1, 14847, 790
16324514, 286, 0.05, -0.40, 1.58, -9.58, 148.25, 28.81, 1, 14523, 792
16339375, 287, 0.11, -0.33, 1.51, -41.87, 99.06, -3.42, 1, 14579, 794
16354391, 288, 0.13, -0.17, 1.23, -55.79, 39.31, -8.54, 1, 14948, 796
16369681, 289, 0.11, -0.17, 1.10, -41.69, -57.50, -6.04, 1, 15160, 798
16385238, 290, -0.04, -0.11, 1.06, -18.19, -65.55, -8.91, 1, 14987, 800
16400707, 291, -0.09, -0.09, 1.20, 11.54, 11.78, -7.81, 1, 14840, 802
16415984, 292, 0.01, -0.13, 1.23, -1.22, 59.14, -3.48, 1, 14554, 804
16430919, 293, 0.11, -0.16, 1.08, -19.59, 64.88, -0.55, 1, 14853, 806
16446228, 294, 0.19, -0.25, 0.89, -4.52, 36.07, -2.38, 1, 14620, 808
16461283, 295, 0.14, -0.27, 0.91, 16.97, 1.53, -6.41, 1, 14858, 810
16476626, 296, 0.10, -0.22, 1.05, 15.62, 6.16, -7.20, 1, 14603, 812
16491692, 297, 0.14, -0.21, 1.14, 16.42, 35.71, -6.41, 1, 14997, 814
16507030, 298, 0.19, -0.23, 1.17, 19.10, 38.33, -6.65, 1, 14447, 816
16522014, 299, 0.16, -0.21, 1.18, 32.47, 21.18, -22.34, 1, 14729, 818
16537223, 300, 0.02, 0.05, 1.42, 66.77, 42.24, -27.47, 1, 14342, 820
16552007, 301, 0.05, 0.00, 1.96, 161.13, 46.45, 20.94, 1, 14414, 822
16566788, 302, 0.11, -0.36, 1.40, 94.06, -13.67, 31.25, 1, 15006, 824
16582190, 303, 0.07, -0.29, 0.92, -33.45, -54.32, 10.13, 1, 14943, 826
16597645, 304, 0.03, -0.18, 0.84, -5.62, 9.03, 5.55, 1, 14425, 828
16612431, 305, 0.17, -0.21, 1.03, 1.22, 21.85, 11.11, 1, 14390, 830
16627275, 306, 0.15, -0.17, 1.02, -6.77, -4.09, 13.12, 1, 14673, 832
16642345, 307, 0.08, -0.17, 1.00, -3.11, -5.86, 9.70, 1, 14555, 834
16657410, 308, 0.09, -0.19, 0.99, 4.64, 6.59, 7.26, 1, 14439, 836
16672341, 309, 0.14, -0.19, 0.97, 3.72, 7.32, 5.86, 1, 14680, 838
16687456, 310, 0.15, -0.19, 0.98, 0.43, -5.62, 3.72, 1, 14540, 840
16702365, 311, 0.10, -0.19, 1.00, -0.18, -9.03, 4.03, 1, 14602, 842
16717363, 312, 0.08, -0.21, 1.00, -0.06, -0.49, 0.92, 1, 14522, 844
16732242, 313, 0.11, -0.21, 1.00, -5.86, -2.99, -2.08, 1, 14964, 846
16747608, 314, 0.09, -0.19, 1.00, -18.13, -14.83, -7.14, 1, 14570, 848
16762575, 315, 0.06, -0.19, 1.02, -20.39, -15.32, -12.45, 1, 14773, 850
16777748, 316, 0.09, -0.18, 1.00, -24.23, -17.70, -23.74, 1, 14636, 852
16792778, 317, 0.14, -0.19, 0.94, -17.94, -23.62, -15.75, 1, 14682, 854
16807832, 318, 0.08, -0.16, 0.90, 8.91, -10.93, 6.10, 1, 14565, 856
16822879, 319, 0.07, -0.18, 1.03, 20.51, 6.41, 6.16, 1, 14869, 858
16838116, 320, 0.11, -0.19, 1.06, 7.57, -0.49, -2.75, 1, 15172, 860
16853698, 321, 0.09, -0.16, 0.99, 1.04, -12.15, -5.13, 1, 14579, 863
16868654, 322, 0.06, -0.16, 0.98, 7.93, -8.61, -4.94, 1, 14974, 865
16883995, 323, 0.06, -0.20, 1.01, 9.22, 1.65, -3.97, 1, 14964, 867
16899442, 324, 0.10, -0.20, 1.01, 3.05, 9.46, -3.60, 1, 14808, 869
16914814, 325, 0.11, -0.17, 1.00, 8.73, 9.16, 0.73, 1, 14369, 871
16929570, 326, 0.11, -0.23, 1.04, 13.61, -14.47, 4.70, 1, 14944, 873
16944976, 327, 0.04, -0.22, 0.98, 8.42, -23.01, 1.10, 1, 14749, 875
16960209, 328, 0.04, -0.22, 0.98, 2.99, -9.28, -5.68, 1, 14730, 877
16975390, 329, 0.04, -0.20, 0.98, 3.11, 11.41, -10.80, 1, 14932, 879
16990703, 330, 0.09, -0.21, 1.01, 5.37, 16.42, -14.04, 1, 14372, 881
17005594, 331, 0.09, -0.20, 1.00, 2.38, 4.27, -12.70, 1, 14496, 883
17020508, 332, 0.08, -0.19, 0.99, 2.08, 0.24, -4.82, 1, 14416, 885
17035321, 333, 0.09, -0.18, 1.00, 8.18, 2.08, 6.96, 1, 14510, 887
17050231, 334, 0.11, -0.20, 1.04, 12.27, 1.46, 10.99, 1, 14470, 889
17065161, 335, 0.12, -0.19, 1.04, -7.63, -6.65, 13.31, 1, 14588, 891
17080239, 336, 0.20, -0.09, 0.99, -18.92, 1.16, 18.49, 1, 14414, 893
17095022, 337, 0.16, -0.15, 1.03, -33.57, 24.11, 39.55, 1, 14474, 895
17109917, 338, -0.01, -0.24, 1.12, -47.36, 24.35, 32.84, 1, 14541, 897
17124827, 339, 0.01, -0.18, 1.14, -75.81, 12.63, 0.18, 1, 14466, 899
17139699, 340, 0.09, -0.16, 1.16, -84.23, 16.48, -1.83, 1, 14506, 901
17154603, 341, 0.13, -0.18, 1.08, -90.15, 26.98, 0.18, 1, 14360, 903
17169367, 342, 0.16, -0.14, 1.00, -88.01, 22.03, 1.28, 1, 14688, 905
17184489, 343, 0.15, -0.14, 1.03, -82.64, 3.54, 5.43, 1, 14762, 907
17199593, 344, 0.14, -0.13, 0.97, -77.82, -13.24, 3.54, 1, 14785, 909
17214718, 345, 0.12, -0.09, 0.94, -53.59, -51.57, -1.77, 1, 14695, 911
17229789, 346, 0.06, -0.00, 1.03, -41.75, -59.57, 0.49, 1, 14574, 913
17244822, 347, 0.02, 0.00, 1.12, -32.17, -64.09, 3.17, 1, 14582, 915
17259890, 348, 0.01, -0.05, 0.97, -31.19, -59.33, 0.98, 1, 14595, 917
17274909, 349, 0.02, -0.08, 0.93, -13.92, -34.85, -3.60, 1, 14740, 919
17290101, 350, 0.04, -0.06, 0.99, 3.85, -25.70, -5.43, 1, 15051, 921
17305516, 351, 0.03, -0.02, 1.07, 21.42, -7.20, -9.95, 1, 14556, 923
17320561, 352, 0.03, -0.07, 1.13, 17.52, 0.18, -10.01, 1, 14347, 925
17335547, 353, 0.05, -0.09, 1.07, 14.71, 1.22, -7.81, 1, 14469, 927
17350385, 354, 0.01, -0.08, 1.10, 19.96, 1.34, -7.02, 1, 14647, 929
17365431, 355, -0.01, -0.08, 1.11, 22.71, 16.36, -7.32, 1, 14754, 931
17380599, 356, 0.01, -0.06, 1.21, 18.80, 28.50, -5.31, 1, 14647, 933
17395643, 357, 0.03, -0.08, 1.24, 6.90, 34.85, -3.23, 1, 14877, 935
17410918, 358, 0.07, -0.09, 1.20, 9.28, 17.58, -4.82, 1, 14699, 937
17425992, 359, 0.06, -0.10, 1.21, 18.98, -31.62, -0.31, 1, 14694, 939
17441056, 360, 0.02, -0.13, 1.10, 18.92, -51.39, 0.43, 1, 14448, 941
17455933, 361, -0.00, -0.13, 1.02, 28.87, -63.84, -3.72, 1, 14766, 943
17471039, 362, -0.05, -0.11, 1.08, 33.87, -55.54, -5.80, 1, 14995, 945
17486401, 363, -0.06, -0.10, 1.18, 27.34, -25.39, -2.38, 1, 14698, 947
17501466, 364, -0.01, -0.16, 1.18, 21.30, -16.30, 2.20, 1, 14634, 949
17516470, 365, -0.00, -0.17, 1.11, 31.07, -20.08, 6.77, 1, 14503, 951
17531426, 366, -0.04, -0.13, 1.15, 38.39, -21.67, 6.16, 1, 14625, 953
17546486, 367, -0.05, -0.12, 1.23, 27.28, -21.42, 5.37, 1, 14519, 955
17561457, 368, -0.03, -0.16, 1.23, 0.31, -41.32, 13.31, 1, 14433, 957
17576287, 369, 0.00, -0.17, 1.16, 6.10, -58.72, 15.44, 1, 14669, 959
17591335, 370, -0.02, -0.10, 1.07, 39.67, -88.44, 10.99, 1, 14611, 961
17606317, 371, -0.07, -0.07, 1.11, 38.39, -94.42, 11.11, 1, 14525, 963
17621290, 372, -0.09, -0.10, 1.09, 15.44, -95.09, 15.62, 1, 14663, 965
17636472, 373, -0.11, -0.08, 0.96, 18.43, -93.32, 15.14, 1, 14594, 967
17651487, 374, -0.15, -0.05, 1.00, 34.91, -71.84, 15.20, 1, 14774, 969
17666753, 375, -0.16, -0.05, 1.10, 35.52, -58.90, 18.92, 1, 14985, 971
17682126, 376, -0.15, -0.07, 1.08, 32.78, -58.17, 31.13, 1, 14800, 973
17697293, 377, -0.15, -0.08, 1.09, 28.63, -63.11, 34.79, 1, 14916, 975
17712618, 378, -0.13, -0.09, 1.00, 18.25, -74.34, 30.82, 1, 14765, 977
17727754, 379, -0.16, -0.09, 0.80, 22.34, -86.73, 25.51, 1, 14644, 979
17742785, 380, -0.21, -0.06, 0.82, 22.58, -89.60, 14.04, 1, 14767, 981
17757923, 381, -0.20, -0.01, 0.94, 15.81, -73.67, 16.54, 1, 14819, 983
17773110, 382, -0.19, -0.07, 0.81, 7.20, -74.34, 23.13, 1, 14590, 985
17788069, 383, -0.23, -0.13, 0.62, 9.89, -80.57, 20.81, 1, 14904, 987
17803412, 384, -0.24, -0.13, 0.66, 14.34, -63.42, 19.35, 1, 14597, 989
17818382, 385, -0.24, -0.14, 0.77, 3.17, -46.75, 21.30, 1, 14558, 991
17833428, 386, -0.20, -0.18, 0.67, -27.34, -29.24, 25.09, 1, 14631, 993
17848575, 387, -0.21, -0.20, 0.54, -28.32, -26.73, 27.59, 1, 14640, 996
17863669, 388, -0.21, -0.19, 0.55, -8.91, -21.06, 26.98, 1, 14882, 998
17878893, 389, -0.20, -0.19, 0.58, -1.71, -17.70, 22.95, 1, 14720, 1000
17894007, 390, -0.18, -0.22, 0.57, 1.22, -9.95, 14.04, 1, 14610, 1002
17909107, 391, -0.14, -0.25, 0.45, 2.56, -8.61, 11.78, 1, 14591, 1004
17924178, 392, -0.15, -0.23, 0.41, 7.02, -6.41, 11.84, 1, 14674, 1006
17939285, 393, -0.20, -0.19, 0.34, -5.80, -0.18, 11.90, 1, 14610, 1008
17954347, 394, -0.20, -0.14, 0.31, -23.68, 5.13, 12.88, 1, 15103, 1010
17969819, 395, -0.19, -0.07, 0.43, -69.46, 21.30, 7.57, 1, 14483, 1012
17984822, 396, -0.10, -0.11, 0.29, -76.17, 18.62, 1.95, 1, 14864, 1014
18000057, 397, -0.05, -0.12, 0.04, -47.18, -11.84, -3.36, 1, 14979, 1016
18015431, 398, 0.22, -0.04, -0.81, -33.94, -27.47, -2.01, 1, 14730, 1018
18030562, 399, 0.37, 0.14, -1.37, -61.22, -30.58, -3.85, 1, 14691, 1020
18045622, 400, 0.74, 0.61, -2.73, -96.25, -5.55, -8.30, 1, 14914, 1022
18060961, 401, 1.17, 0.75, -3.35, -162.78, 106.87, -7.45, 1, 14861, 1024
18076163, 402, 2.42, 0.97, -3.06, -184.33, 183.23, 9.28, 1, 14770, 1026
18091331, 403, 2.91, 1.00, -2.03, -153.14, 388.43, 57.31, 1, 14797, 1028
18106607, 404, 1.36, 0.21, 2.58, 125.98, 705.93, 111.21, 1, 14363, 1030
18121378, 405, 0.04, -1.13, 3.71, 339.42, 231.93, 24.84, 1, 14844, 1032
18136601, 406, -1.91, -1.38, 2.49, 114.01, -147.89, -27.53, 1, 15097, 1034
18152207, 407, -0.48, -0.59, 1.25, -83.86, 74.95, -30.88, 1, 15046, 1036
18167620, 408, 1.85, 1.46, -1.47, -62.56, 40.47, -30.15, 1, 14832, 1038
18182851, 409, 0.70, 0.52, 0.01, 51.57, -109.01, -1.53, 1, 14674, 1040
18197900, 410, -0.47, -0.49, 2.07, 6.35, 20.32, -2.56, 1, 14842, 1042
18213114, 411, 0.07, -0.04, 0.81, -4.58, 42.05, -3.85, 1, 14682, 1044
18228176, 412, 0.21, -0.04, 0.64, -4.82, -2.56, -8.67, 1, 14948, 1046
18243494, 413, 0.02, -0.20, 1.12, -3.72, -20.51, -8.00, 1, 14677, 1048
18258550, 414, -0.03, -0.22, 1.25, -1.83, -6.84, -5.86, 1, 14854, 1051
18273804, 415, 0.17, -0.18, 0.95, -2.44, 5.13, -4.76, 1, 14702, 1053
18288968, 416, 0.19, -0.19, 0.83, -0.31, 10.13, -0.06, 1, 14705, 1055
18304104, 417, 0.12, -0.27, 0.99, 0.92, 12.27, 1.16, 1, 14278, 1057
18318895, 418, 0.10, -0.22, 1.03, -5.19, 9.58, -3.23, 1, 14461, 1059
18333869, 419, 0.13, -0.13, 0.93, -4.39, 8.48, -4.64, 1, 14912, 1061
18349297, 420, 0.16, -0.12, 0.94, -0.43, -1.71, -5.37, 1, 15115, 1063
18364755, 421, 0.11, -0.14, 1.01, 0.61, -7.14, -5.55, 1, 14689, 1065
18379847, 422, 0.07, -0.20, 1.03, 0.67, -4.70, -5.00, 1, 14539, 1067
18394729, 423, 0.08, -0.20, 1.02, 0.12, -0.98, -4.70, 1, 14596, 1069
18409759, 424, 0.09, -0.18, 0.98, -0.67, 0.06, -4.39, 1, 14521, 1071
18424770, 425, 0.09, -0.18, 0.98, -0.79, -0.92, -3.97, 1, 14606, 1073
18439749, 426, 0.08, -0.19, 1.02, -0.67, -0.49, -2.44, 1, 14587, 1075
18454782, 427, 0.07, -0.17, 1.00, -0.85, 0.24, -1.89, 1, 14671, 1077
18469795, 428, 0.09, -0.16, 0.98, 0.06, 1.34, -2.01, 1, 14697, 1079
18484893, 429, 0.13, -0.17, 1.00, 0.67, 1.59, -2.26, 1, 14504, 1081
18499777, 430, 0.13, -0.17, 0.99, 0.37, 1.10, -2.14, 1, 14449, 1083
18514696, 431, 0.11, -0.18, 0.99, 0.18, 0.49, -1.71, 1, 14554, 1085
18529796, 432, 0.11, -0.19, 0.99, 0.55, -0.73, -1.16, 1, 14788, 1087
18544987, 433, 0.12, -0.22, 0.98, 0.37, -1.04, -0.92, 1, 14558, 1089
18559914, 434, 0.11, -0.22, 0.98, -0.92, -1.40, -0.18, 1, 14816, 1091
18575145, 435, 0.08, -0.22, 1.00, -1.53, -1.53, 0.18, 1, 14939, 1093
18590518, 436, 0.08, -0.21, 1.02, -2.14, -2.62, 1.46, 1, 14433, 1095
18605351, 437, 0.07, -0.19, 1.03, -2.75, -1.77, 2.87, 1, 14559, 1097
18620340, 438, 0.07, -0.18, 1.03, -4.70, -0.18, 3.54, 1, 14782, 1099
18635524, 439, 0.11, -0.18, 1.04, -13.92, -0.37, 5.55, 1, 14634, 1101
18650501, 440, 0.13, -0.17, 1.07, -21.48, -0.73, 6.84, 1, 14831, 1103
18665730, 441, 0.15, -0.16, 1.10, -60.24, 0.12, 11.29, 1, 14568, 1105
18680641, 442, 0.13, -0.14, 1.30, -98.94, 4.27, 15.62, 1, 14482, 1107
18695614, 443, 0.09, -0.09, 1.34, -144.71, 26.61, 16.42, 1, 14445, 1109
18710496, 444, 0.12, -0.01, 1.31, -139.34, 24.96, 9.09, 1, 14697, 1111
18725682, 445, 0.16, -0.01, 1.45, -120.06, 6.23, -2.56, 1, 14808, 1113
18740982, 446, 0.25, -0.14, 1.40, -95.76, -9.58, -5.07, 1, 14577, 1115
18756051, 447, 0.18, -0.14, 1.31, -43.88, -42.42, -7.57, 1, 14644, 1117
18771187, 448, 0.11, -0.14, 1.33, -38.51, -47.42, -6.71, 1, 14619, 1119
18786346, 449, 0.06, -0.12, 1.36, -41.99, -36.99, -7.63, 1, 14765, 1121
18801544, 450, 0.06, -0.16, 1.49, -30.09, -17.82, -11.78, 1, 14762, 1123
18816765, 451, 0.08, -0.12, 1.43, 2.93, 16.60, -22.52, 1, 14622, 1125
18831852, 452, 0.04, 0.11, 1.41, 5.25, 26.86, -23.19, 1, 14578, 1127
18846918, 453, 0.06, 0.14, 1.37, -11.23, 20.45, -16.91, 1, 14640, 1129
18862045, 454, 0.11, 0.04, 1.37, -9.89, 6.47, -13.55, 1, 14469, 1131
18876915, 455, 0.13, -0.02, 1.32, 14.16, -26.06, -7.39, 1, 14562, 1133
18891845, 456, 0.09, -0.04, 1.12, 31.25, -47.18, -7.75, 1, 14777, 1135
18907016, 457, 0.07, 0.05, 1.08, 47.12, -72.08, -13.31, 1, 14949, 1137
18922334, 458, 0.04, 0.08, 1.09, 39.31, -69.15, -11.84, 1, 14595, 1139
18937316, 459, 0.05, 0.00, 1.05, 31.92, -58.04, -9.03, 1, 14716, 1141
18952396, 460, 0.02, -0.04, 1.05, 41.50, -51.27, -10.38, 1, 14882, 1143
18967657, 461, 0.01, 0.02, 1.08, 57.13, -37.05, -14.04, 1, 14444, 1145
18982495, 462, -0.02, 0.10, 1.17, 50.17, -29.60, -12.02, 1, 14360, 1147
18997347, 463, -0.02, 0.04, 1.04, 31.19, -44.43, -11.96, 1, 14657, 1149
19012527, 464, -0.06, -0.02, 0.88, 34.42, -59.27, -14.65, 1, 14693, 1151
19027655, 465, -0.06, -0.01, 0.85, 46.63, -65.25, -21.48, 1, 14693, 1153
19042782, 466, -0.01, 0.11, 0.75, 68.18, -69.03, -15.32, 1, 14675, 1155
19057952, 467, -0.01, 0.11, 0.67, 71.17, -72.63, -6.53, 1, 14782, 1157
19073195, 468, -0.04, -0.01, 0.49, 63.54, -68.12, 2.75, 1, 14604, 1159
19088234, 469, -0.05, -0.06, 0.58, 54.69, -55.42, 4.09, 1, 14690, 1161
19103406, 470, -0.03, -0.04, 0.62, 27.95, -35.95, 5.25, 1, 14533, 1163
19118382, 471, -0.01, -0.04, 0.54, 16.78, -33.02, 4.64, 1, 14613, 1165
19133391, 472, -0.02, -0.05, 0.50, 12.15, -38.70, 1.28, 1, 14729, 1167
19148484, 473, -0.05, -0.08, 0.44, 12.76, -46.45, -0.06, 1, 14779, 1169
19163649, 474, -0.07, -0.10, 0.39, 7.20, -61.34, -3.78, 1, 14672, 1172
19178691, 475, -0.08, -0.11, 0.32, 4.58, -60.42, -5.68, 1, 14575, 1174
19193776, 476, -0.08, -0.10, 0.29, 6.96, -49.93, -4.27, 1, 14767, 1176
19208950, 477, -0.08, -0.04, 0.29, 8.79, -43.52, -3.48, 1, 14739, 1178
19224031, 478, -0.07, -0.02, 0.30, -1.59, -21.36, -5.55, 1, 14886, 1180
19239253, 479, -0.03, -0.01, 0.17, -11.17, -13.43, -7.57, 1, 14718, 1182
19254341, 480, -0.03, 0.00, 0.09, -21.18, -10.93, -7.57, 1, 14698, 1184
19269384, 481, -0.00, -0.01, -0.13, -21.91, -12.88, -6.65, 1, 15285, 1186
19285116, 482, 0.03, -0.03, -0.23, -24.96, -17.09, -2.62, 1, 14726, 1188
19300363, 483, 0.16, 0.05, -0.65, -32.84, -20.94, 1.83, 1, 15301, 1190
19316007, 484, 0.24, 0.14, -1.07, -58.04, -24.05, 5.98, 1, 14913, 1192
19331463, 485, 0.54, 0.21, -2.40, -78.49, 11.05, -16.24, 1, 14607, 1194
19346515, 486, 1.31, 0.35, -3.90, -85.94, 51.27, -20.87, 1, 14730, 1196
19361757, 487, 1.94, 0.62, -4.00, -121.28, 208.44, 16.72, 1, 14569, 1198
19376674, 488, 3.50, 1.70, -3.40, -161.87, 346.44, 50.11, 1, 14510, 1200
19391553, 489, 2.92, 1.53, -0.86, 139.10, 634.95, 150.45, 1, 14563, 1202
19406486, 490, -1.23, -1.15, 2.87, 363.83, 289.98, 101.26, 1, 14524, 1204
19421473, 491, -2.72, -2.21, 2.88, 92.65, -167.72, -17.88, 1, 15051, 1206
19436891, 492, 0.72, 0.56, 1.18, -33.02, 55.66, -25.82, 1, 14725, 1208
19452046, 493, 1.77, 1.70, -1.68, 30.70, 0.61, -48.16, 1, 14480, 1210
19466953, 494, 0.41, -0.44, 0.75, 15.75, -47.55, -12.02, 1, 15026, 1212
19482351, 495, -0.55, -0.82, 2.18, -10.99, -27.89, 5.25, 1, 15086, 1214
19497819, 496, -0.18, -0.12, 1.11, -2.50, 20.45, 4.88, 1, 15029, 1216
19513247, 497, 0.19, 0.01, 0.62, -5.31, 15.87, -7.87, 1, 14746, 1218
19528389, 498, -0.00, -0.19, 0.99, -11.17, -10.68, -12.82, 1, 14802, 1220
19543606, 499, -0.17, -0.25, 1.31, -10.56, -14.34, -11.41, 1, 14723, 1223
19558766, 500, 0.06, -0.16, 1.01, -5.13, 5.31, -5.98, 1, 14522, 1225
19573691, 501, 0.25, -0.17, 0.80, 0.67, 27.71, 1.89, 1, 14452, 1227
19588486, 502, 0.12, -0.34, 0.94, -2.93, 19.29, -0.43, 1, 14539, 1228
19603395, 503, 0.07, -0.30, 1.05, -10.38, 9.89, -7.02, 1, 14603, 1230
19618443, 504, 0.11, -0.18, 0.94, -8.97, 6.29, -7.51, 1, 14663, 1232
19633663, 505, 0.15, -0.15, 0.87, -0.98, -4.27, -7.14, 1, 14649, 1235
19648716, 506, 0.11, -0.14, 0.96, 1.53, -6.90, -8.24, 1, 14667, 1237
19663769, 507, 0.04, -0.18, 1.04, 2.32, -0.92, -8.85, 1, 14731, 1239
19678941, 508, 0.01, -0.24, 1.07, 0.79, 3.30, -7.69, 1, 14504, 1241
19693938, 509, 0.06, -0.22, 1.01, -0.67, 3.23, -6.16, 1, 15277, 1243
19709588, 510, 0.10, -0.19, 0.94, -0.49, -1.83, -6.23, 1, 15025, 1245
19725012, 511, 0.06, -0.24, 1.02, -1.04, -1.89, -5.55, 1, 14660, 1247
19740044, 512, 0.04, -0.22, 1.02, -3.72, -0.61, -3.30, 1, 14603, 1249
19755046, 513, 0.05, -0.16, 0.99, -3.97, -0.61, -3.36, 1, 14894, 1251
19770315, 514, 0.07, -0.18, 0.99, -1.65, 0.00, -4.46, 1, 15056, 1253
19785764, 515, 0.12, -0.22, 0.99, -1.28, 0.79, -4.39, 1, 14649, 1255
19800925, 516, 0.11, -0.22, 0.97, -1.59, -0.24, -3.72, 1, 14873, 1257
19816174, 517, 0.09, -0.24, 0.96, -0.92, -1.46, -3.36, 1, 14611, 1259
19831259, 518, 0.08, -0.25, 0.97, -0.24, -1.95, -2.26, 1, 14778, 1261
19846501, 519, 0.05, -0.24, 1.00, -0.92, -1.34, -1.59, 1, 15195, 1263
19862069, 520, 0.04, -0.23, 1.00, -1.71, -0.61, -0.06, 1, 14984, 1265
19877436, 521, 0.04, -0.23, 0.99, -1.77, -0.43, 0.55, 1, 14714, 1267
19892521, 522, 0.05, -0.23, 1.00, -2.62, 0.61, 1.53, 1, 14366, 1269
19907257, 523, 0.07, -0.19, 0.99, -3.05, 0.85, 1.83, 1, 14766, 1271
19922393, 524, 0.07, -0.18, 0.99, -3.30, 0.00, 1.83, 1, 14498, 1273
19937442, 525, 0.06, -0.18, 1.02, -3.42, 0.18, 1.77, 1, 14370, 1275
19952328, 526, 0.06, -0.18, 1.02, -4.03, 2.14, 2.50, 1, 14473, 1277
19967199, 527, 0.08, -0.17, 0.98, -3.23, 2.62, 2.75, 1, 14667, 1279
19982264, 528, 0.09, -0.19, 0.98, 0.18, 2.38, 2.93, 1, 14397, 1281
19997002, 529, 0.07, -0.22, 1.00, 1.10, 2.32, 3.11, 1, 14385, 1283
20011842, 530, 0.07, -0.23, 1.00, 0.98, 2.93, 3.66, 1, 14496, 1285
20026682, 531, 0.07, -0.23, 0.99, 0.67, 2.99, 3.72, 1, 14403, 1287
20041465, 532, 0.07, -0.23, 0.98, -0.73, 2.87, 3.66, 1, 14594, 1289
20056473, 533, 0.09, -0.24, 0.99, -2.62, 2.99, 3.97, 1, 14595, 1291
20071553, 534, 0.09, -0.23, 0.99, -6.90, 1.10, 5.13, 1, 14434, 1293
20086545, 535, 0.09, -0.21, 1.03, -9.83, -0.61, 5.86, 1, 14574, 1295
20101553, 536, 0.09, -0.20, 1.07, -26.86, -2.81, 8.61, 1, 14668, 1297
20116591, 537, 0.10, -0.19, 1.11, -66.41, -8.61, 14.65, 1, 14544, 1299
20131503, 538, 0.11, -0.19, 1.17, -95.52, -7.32, 18.62, 1, 14836, 1301
20146766, 539, 0.08, -0.18, 1.44, -139.47, 24.23, 28.75, 1, 14677, 1303
20161785, 540, 0.13, -0.14, 1.24, -144.84, 29.85, 29.11, 1, 14697, 1305
20176881, 541, 0.15, -0.10, 1.25, -126.83, 7.45, 24.29, 1, 14659, 1307
20191881, 542, 0.15, 0.03, 1.43, -90.09, -8.48, 20.81, 1, 14923, 1309
20207177, 543, 0.14, 0.01, 1.42, -17.70, -48.65, 15.32, 1, 14524, 1311
20222074, 544, 0.02, -0.23, 1.55, 8.06, -63.35, 10.74, 1, 14411, 1313
20236867, 545, -0.04, -0.32, 1.71, 34.67, -49.80, -3.85, 1, 14774, 1315
20252155, 546, -0.04, -0.18, 1.72, 28.20, -30.76, -8.54, 1, 14567, 1317
20267123, 547, -0.03, -0.06, 1.59, 11.23, -18.43, -9.95, 1, 14760, 1319
20282290, 548, -0.00, 0.02, 1.52, 14.47, -23.19, -10.25, 1, 14750, 1321
20297454, 549, 0.02, -0.01, 1.47, 36.19, -41.26, -6.96, 1, 14542, 1323
20312469, 550, 0.04, -0.08, 1.33, 43.70, -51.82, -4.70, 1, 14590, 1325
20327429, 551, 0.03, -0.07, 1.29, 43.64, -62.07, -1.22, 1, 14656, 1327
20342453, 552, 0.01, -0.07, 1.18, 39.37, -63.42, 1.28, 1, 14432, 1329
20357382, 553, 0.01, -0.09, 1.18, 43.70, -60.67, -3.54, 1, 14381, 1331
20372171, 554, 0.01, -0.11, 1.29, 50.35, -52.61, -8.12, 1, 14497, 1333
20387072, 555, 0.01, -0.12, 1.24, 50.66, -43.88, -14.16, 1, 14795, 1335
20402299, 556, 0.04, -0.12, 0.95, 49.44, -53.16, -15.56, 1, 14790, 1337
20417516, 557, 0.02, -0.06, 0.88, 56.27, -80.14, -14.83, 1, 14911, 1339
20432916, 558, -0.02, -0.01, 0.74, 58.35, -88.56, -14.04, 1, 14995, 1341
20448302, 559, -0.05, 0.03, 0.71, 49.38, -92.59, -11.84, 1, 14593, 1343
20463259, 560, -0.04, 0.15, 0.77, 39.61, -80.99, -6.59, 1, 14908, 1345
20478511, 561, -0.02, 0.14, 0.68, 33.26, -62.81, 9.03, 1, 14851, 1347
20493769, 562, -0.04, 0.02, 0.33, 39.37, -67.08, 11.96, 1, 14370, 1350
20508604, 563, -0.06, -0.04, 0.24, 42.91, -65.80, 9.70, 1, 14452, 1352
20523500, 564, -0.08, -0.02, 0.17, 34.06, -60.36, 6.47, 1, 14750, 1353
20538698, 565, -0.08, -0.01, 0.13, 18.86, -53.77, 3.05, 1, 14525, 1356
20553593, 566, -0.07, -0.01, -0.02, 20.45, -52.12, 3.30, 1, 14517, 1358
20568548, 567, -0.09, -0.03, -0.01, 20.94, -31.80, 5.92, 1, 14916, 1359
20583909, 568, -0.05, -0.11, 0.08, 0.37, 2.81, 0.49, 1, 14536, 1362
20598815, 569, -0.01, -0.12, 0.08, -5.19, 11.41, -2.69, 1, 14554, 1364
20613816, 570, -0.02, -0.10, 0.01, -9.70, 5.43, -7.39, 1, 14683, 1366
20628880, 571, -0.04, -0.07, -0.04, -9.77, 0.85, -8.67, 1, 14762, 1368
20644021, 572, -0.05, -0.05, -0.02, -17.88, 4.52, -9.09, 1, 15025, 1370
20659425, 573, -0.01, 0.05, -0.06, -24.78, 9.03, -7.39, 1, 14550, 1372
20674385, 574, 0.02, 0.07, -0.21, -28.32, 7.45, -0.12, 1, 14445, 1374
20689181, 575, 0.13, 0.14, -0.84, -34.55, -1.71, 0.49, 1, 14491, 1376
20704200, 576, 0.22, 0.16, -1.30, -69.82, -28.99, -1.22, 1, 14683, 1378
20719287, 577, 0.61, 0.24, -2.48, -90.64, -43.21, 3.54, 1, 14525, 1380
20734250, 578, 0.95, 0.40, -3.12, -132.20, -11.66, 14.40, 1, 14513, 1382
20749142, 579, 1.72, 1.27, -3.33, -165.28, 60.61, 21.61, 1, 14393, 1384
20763932, 580, 2.23, 1.68, -2.64, -226.68, 269.41, 54.50, 1, 14422, 1386
20778824, 581, 1.79, 1.17, 1.41, -40.16, 495.30, 134.83, 1, 14248, 1388
20793470, 582, 0.56, -0.77, 3.27, 455.26, 258.54, 88.01, 1, 14638, 1389
20808659, 583, -2.52, -2.34, 3.09, 263.67, -193.97, -31.92, 1, 15022, 1392
20824118, 584, -0.74, -1.04, 2.07, -127.32, 19.17, -127.75, 1, 14916, 1394
20839514, 585, 1.96, 2.15, -2.14, -115.17, 2.99, -147.77, 1, 14999, 1396
20854990, 586, 0.78, 0.75, -1.30, 52.31, -19.35, 3.17, 1, 14388, 1398
20869858, 587, -0.37, -0.88, 2.70, 33.81, 43.70, 9.16, 1, 14388, 1400
20884679, 588, -0.46, -0.32, 1.87, -23.56, -16.78, -24.35, 1, 15226, 1402
20900258, 589, 0.08, -0.01, 0.47, -15.32, -2.01, -14.53, 1, 14720, 1404
20915390, 590, 0.10, -0.18, 0.61, -3.66, 5.13, -7.45, 1, 14685, 1406
20930473, 591, -0.14, -0.27, 1.31, -5.07, 9.34, -8.73, 1, 14547, 1408
20945426, 592, -0.04, -0.21, 1.22, -4.33, 29.79, -2.69, 1, 14731, 1410
20960623, 593, 0.25, -0.22, 0.79, -1.89, 38.21, 2.01, 1, 14758, 1412
20975839, 594, 0.22, -0.29, 0.82, -5.62, 23.68, -5.43, 1, 14987, 1414
20991198, 595, 0.03, -0.18, 1.06, -11.84, -5.43, -13.49, 1, 14673, 1416
21006244, 596, -0.02, -0.13, 1.09, -9.77, -9.16, -11.84, 1, 14799, 1418
21021413, 597, 0.02, -0.13, 0.98, -1.89, -0.24, -9.46, 1, 14595, 1420
21036423, 598, 0.07, -0.14, 0.92, 1.22, 4.52, -10.56, 1, 14380, 1422
21051425, 599, 0.06, -0.20, 0.98, 3.36, 10.31, -11.29, 1, 14421, 1424
21066217, 600, 0.04, -0.24, 1.04, 1.34, 10.07, -11.05, 1, 14311, 1426
21080946, 601, 0.04, -0.20, 1.01, -1.71, 3.72, -10.50, 1, 14992, 1428
21096336, 602, 0.05, -0.19, 0.97, -0.79, 0.61, -10.25, 1, 14686, 1430
21111366, 603, 0.05, -0.21, 0.98, 0.92, -0.85, -9.09, 1, 14412, 1432
21126183, 604, 0.05, -0.21, 0.99, 0.55, -0.12, -8.36, 1, 14468, 1434
21141091, 605, 0.06, -0.21, 0.98, 0.06, 0.61, -7.75, 1, 14524, 1436
21155995, 606, 0.09, -0.24, 0.97, 0.06, 0.31, -7.75, 1, 14515, 1438
21170908, 607, 0.09, -0.24, 0.97, -0.92, 0.18, -7.26, 1, 14586, 1440
21185895, 608, 0.06, -0.22, 0.98, -1.40, 0.31, -6.71, 1, 14825, 1442
21201120, 609, 0.05, -0.22, 0.99, -2.14, 0.37, -5.43, 1, 14734, 1444
21216288, 610, 0.02, -0.19, 1.02, -2.20, 0.73, -4.82, 1, 14936, 1446
21231620, 611, 0.01, -0.18, 1.03, -1.95, 2.56, -3.30, 1, 14736, 1448
21246698, 612, 0.03, -0.18, 1.02, -1.95, 2.56, -3.30, 0, 10436, 1450
21257544, 613, 0.05, -0.20, 1.01, -2.38, 4.64, -2.44, 1, 14778, 1451
21272693, 614, 0.06, -0.21, 1.00, -6.10, 5.07, -2.20, 1, 14660, 1453
21287752, 615, 0.05, -0.19, 1.01, -9.52, 4.39, -1.89, 1, 14405, 1455
21302669, 616, 0.04, -0.16, 1.02, -15.08, 6.16, -0.98, 1, 14480, 1457
21317600, 617, 0.03, -0.16, 1.04, -17.09, 8.91, 0.06, 1, 14549, 1459
21332491, 618, 0.05, -0.18, 1.07, -44.62, 12.76, 6.41, 1, 14745, 1461
21347605, 619, 0.04, -0.12, 0.97, -61.46, 9.89, 11.41, 1, 14543, 1463
21362527, 620, 0.04, -0.13, 0.93, -29.79, -3.78, 13.92, 1, 14776, 1465
21377704, 621, 0.13, -0.23, 0.93, -15.32, -4.09, 12.70, 1, 14766, 1467
21392837, 622, 0.14, -0.21, 0.95, -10.19, 4.21, 4.70, 1, 14738, 1469
21407941, 623, 0.09, -0.13, 1.01, -8.61, 5.00, 0.98, 1, 14769, 1471
21423053, 624, 0.07, -0.11, 1.04, 0.49, 2.93, -2.38, 1, 14484, 1473
21437944, 625, 0.08, -0.11, 1.03, 5.86, 2.20, -2.32, 1, 14637, 1475
21453022, 626, 0.10, -0.10, 1.01, 10.74, -1.95, -3.11, 1, 14791, 1477
21468248, 627, 0.10, -0.13, 0.96, 9.09, -6.41, -4.03, 1, 14702, 1479
21483381, 628, 0.06, -0.15, 0.97, 7.93, -4.58, -4.52, 1, 14490, 1481
21498414, 629, 0.06, -0.15, 0.99, 3.54, -1.95, -5.55, 1, 14549, 1483
21513336, 630, 0.05, -0.14, 1.01, 0.67, -3.48, -4.58, 1, 14531, 1485
21528265, 631, 0.03, -0.14, 1.02, 0.43, -3.54, -1.89, 1, 14637, 1487
21543293, 632, 0.03, -0.13, 1.02, 4.88, -0.85, -1.16, 1, 14611, 1489
21558307, 633, 0.04, -0.15, 1.02, 18.07, 3.91, 0.92, 1, 14781, 1491
21573459, 634, 0.07, -0.17, 1.00, 22.95, 4.39, 2.44, 1, 14650, 1493
21588510, 635, 0.07, -0.18, 0.99, 30.40, 4.03, 5.98, 1, 14414, 1495
21603360, 636, 0.07, -0.18, 0.99, 31.74, 4.33, 9.16, 1, 14317, 1497
21618057, 637, 0.08, -0.17, 0.99, 28.63, 2.62, 15.26, 1, 14261, 1499
21632698, 638, 0.10, -0.20, 0.98, 23.25, -0.37, 15.56, 1, 14464, 1501
21647562, 639, 0.14, -0.21, 1.01, -20.02, 5.25, 21.85, 1, 14560, 1503
21662519, 640, 0.34, -0.18, 1.13, -66.10, 23.86, 45.84, 1, 14455, 1505
21677317, 641, 0.17, -0.24, 1.17, -94.36, 54.32, 82.40, 1, 14787, 1507
21692448, 642, 0.06, -0.17, 1.15, -91.61, 47.18, 70.50, 1, 14800, 1509
21707591, 643, 0.14, -0.04, 1.06, -97.23, 11.84, 45.29, 1, 14589, 1511
21722662, 644, 0.01, 0.05, 0.87, -94.18, -2.62, 46.57, 1, 14509, 1513
21737594, 645, -0.01, 0.00, 0.98, -106.51, 0.37, 60.06, 1, 14483, 1515
21752504, 646, 0.22, -0.07, 1.23, -128.11, 9.89, 65.49, 1, 14395, 1517
21767267, 647, 0.23, 0.04, 1.15, -154.66, -14.34, 75.01, 1, 14464, 1519
21782194, 648, 0.04, 0.04, 1.09, -159.36, -36.38, 82.89, 1, 14574, 1521
21797311, 649, 0.11, 0.02, 1.21, -251.34, -32.04, 91.37, 1, 14685, 1523
21812544, 650, 0.23, 0.08, 1.20, -297.97, -29.91, 96.56, 1, 14848, 1525
21827789, 651, 0.12, 0.07, 1.00, -237.79, -86.91, 79.83, 1, 14732, 1527
21842892, 652, -0.11, 0.18, 0.71, -171.87, -114.99, 56.95, 1, 14624, 1529
21857933, 653, -0.20, 0.10, 0.73, -103.88, -107.79, 19.23, 1, 15007, 1531
21873338, 654, -0.19, 0.14, 0.87, -125.61, -74.28, -4.39, 1, 14655, 1533
21888407, 655, -0.15, 0.27, 0.85, -177.31, -3.72, -45.53, 1, 14869, 1535
21903647, 656, -0.15, 0.24, 0.74, -156.07, 9.03, -67.75, 1, 14697, 1538
21918791, 657, -0.13, 0.24, 0.65, -89.72, 1.53, -128.36, 1, 14692, 1540
21933856, 658, -0.13, 0.43, 0.44, -48.77, 2.62, -156.56, 1, 14448, 1542
21948791, 659, 0.05, 0.52, 0.39, 67.02, 43.15, -183.90, 1, 14352, 1544
21963484, 660, 0.47, 0.99, 0.62, 116.52, 78.67, -155.09, 1, 14374, 1545
21978252, 661, 0.39, 0.91, 0.86, 217.35, 91.80, -25.88, 1, 14416, 1547
21993098, 662, 0.20, 0.14, 1.09, 243.90, 41.20, 1.46, 1, 14452, 1549
22007919, 663, 0.16, -0.01, 1.18, 237.49, -68.97, -15.75, 1, 14540, 1551
22022827, 664, 0.23, 0.10, 1.16, 208.74, -63.84, -27.65, 1, 14582, 1553
22037752, 665, 0.20, 0.25, 1.18, 109.07, 20.45, -3.48, 1, 14400, 1555
22052575, 666, 0.06, 0.14, 1.10, 76.35, 33.33, 15.14, 1, 14211, 1557
22067157, 667, 0.00, 0.07, 1.01, 81.24, 2.38, -4.46, 1, 14248, 1559
22081932, 668, 0.00, 0.21, 0.72, 109.50, -2.87, -23.56, 1, 14427, 1561
22096701, 669, 0.07, 0.20, 0.70, 179.87, 15.44, -34.36, 1, 14320, 1563
22111431, 670, 0.25, 0.07, 0.84, 179.87, 15.44, -34.36, 0, 10081, 1565
22121910, 671, 0.37, 0.01, 0.88, 252.50, 29.11, -54.99, 1, 14461, 1566
22136768, 672, 0.36, -0.09, 0.97, 286.07, 22.09, -85.82, 1, 14361, 1568
22151612, 673, 0.00, -0.32, 1.23, 257.75, 28.63, -73.85, 1, 14592, 1570
22166574, 674, -0.05, -0.35, 1.34, 149.29, 31.25, -41.99, 1, 14521, 1572
22181529, 675, 0.10, -0.24, 1.39, 102.11, 6.53, -24.17, 1, 14522, 1574
22196421, 676, 0.08, -0.25, 1.22, 136.90, -34.12, 5.31, 1, 14917, 1576
22211739, 677, -0.01, -0.17, 1.07, 180.97, -28.93, 14.34, 1, 14682, 1578
22226819, 678, -0.01, -0.15, 1.04, 229.13, -31.98, 97.11, 1, 14505, 1580
22241687, 679, 0.42, -0.23, 0.74, 206.85, -56.95, 131.35, 1, 14397, 1582
22256518, 680, 0.38, -0.47, 0.73, 84.11, -81.67, 55.54, 1, 14437, 1584
22271429, 681, 0.06, -0.52, 0.87, 42.24, -57.68, 3.72, 1, 14447, 1586
22286253, 682, -0.03, -0.38, 0.95, 53.59, 5.43, -17.46, 1, 14900, 1588
22301553, 683, -0.00, -0.42, 0.97, 87.83, 24.17, 5.07, 1, 14340, 1590
22316303, 684, 0.06, -0.50, 0.97, 148.99, 27.83, 48.65, 1, 14653, 1592
22331355, 685, 0.16, -0.54, 0.91, 175.54, 20.08, 54.14, 1, 14882, 1594
22346644, 686, 0.20, -0.51, 0.85, 195.19, 9.03, 31.86, 1, 14705, 1596
22361750, 687, 0.18, -0.53, 0.75, 182.50, 11.29, 12.57, 1, 14797, 1598
22376952, 688, 0.14, -0.60, 0.69, 105.47, 7.32, 3.05, 1, 14451, 1600
22391808, 689, 0.12, -0.75, 0.66, 51.76, -0.73, 11.84, 1, 14390, 1602
22406632, 690, 0.13, -0.78, 0.69, -17.76, -4.09, 38.15, 1, 14532, 1604
22421554, 691, 0.23, -0.61, 0.78, -24.54, -1.59, 49.93, 1, 14582, 1606
22436507, 692, 0.29, -0.50, 0.88, 31.62, 11.72, 17.58, 1, 14600, 1608
22451505, 693, 0.13, -0.60, 0.85, 56.64, 10.74, -0.79, 1, 14255, 1610
22466177, 694, 0.12, -0.65, 0.80, 68.85, 4.52, 4.15, 1, 14334, 1612
22480905, 695, 0.22, -0.66, 0.74, 80.02, 8.24, 5.13, 1, 14227, 1614
22495544, 696, 0.25, -0.68, 0.71, 97.29, 6.53, -4.46, 1, 14578, 1616
22510533, 697, 0.22, -0.68, 0.68, 95.34, -1.53, -10.25, 1, 14690, 1618
22525661, 698, 0.17, -0.65, 0.72, 69.03, -5.68, -26.49, 1, 14597, 1620
22540629, 699, 0.13, -0.64, 0.75, 60.42, -7.39, -36.25, 1, 14740, 1622
22555769, 700, 0.02, -0.72, 0.74, 36.44, -27.95, -45.59, 1, 14775, 1624
22570916, 701, 0.02, -0.79, 0.62, 7.69, -33.26, -31.98, 1, 14957, 1626
22586383, 702, 0.07, -0.78, 0.61, -41.32, -9.03, -2.50, 1, 14782, 1628
22601582, 703, 0.14, -0.71, 0.71, -57.25, 8.48, 1.65, 1, 14557, 1630
22616649, 704, 0.13, -0.56, 0.75, -57.92, 8.48, -6.47, 1, 14924, 1632
22631950, 705, 0.10, -0.66, 0.70, -63.54, 6.35, -11.54, 1, 14759, 1634
22647092, 706, 0.14, -0.82, 0.67, -82.82, 3.97, -3.91, 1, 14960, 1636
22662451, 707, 0.14, -0.71, 0.74, -115.11, -4.64, 2.32, 1, 14531, 1638
22677433, 708, 0.13, -0.61, 0.77, -117.68, -10.25, 3.48, 1, 14923, 1640
22692698, 709, 0.13, -0.62, 0.79, -123.66, -14.40, 2.44, 1, 15011, 1642
22708218, 710, 0.13, -0.62, 0.82, -122.01, -11.84, 0.12, 1, 14644, 1644
22723261, 711, 0.15, -0.65, 0.74, -156.74, -22.52, -0.92, 1, 14846, 1646
22738459, 712, 0.18, -0.59, 0.63, -228.09, -40.16, -4.46, 1, 15104, 1648
22754025, 713, 0.17, -0.43, 0.71, -411.01, -65.92, -22.34, 1, 14662, 1651
22769123, 714, 0.06, -0.26, 0.91, -464.17, -63.17, -20.94, 1, 14981, 1653
22784512, 715, -0.10, -0.18, 1.17, -368.77, -26.67, 7.08, 1, 15042, 1655
22799926, 716, 0.08, 0.10, 1.45, -74.46, -29.30, 8.73, 1, 14508, 1657
22814892, 717, 0.15, -0.10, 1.23, -40.47, -66.77, 11.47, 1, 14633, 1659
22829869, 718, -0.01, -0.10, 1.00, -65.92, -92.77, 17.15, 1, 14615, 1661
22844890, 719, -0.06, -0.07, 0.94, -52.61, -74.83, 21.67, 1, 14774, 1663
22860049, 720, -0.05, -0.15, 0.89, -23.19, -27.83, 15.14, 1, 14537, 1665
22875094, 721, -0.05, -0.13, 0.88, -9.40, -3.23, 7.32, 1, 14557, 1667
22890111, 722, -0.03, -0.12, 0.94, 14.28, 35.40, -0.92, 1, 14552, 1669
22905045, 723, 0.02, -0.12, 1.07, 18.13, 38.02, -1.04, 1, 14409, 1671
22919855, 724, 0.03, -0.12, 1.07, 17.64, 19.96, -3.42, 1, 14378, 1673
22934753, 725, 0.01, -0.11, 1.00, 18.92, 13.55, -6.65, 1, 14402, 1675
22949596, 726, 0.01, -0.10, 0.98, 16.05, 14.59, -12.88, 1, 14507, 1677
22964501, 727, -0.03, 0.02, 1.01, 5.31, 14.95, -17.09, 1, 14723, 1679
22979595, 728, -0.06, 0.06, 1.02, -13.61, 8.36, -34.36, 1, 14841, 1681
22994852, 729, -0.01, 0.03, 1.00, -7.87, 6.35, -42.11, 1, 14817, 1683
23010066, 730, 0.10, -0.10, 0.98, 1.34, 26.49, -39.25, 1, 14513, 1685
23024950, 731, 0.15, -0.57, 1.10, -26.00, 44.01, -0.79, 1, 14772, 1687
23040091, 732, 0.08, -0.30, 1.25, -129.03, 40.47, 48.28, 1, 14720, 1689
23055203, 733, 0.11, -0.04, 1.32, -160.16, 18.55, 54.87, 1, 14319, 1691
23069929, 734, 0.04, -0.09, 1.37, -236.08, -7.45, 64.09, 1, 14487, 1693
23084927, 735, 0.05, -0.01, 1.65, -318.73, -2.75, 60.24, 1, 14457, 1695
23099754, 736, 0.28, 0.10, 1.60, -546.94, -18.86, 95.76, 1, 14364, 1697
23114523, 737, 0.41, 0.29, 0.74, -595.09, -73.91, 133.48, 1, 14497, 1699
23129421, 738, 0.21, 0.21, 0.32, -339.78, -220.28, 156.13, 1, 14398, 1701
23144193, 739, -0.28, 0.26, 0.26, -148.74, -236.51, 130.07, 1, 14685, 1703
23159220, 740, -0.40, 0.32, 0.51, -27.47, -120.61, 67.32, 1, 14555, 1705
23174182, 741, -0.27, 0.42, 0.74, -70.13, -53.47, 48.46, 1, 14525, 1707
23189141, 742, -0.20, 0.49, 0.66, -116.39, 26.37, 46.57, 1, 14322, 1709
23203891, 743, -0.15, 0.58, 0.81, -94.42, 27.89, 48.52, 1, 14440, 1711
23218730, 744, -0.17, 0.58, 0.94, -47.18, -28.87, 45.41, 1, 14599, 1713
23233726, 745, -0.24, 0.49, 0.89, -46.69, -50.90, 44.13, 1, 14643, 1715
23248769, 746, -0.22, 0.48, 0.80, -59.57, -53.96, 42.72, 1, 14528, 1717
23263678, 747, -0.33, 0.51, 0.70, -52.98, -47.91, 40.59, 1, 14484, 1719
23278589, 748, -0.38, 0.55, 0.78, -69.52, -25.57, 31.68, 1, 14552, 1721
23293484, 749, -0.25, 0.58, 0.83, -91.31, -17.46, 28.93, 1, 14659, 1722
23308645, 750, -0.16, 0.52, 0.73, -61.10, -41.32, 23.13, 1, 14665, 1725
23323721, 751, -0.17, 0.46, 0.58, -17.76, -48.22, 17.58, 1, 14421, 1727
23338519, 752, -0.26, 0.48, 0.61, 25.70, -6.23, 8.18, 1, 14968, 1728
23353858, 753, -0.36, 0.53, 0.81, 17.46, 20.20, 3.11, 1, 14578, 1731
23368815, 754, -0.32, 0.58, 0.90, -22.71, 33.69, -4.94, 1, 14929, 1733
23384117, 755, -0.25, 0.60, 0.92, -38.15, 22.89, -5.55, 1, 14898, 1735
23399414, 756, -0.25, 0.58, 0.86, -65.06, -3.66, -7.20, 1, 14679, 1737
23414475, 757, -0.26, 0.56, 0.82, -80.51, -8.54, -8.18, 1, 14664, 1739
23429508, 758, -0.29, 0.55, 0.85, -138.67, -0.92, -11.60, 1, 14714, 1741
23444572, 759, -0.86, 1.30, 0.72, -243.23, 0.37, -34.61, 1, 14669, 1743
23459694, 760, -0.26, 0.84, 0.62, -369.20, 10.13, -30.58, 1, 14578, 1745
23474765, 761, 0.28, 0.27, 0.42, -352.36, 18.98, 20.51, 1, 14377, 1747
23489550, 762, -0.32, 0.79, 0.34, -49.87, -57.31, 7.45, 1, 14514, 1749
23504463, 763, -0.43, 0.79, 0.49, -25.45, -35.22, -0.61, 1, 14737, 1751
23519598, 764, -0.36, 0.75, 0.46, -98.75, 24.29, -7.32, 1, 14436, 1753
23534373, 765, -0.26, 0.84, 0.41, -101.93, 31.56, -10.74, 1, 14610, 1755
23549387, 766, -0.23, 0.86, 0.35, -53.34, 15.50, -17.52, 1, 14624, 1757
23564474, 767, -0.26, 0.95, 0.14, -3.23, -1.89, -24.96, 1, 14675, 1759
23579666, 768, -0.29, 0.88, 0.18, 157.47, -26.18, -40.47, 1, 14669, 1761
23594769, 769, -0.33, 0.51, 0.77, 170.35, -4.82, -40.83, 1, 14454, 1763
23609650, 770, -0.24, 0.57, 0.81, -17.58, 69.09, -44.68, 1, 14560, 1765
23624606, 771, -0.07, 0.96, 0.51, -70.43, 73.00, -45.47, 1, 14705, 1767
23639680, 772, -0.05, 1.02, 0.48, -33.87, 28.56, -23.68, 1, 15013, 1769
23655084, 773, -0.18, 0.87, 0.59, -3.36, 0.73, -2.93, 1, 14448, 1771
23669899, 774, -0.26, 0.79, 0.62, -11.35, 4.27, -1.53, 1, 14535, 1773
23684806, 775, -0.21, 0.78, 0.51, -37.72, 14.71, -7.63, 1, 14458, 1775
23699663, 776, -0.16, 0.82, 0.41, -33.14, 10.86, -11.17, 1, 14512, 1777
23714631, 777, -0.12, 0.90, 0.27, 24.23, -1.83, -18.92, 1, 14396, 1779
23729401, 778, -0.17, 0.89, 0.31, 64.15, -1.04, -23.62, 1, 14841, 1781
23744593, 779, -0.14, 0.78, 0.47, 123.66, 6.47, -44.31, 1, 14669, 1783
23759633, 780, -0.03, 0.70, 0.42, 164.25, 4.88, -61.83, 1, 14415, 1785
23774594, 781, -0.25, 0.62, 0.48, 162.41, 5.37, -44.31, 1, 14376, 1787
23789371, 782, -0.20, 0.75, 0.84, 72.88, 37.41, -12.94, 1, 14437, 1789
23804217, 783, -0.04, 0.80, 0.91, -24.66, 63.78, -21.61, 1, 14546, 1791
23819161, 784, 0.07, 0.90, 0.84, -38.27, 45.29, -24.84, 1, 14362, 1793
23834046, 785, 0.04, 0.88, 0.81, -50.29, -7.32, 8.85, 1, 15047, 1795
23849462, 786, -0.12, 0.82, 0.61, -68.30, -27.83, 22.64, 1, 14549, 1797
23864464, 787, -0.14, 0.86, 0.49, -70.86, -43.82, 25.27, 1, 14993, 1799
23879838, 788, -0.17, 0.91, 0.44, -45.10, -41.93, 26.12, 1, 14686, 1801
23894895, 789, -0.24, 0.89, 0.55, -19.65, -35.16, 30.82, 1, 15084, 1803
23910381, 790, -0.20, 0.86, 0.74, -79.47, -28.44, 36.74, 1, 14518, 1805
23925409, 791, -0.09, 0.91, 0.69, -230.65, -30.46, 65.61, 1, 14870, 1807
23940654, 792, -0.04, 0.94, 0.50, -272.64, -45.23, 92.83, 1, 14699, 1809
23955722, 793, -0.02, 0.91, 0.36, -285.64, -79.41, 147.83, 1, 14620, 1811
23970712, 794, -0.18, 0.89, 0.21, -240.60, -88.87, 154.85, 1, 14715, 1813
23985797, 795, -0.34, 0.89, 0.16, -138.79, -83.74, 126.16, 1, 14910, 1815
24001080, 796, -0.38, 0.85, -0.01, -121.52, -71.47, 111.69, 1, 15405, 1817
24016913, 797, -0.34, 0.95, -0.06, -101.50, -32.10, 110.47, 1, 14562, 1819
24031985, 798, -0.44, 1.09, 0.16, -52.61, -22.28, 108.15, 1, 14537, 1821
24047032, 799, -0.46, 0.97, 0.34, 2.32, -17.27, 82.76, 1, 14494, 1823
24061971, 800, -0.38, 0.77, 0.24, -9.77, -12.70, 65.98, 1, 14635, 1825
24076995, 801, -0.47, 0.85, 0.08, 4.21, -18.25, 35.77, 1, 14409, 1827
24091806, 802, -0.61, 1.01, -0.03, 26.98, -18.98, 27.83, 1, 14673, 1829
24106848, 803, -0.65, 1.00, -0.01, 71.41, 0.31, 11.54, 1, 14596, 1831
24121870, 804, -0.66, 0.89, 0.12, 89.23, 24.48, -4.09, 1, 14319, 1833
24136588, 805, -0.67, 0.90, 0.20, 88.93, 81.48, -48.16, 1, 14523, 1835
24151480, 806, -0.62, 0.94, 0.20, 108.76, 90.33, -81.60, 1, 14431, 1837
24166290, 807, -0.50, 0.87, 0.28, 172.85, 85.39, -122.68, 1, 14359, 1839
24181175, 808, -0.35, 0.83, 0.67, 159.97, 91.80, -115.48, 1, 14389, 1841
24195965, 809, -0.36, 0.97, 0.80, 73.06, 87.34, -100.77, 1, 14492, 1843
24210798, 810, -0.32, 1.24, 0.77, 43.95, 71.53, -99.85, 1, 14535, 1845
24225712, 811, -0.31, 1.29, 0.69, 26.12, 39.43, -73.97, 1, 14444, 1847
24240622, 812, -0.26, 1.16, 0.72, 17.27, 27.47, -52.86, 1, 14676, 1849
24255678, 813, -0.18, 1.04, 0.73, -33.51, 1.59, -8.06, 1, 14563, 1851
24270611, 814, -0.21, 0.99, 0.52, -42.48, -19.41, 7.75, 1, 14653, 1853
24285635, 815, -0.28, 1.02, 0.44, -4.64, -45.84, 22.28, 1, 14660, 1855
24300666, 816, -0.28, 0.98, 0.45, 15.93, -46.33, 27.47, 1, 14749, 1857
24315788, 817, -0.29, 0.95, 0.44, 48.10, -40.28, 30.64, 1, 14404, 1859
24330713, 818, -0.37, 0.89, 0.40, 84.90, -31.01, 25.70, 1, 14446, 1861
24345733, 819, -0.38, 0.85, 0.42, 83.80, -20.14, 22.40, 1, 14419, 1863
24360525, 820, -0.41, 0.89, 0.42, 13.92, 9.95, 20.20, 1, 14453, 1865
24375324, 821, -0.37, 0.91, 0.35, -8.06, 20.81, 22.64, 1, 14751, 1867
24390475, 822, -0.32, 0.83, 0.32, 2.75, 20.57, 28.50, 1, 14250, 1869
24405262, 823, -0.28, 0.73, 0.33, 11.47, 10.19, 27.59, 1, 14559, 1871
24420189, 824, -0.20, 0.60, 0.35, 46.02, -17.09, 16.91, 1, 14450, 1873
24435006, 825, -0.22, 0.63, 0.38, 43.82, -22.46, 13.24, 1, 14589, 1875
24449976, 826, -0.22, 0.65, 0.38, 10.99, -21.91, 15.56, 1, 14446, 1877
24464820, 827, -0.20, 0.63, 0.38, 5.80, -21.30, 20.32, 1, 14373, 1879
24479592, 828, -0.19, 0.52, 0.34, 10.50, -23.01, 26.92, 1, 14588, 1881
24494529, 829, -0.24, 0.50, 0.32, 21.00, -31.37, 32.23, 1, 14436, 1883
24509479, 830, -0.27, 0.52, 0.33, 16.48, -31.49, 29.24, 1, 14431, 1885
24524495, 831, -0.27, 0.53, 0.32, 7.45, -20.26, 21.00, 1, 14495, 1887
24539530, 832, -0.28, 0.45, 0.30, 29.48, -12.33, 0.61, 1, 14514, 1889
24554469, 833, -0.28, 0.41, 0.30, 36.68, -10.50, -8.97, 1, 14610, 1891
24569475, 834, -0.27, 0.46, 0.31, 32.10, 3.05, -13.92, 1, 14466, 1893
24584281, 835, -0.25, 0.48, 0.33, 22.52, 12.94, -12.15, 1, 14440, 1895
24599240, 836, -0.22, 0.46, 0.37, -1.04, 24.60, -8.54, 1, 14490, 1897
24614237, 837, -0.21, 0.44, 0.38, -11.47, 24.60, -6.47, 1, 14485, 1899
24629152, 838, -0.21, 0.45, 0.30, -16.72, 13.31, -4.88, 1, 14506, 1901
24644059, 839, -0.23, 0.46, 0.28, -13.73, 8.24, -6.59, 1, 14635, 1903
24659094, 840, -0.24, 0.44, 0.33, -32.17, 9.03, -10.13, 1, 14463, 1905
24674022, 841, -0.21, 0.47, 0.25, -46.75, 8.48, -9.83, 1, 14558, 1907
24689095, 842, -0.19, 0.47, 0.17, -42.54, 0.79, -0.06, 1, 14513, 1909
24704130, 843, -0.16, 0.32, 0.14, -26.25, -2.44, 8.30, 1, 14483, 1911
24719011, 844, -0.15, 0.23, 0.18, -42.18, -10.62, 20.57, 1, 14616, 1913
24734026, 845, -0.06, 0.05, 0.13, -77.94, -19.29, 25.33, 1, 14581, 1915
24748948, 846, -0.00, -0.06, 0.05, -101.68, -48.95, 32.65, 1, 14783, 1917
24764100, 847, 0.12, -0.37, -0.10, -99.06, -66.96, 38.02, 1, 14727, 1919
24779200, 848, 0.27, -0.70, -0.22, -123.23, -102.91, 77.58, 1, 14819, 1921
24794361, 849, 0.83, -1.79, -0.63, -128.66, -123.72, 115.84, 1, 14739, 1923
24809471, 850, 1.10, -2.21, -0.85, -94.30, -153.02, 173.03, 1, 14720, 1925
24824599, 851, 1.42, -2.39, -1.25, -60.91, -134.03, 151.79, 1, 14797, 1927
24839835, 852, 1.46, -1.97, -1.38, -113.10, -4.70, -63.48, 1, 14864, 1929
24855098, 853, -0.03, 0.83, -1.14, -205.99, 49.80, -278.38, 1, 14516, 1931
24870014, 854, -0.98, 3.25, 0.22, -414.49, 263.85, -919.49, 1, 14702, 1933
24885087, 855, -0.46, 1.51, 1.51, 315.37, 538.51, -619.87, 1, 14515, 1935
24900020, 856, -2.06, -1.66, 2.45, 177.19, 469.18, -71.66, 1, 14566, 1937
24915128, 857, 2.76, -1.08, -2.26, -569.70, 305.60, -321.41, 1, 15114, 1939
24930606, 858, 3.59, -0.44, -2.89, -294.80, -309.39, 198.43, 1, 14911, 1941
24945942, 859, -2.28, 1.77, -1.13, 36.68, -389.65, 485.05, 1, 14796, 1943
24961136, 860, -2.68, 1.40, 0.06, 291.69, -89.42, 25.57, 1, 14655, 1945
24976158, 861, 0.13, 0.84, 0.92, 176.88, 12.27, -134.03, 1, 14386, 1947
24990959, 862, 0.35, 0.54, 0.80, -22.46, -46.57, -58.11, 1, 14661, 1949
25006001, 863, -0.13, 0.93, -0.03, -95.70, -29.54, -31.80, 1, 14847, 1951
25021225, 864, -0.14, 1.36, -0.12, -34.42, -10.74, -38.94, 1, 14930, 1953
25036556, 865, 0.04, 0.89, 0.24, 35.03, -94.91, -49.32, 1, 14523, 1955
25051540, 866, 0.17, 0.80, 0.31, 21.55, -96.56, -32.17, 1, 14305, 1957
25066273, 867, -0.02, 0.89, 0.47, 6.59, -87.52, 4.15, 1, 14489, 1959
25081141, 868, -0.22, 0.81, 0.34, -78.86, -64.45, 12.33, 1, 14603, 1961
25096152, 869, -0.15, 1.03, -0.12, -80.26, -32.65, -25.27, 1, 14757, 1963
25111290, 870, -0.07, 1.03, -0.08, -53.34, -32.78, -23.01, 1, 14851, 1965
25126566, 871, -0.02, 1.00, -0.00, -13.43, -57.98, -7.51, 1, 14965, 1967
25141901, 872, -0.14, 0.96, 0.22, -0.67, -60.61, -5.86, 1, 14606, 1969
25156885, 873, -0.12, 0.93, 0.24, -19.53, -21.73, -13.67, 1, 14702, 1971
25172047, 874, -0.04, 1.00, -0.00, -23.93, -4.58, -13.12, 1, 14798, 1973
25187188, 875, -0.06, 1.02, -0.04, 26.31, 4.94, -1.04, 1, 14597, 1975
25202220, 876, -0.15, 0.98, 0.13, 45.90, 8.24, 0.49, 1, 14304, 1977
25217042, 877, -0.15, 0.96, 0.15, 38.09, 22.64, -8.30, 1, 14396, 1979
25231978, 878, -0.05, 0.95, 0.12, 38.27, 26.86, -11.72, 1, 14498, 1981
25246874, 879, -0.01, 0.94, 0.19, 47.97, 29.85, -13.67, 1, 14435, 1983
25261705, 880, -0.01, 0.92, 0.33, 38.27, 29.11, -14.95, 1, 14570, 1985
25276671, 881, 0.00, 0.93, 0.32, -0.55, 16.05, -15.01, 1, 14688, 1987
25291742, 882, -0.01, 1.00, 0.11, -11.90, 5.19, -10.07, 1, 14876, 1989
25306986, 883, -0.07, 1.01, 0.07, 3.85, -14.40, -7.02, 1, 14819, 1991
25322177, 884, -0.11, 0.94, 0.23, 10.38, -15.69, -14.77, 1, 14832, 1993
25337378, 885, -0.06, 0.90, 0.30, -15.56, 3.11, -26.37, 1, 14945, 1995
25352754, 886, 0.02, 0.94, 0.28, -37.05, 18.07, -22.83, 1, 14477, 1997
25367602, 887, 0.02, 0.99, 0.18, -43.21, 37.23, -11.41, 1, 14609, 1999
25382609, 888, -0.02, 0.98, 0.08, -18.07, 42.11, -10.99, 1, 14727, 2001
25397681, 889, 0.02, 0.93, 0.23, -4.94, 54.20, -4.64, 1, 14413, 2003
25412655, 890, 0.01, 1.01, 0.20, -39.98, 47.49, 5.00, 1, 14569, 2005
25427707, 891, -0.04, 1.04, -0.05, -38.45, 8.73, 9.58, 1, 14492, 2007
25442591, 892, -0.13, 0.91, -0.07, 1.77, -1.83, 2.93, 1, 15063, 2009
25458125, 893, -0.08, 0.90, 0.11, 22.16, 8.85, -9.58, 1, 14702, 2011
25473279, 894, 0.05, 1.05, 0.17, 6.23, 16.60, -6.59, 1, 14250, 2013
25487956, 895, 0.04, 1.05, 0.14, 3.11, 17.94, 11.11, 1, 14374, 2015
25502671, 896, 0.02, 0.98, 0.20, 3.91, 18.43, 17.33, 1, 14294, 2017
25517412, 897, 0.02, 1.01, 0.16, -13.43, 16.91, 25.63, 1, 14347, 2019
25532193, 898, -0.01, 1.08, 0.06, -12.21, 12.39, 28.75, 1, 14451, 2021
25547012, 899, -0.02, 1.07, 0.10, 5.07, 5.62, 28.26, 1, 14242, 2023
25561767, 900, -0.00, 1.12, 0.13, 8.18, 2.50, 24.84, 1, 14460, 2025
25576574, 901, -0.04, 1.16, 0.12, 39.61, -12.45, 4.70, 1, 14595, 2027
25591569, 902, -0.08, 1.14, 0.23, 45.47, -16.85, -2.44, 1, 14675, 2029
25606682, 903, -0.07, 1.17, 0.31, -10.19, -18.13, 6.29, 1, 14690, 2031
25621715, 904, 0.01, 1.25, 0.27, -46.39, -20.45, 16.60, 1, 14793, 2033
25636880, 905, -0.05, 1.28, 0.23, -64.39, -35.28, 24.84, 1, 14570, 2035
25651881, 906, -0.17, 1.43, 0.13, -66.41, -35.16, 17.33, 1, 14731, 2037
25667029, 907, -0.17, 1.49, 0.07, -28.63, -30.03, -11.05, 1, 14646, 2039
25682041, 908, -0.15, 1.43, 0.11, 17.52, -30.58, -28.20, 1, 14628, 2041
25697100, 909, -0.17, 1.40, 0.25, 77.94, -20.51, -66.16, 1, 14607, 2043
25712220, 910, -0.04, 1.29, 0.47, 41.93, 10.50, -90.82, 1, 14497, 2045
25727114, 911, 0.05, 1.25, 0.49, 1.40, 22.03, -89.05, 1, 14415, 2047
25741869, 912, 0.15, 1.10, 0.47, -34.61, 25.21, -79.96, 1, 14702, 2049
25756991, 913, 0.15, 1.00, 0.38, -90.09, 27.83, -62.99, 1, 14761, 2051
25772093, 914, 0.18, 0.97, 0.12, -70.25, 23.13, -59.08, 1, 14454, 2053
25787010, 915, 0.15, 0.91, 0.10, -35.77, 11.41, -64.76, 1, 14424, 2055
25801835, 916, 0.11, 0.90, 0.02, -15.87, 1.04, -56.70, 1, 14399, 2057
25816641, 917, 0.02, 0.89, -0.07, 1.28, -11.84, -47.30, 1, 14802, 2059
25831824, 918, 0.05, 0.77, -0.09, 54.99, -35.03, -42.85, 1, 14741, 2061
25846943, 919, 0.03, 0.88, -0.13, 50.72, -13.61, -37.66, 1, 14751, 2063
25862066, 920, 0.04, 0.87, -0.12, 78.06, 6.23, -28.20, 1, 14608, 2065
25877047, 921, -0.01, 0.76, 0.03, 122.86, -16.42, -28.63, 1, 14796, 2067
25892242, 922, -0.04, 0.70, 0.13, 139.95, -62.13, -49.62, 1, 14752, 2069
25907390, 923, 0.03, 0.72, 0.17, 101.07, -68.91, -60.06, 1, 14410, 2071
25922293, 924, 0.06, 0.88, 0.09, -6.96, -35.83, -30.52, 1, 14549, 2073
25937320, 925, 0.11, 0.94, -0.05, -33.51, -9.70, 3.91, 1, 14699, 2075
25952512, 926, 0.10, 0.81, 0.03, 22.95, 7.14, 46.94, 1, 14451, 2077
25967333, 927, 0.08, 0.56, 0.26, 40.95, 4.88, 48.46, 1, 14358, 2079
25982024, 928, 0.08, 0.54, 0.26, 4.27, 6.29, 50.35, 1, 14220, 2081
25996645, 929, 0.06, 0.58, 0.14, 2.99, 3.78, 52.00, 1, 14421, 2083
26011415, 930, 0.05, 0.61, 0.10, 12.63, 5.92, 37.41, 1, 14505, 2085
26026336, 931, 0.07, 0.59, 0.19, 9.58, 7.63, 20.45, 1, 14310, 2087
26041075, 932, 0.11, 0.56, 0.27, -28.93, 7.08, -1.28, 1, 14666, 2089
26056172, 933, 0.14, 0.55, 0.25, -56.40, 4.58, 1.71, 1, 14647, 2091
26071161, 934, 0.11, 0.56, 0.13, -79.04, -4.27, 15.81, 1, 14484, 2093
26086044, 935, 0.00, 0.56, -0.12, -55.18, -8.54, 14.59, 1, 14706, 2095
26101141, 936, -0.02, 0.54, -0.15, 15.20, -3.85, -5.37, 1, 14829, 2097
26116341, 937, 0.02, 0.42, 0.01, 34.55, 3.85, -15.93, 1, 14208, 2099
26130945, 938, 0.04, 0.38, 0.09, 16.66, 13.61, -20.69, 1, 14439, 2101
26145757, 939, 0.03, 0.26, 0.06, 5.00, 12.21, -15.99, 1, 14677, 2103
26160774, 940, -0.00, 0.12, 0.01, 1.83, 5.43, -0.79, 1, 14295, 2105
26175480, 941, -0.09, -0.34, -0.06, -12.63, 1.65, 11.90, 1, 14779, 2107
26190749, 942, -0.10, -0.74, -0.13, -49.26, -18.19, 63.05, 1, 14852, 2109
26206015, 943, -0.07, -1.82, -0.53, -48.34, -23.38, 102.11, 1, 14853, 2111
26221241, 944, 0.05, -2.53, -0.82, 43.15, -8.12, 189.82, 1, 14529, 2113
26236236, 945, 0.71, -3.98, -1.16, 112.85, -1.34, 235.11, 1, 14833, 2115
26251468, 946, 1.05, -4.00, -1.09, -6.96, -40.16, 193.05, 1, 14837, 2117
26266675, 947, 0.26, 0.06, -0.62, -377.81, -126.04, -45.78, 1, 14616, 2119
26281771, 948, 1.03, 3.34, -1.52, -295.04, 85.82, -48.22, 1, 14592, 2121
26296797, 949, -2.31, -0.38, 0.44, 844.91, -269.47, 291.93, 1, 14547, 2123
26311885, 950, -2.39, -1.45, 1.06, -111.88, 76.84, -84.17, 1, 14674, 2125
26326964, 951, 2.74, -0.78, -3.11, -472.96, 399.66, -212.16, 1, 14658, 2127
26342162, 952, 1.48, -0.29, -0.82, 524.90, -23.86, -2.32, 1, 14647, 2129
26357215, 953, -0.77, 1.46, 3.20, 329.83, -44.13, 25.39, 1, 14616, 2131
26372339, 954, -0.42, 1.59, 1.35, -415.34, -109.62, 26.31, 1, 14724, 2133
26387586, 955, -0.27, 0.82, -1.93, -331.24, -165.77, 42.24, 1, 14892, 2135
26402819, 956, -0.44, 0.70, -1.61, 165.83, 29.30, -12.15, 1, 14485, 2137
26417735, 957, -0.07, 1.20, 0.68, 257.02, 136.78, -50.96, 1, 14490, 2139
26432624, 958, 0.11, 1.17, 1.02, 95.09, 52.55, -22.71, 1, 14407, 2141
26447459, 959, -0.00, 0.76, -0.04, 13.85, -21.79, -4.58, 1, 15014, 2143
26462866, 960, -0.04, 0.76, -0.02, 43.03, -20.39, -14.34, 1, 14724, 2145
26477961, 961, -0.07, 0.99, 0.41, -20.26, -3.30, 4.46, 1, 14890, 2147
26493360, 962, -0.29, 1.04, -0.29, -37.35, -13.85, 7.02, 1, 14604, 2149
26508359, 963, -0.24, 0.97, -0.26, 51.94, 5.19, -21.36, 1, 14795, 2151
26523692, 964, 0.06, 0.87, 0.40, 68.18, 12.39, -24.96, 1, 14597, 2154
26538828, 965, 0.05, 0.93, 0.43, -2.62, -11.23, -2.32, 1, 14588, 2156
26553811, 966, -0.15, 1.02, 0.07, -16.24, -17.94, 2.20, 1, 14538, 2158
26568883, 967, -0.16, 0.98, 0.06, 12.33, -10.01, -5.31, 1, 14722, 2160
26584012, 968, -0.16, 0.98, 0.06, 11.35, -7.93, -4.64, 0, 10373, 2162
26594729, 969, -0.11, 0.93, 0.19, -0.18, -8.97, -1.83, 1, 14884, 2163
26610038, 970, -0.10, 0.96, 0.18, -15.56, -11.29, -2.26, 1, 14863, 2165
26625302, 971, -0.06, 0.96, 0.14, -17.64, -11.78, -3.17, 1, 14553, 2167
26640256, 972, -0.04, 0.94, 0.11, -13.24, -8.85, -0.92, 1, 14768, 2169
26655393, 973, -0.07, 0.96, 0.12, -7.63, -5.00, 0.49, 1, 14692, 2171
26670458, 974, -0.09, 0.97, 0.12, 0.79, 2.32, 1.10, 1, 14472, 2173
26685342, 975, -0.12, 0.96, 0.13, 1.46, 3.72, 0.31, 1, 14380, 2175
26700268, 976, -0.13, 0.98, 0.12, 0.18, 4.64, -0.43, 1, 14575, 2177
26715383, 977, -0.13, 1.00, 0.13, 2.08, 5.07, -1.22, 1, 14592, 2179
26730518, 978, -0.11, 0.99, 0.15, -0.18, 5.55, -3.11, 1, 14586, 2181
26745656, 979, -0.08, 0.97, 0.15, -3.42, 4.76, -2.62, 1, 14696, 2183
26760805, 980, -0.09, 0.97, 0.17, -12.33, 3.23, -2.50, 1, 14559, 2185
26775735, 981, -0.14, 1.02, 0.19, -37.35, 3.17, -7.63, 1, 14786, 2187
26791046, 982, -0.14, 1.02, 0.06, -46.02, 6.04, -9.83, 1, 14527, 2189
26805977, 983, -0.13, 1.05, 0.02, -32.65, 20.20, -13.18, 1, 14503, 2191
26820876, 984, -0.11, 1.19, 0.00, -23.25, 27.28, -14.95, 1, 14688, 2193
26835928, 985, -0.07, 1.31, -0.07, 40.89, 27.77, -19.17, 1, 14752, 2195
26851022, 986, -0.06, 1.51, 0.04, 114.50, 24.05, -18.01, 1, 14530, 2197
26865925, 987, -0.08, 1.45, 0.30, 152.89, 23.44, -10.74, 1, 14444, 2199
26880799, 988, 0.10, 1.20, 0.52, 88.13, 26.92, -5.68, 1, 14585, 2201
26895785, 989, 0.09, 1.29, 0.45, -7.45, 13.98, 14.77, 1, 14557, 2203
26910730, 990, -0.21, 1.81, 0.40, -15.50, 10.74, 16.05, 1, 14403, 2205
26925563, 991, -0.23, 1.89, 0.37, -25.45, 25.09, -1.10, 1, 14551, 2207
26940487, 992, -0.07, 1.52, 0.30, -23.50, 19.65, -3.97, 1, 14565, 2209
26955623, 993, -0.09, 1.27, 0.31, -28.50, 0.98, -10.13, 1, 14524, 2211
26970695, 994, -0.11, 0.96, 0.30, -59.14, 4.09, -14.16, 1, 14597, 2213
26985812, 995, -0.11, 1.01, 0.26, -128.78, 16.48, -25.39, 1, 14824, 2215
27001016, 996, -0.05, 1.12, 0.08, -136.96, 15.93, -38.02, 1, 14645, 2217
27016145, 997, -0.01, 1.02, 0.02, -81.30, 4.39, -72.57, 1, 14527, 2219
27031110, 998, 0.04, 0.84, -0.04, -38.21, 3.72, -85.39, 1, 14686, 2221
27046167, 999, 0.05, 0.87, -0.05, 40.47, 15.75, -106.81, 1, 14569, 2223
27061075, 1000, 0.12, 0.99, 0.04, 40.47, 15.75, -106.81, 0, 10062, 2225
27071686, 1001, 0.16, 0.98, 0.15, 92.10, 27.04, -125.98, 1, 14462, 2226
27086546, 1002, 0.15, 0.94, 0.24, 61.46, 28.20, -117.86, 1, 14416, 2228
27101359, 1003, 0.08, 0.79, 0.17, 8.30, 26.55, -94.79, 1, 14566, 2230
27116320, 1004, 0.07, 0.70, 0.01, -41.99, 14.47, -52.61, 1, 14532, 2232
27131316, 1005, 0.02, 0.52, -0.21, -5.74, 8.24, -51.88, 1, 14557, 2234
27146342, 1006, -0.04, 0.49, -0.26, 102.66, 0.12, -55.05, 1, 14528, 2236
27161267, 1007, -0.05, 0.61, -0.19, 145.94, 2.14, -51.88, 1, 14516, 2238
27176161, 1008, 0.02, 0.66, -0.05, 195.68, 14.53, -45.59, 1, 14520, 2240
27191053, 1009, 0.12, 0.54, 0.25, 194.09, 21.36, -34.36, 1, 14269, 2242
27205696, 1010, 0.10, 0.44, 0.26, 154.97, 22.16, 24.23, 1, 14195, 2244
27220279, 1011, 0.09, 0.42, 0.15, 127.38, 18.31, 53.59, 1, 14297, 2246
27235154, 1012, 0.09, 0.53, 0.15, 63.29, 19.47, 64.64, 1, 14315, 2248
27249811, 1013, 0.10, 0.63, 0.20, 39.43, 21.00, 59.14, 1, 14600, 2250
27264763, 1014, 0.10, 0.62, 0.24, 4.33, 12.88, 74.52, 1, 14483, 2252
27279738, 1015, 0.15, 0.77, 0.27, -6.53, 8.61, 83.37, 1, 14425, 2254
27294717, 1016, 0.14, 0.89, 0.28, 5.07, 10.25, 66.89, 1, 14527, 2256
27309642, 1017, 0.14, 0.94, 0.40, 5.07, 10.25, 66.89, 0, 10087, 2258
27320131, 1018, 0.14, 0.96, 0.46, 14.65, 13.18, 43.82, 1, 14328, 2259
27334856, 1019, 0.15, 0.99, 0.48, -2.75, 12.88, 32.84, 1, 14393, 2261
27349620, 1020, 0.12, 1.04, 0.45, -1.46, 10.80, 27.77, 1, 14626, 2263
27364672, 1021, 0.08, 1.06, 0.45, -1.77, 9.46, 17.46, 1, 14252, 2265
27379475, 1022, 0.06, 1.16, 0.45, -12.88, 13.98, 8.97, 1, 14508, 2267
27394376, 1023, 0.08, 1.18, 0.46, -34.91, 18.80, -6.71, 1, 14505, 2269
27409281, 1024, 0.13, 1.10, 0.41, -46.63, 14.95, -11.78, 1, 14672, 2271
27424287, 1025, 0.12, 1.05, 0.34, -61.77, -2.81, -19.78, 1, 15004, 2273
27439751, 1026, 0.06, 0.99, 0.26, -56.52, -11.84, -27.53, 1, 14630, 2275
27454754, 1027, 0.07, 0.94, 0.26, -43.58, -16.30, -47.42, 1, 14602, 2277
27469755, 1028, 0.14, 0.79, 0.24, -42.48, -15.69, -51.70, 1, 14835, 2279
27484933, 1029, 0.14, 0.73, 0.17, -27.53, -22.83, -43.40, 1, 14719, 2281
27500052, 1030, 0.07, 0.62, 0.08, -11.35, -28.99, -37.66, 1, 14407, 2283
27514972, 1031, 0.08, 0.56, 0.11, 18.74, -23.80, -35.89, 1, 14556, 2285
27529917, 1032, 0.13, 0.48, 0.22, 17.82, -12.88, -38.27, 1, 14427, 2287
27544753, 1033, 0.16, 0.50, 0.18, -13.06, 2.81, -35.28, 1, 14565, 2289
27559661, 1034, 0.16, 0.50, 0.05, -19.53, 2.38, -31.74, 1, 14345, 2291
27574392, 1035, 0.13, 0.42, 0.02, -14.10, 1.22, -25.94, 1, 14446, 2293
27589281, 1036, 0.09, 0.21, 0.03, -7.14, 5.31, -22.34, 1, 14457, 2295
27604134, 1037, 0.07, 0.14, 0.03, -4.33, 16.91, -10.31, 1, 14672, 2297
27619205, 1038, -0.04, 0.04, -0.08, -13.98, 18.74, -2.69, 1, 14695, 2299
27634282, 1039, -0.09, -0.03, -0.15, -12.45, 21.00, 3.97, 1, 14852, 2301
27649503, 1040, -0.13, -0.30, -0.13, 12.94, 26.43, -2.44, 1, 14699, 2303
27664581, 1041, -0.14, -0.46, -0.08, 10.86, 31.86, -27.89, 1, 14681, 2305
27679673, 1042, -0.18, -1.16, -0.11, -28.14, 16.30, -17.64, 1, 14813, 2307
27694913, 1043, -0.26, -1.98, -0.23, -29.97, -44.25, 121.40, 1, 14803, 2309
27710060, 1044, -0.20, -3.95, -0.89, 27.28, -32.10, 390.62, 1, 14724, 2311
27725183, 1045, 1.19, -3.79, -2.07, -6.35, 0.00, 495.42, 1, 14737, 2313
27740293, 1046, 1.31, -2.33, -2.14, -173.03, 0.79, 321.23, 1, 15062, 2315
27755725, 1047, -0.96, 3.19, -1.15, -465.64, -1.77, -151.86, 1, 15063, 2317
27771194, 1048, -0.20, 3.96, -0.28, 533.45, -25.70, -287.35, 1, 14728, 2319
27786379, 1049, -2.73, 0.22, 2.41, 813.72, -249.82, 97.17, 1, 14766, 2321
27801529, 1050, -0.77, 0.42, -0.72, -431.95, 273.50, -130.43, 1, 14908, 2323
27816836, 1051, 2.45, -1.90, -2.70, -185.49, 87.65, -85.27, 1, 14893, 2325
27832096, 1052, 0.64, -1.28, -0.66, 269.10, -284.79, 117.68, 1, 14649, 2327
27847147, 1053, -0.62, 2.54, 1.70, 115.42, -137.82, 62.93, 1, 14331, 2329
27861958, 1054, -0.76, 1.92, 1.13, -118.04, -16.66, 29.54, 1, 14462, 2331
27876852, 1055, -0.49, 0.64, -1.12, -141.24, -4.52, -9.77, 1, 14714, 2333
27892161, 1056, 0.16, 0.84, -0.87, 142.58, 66.28, -55.24, 1, 14476, 2335
27907058, 1057, 0.20, 1.02, 1.02, 194.89, 61.22, -21.00, 1, 14411, 2337
27921897, 1058, 0.00, 0.97, 0.98, -34.24, -34.91, 13.92, 1, 14640, 2339
27936879, 1059, -0.09, 0.88, -0.18, -96.25, -64.82, 1.83, 1, 14859, 2341
27952152, 1060, -0.05, 0.94, -0.20, 6.53, -22.34, -23.07, 1, 14652, 2343
27967150, 1061, -0.01, 0.95, 0.43, 37.54, 0.18, -18.49, 1, 14316, 2345
27982024, 1062, -0.08, 0.96, 0.35, -37.90, -10.56, -2.32, 1, 14863, 2347
27997265, 1063, -0.10, 1.06, -0.13, -47.18, -14.83, -5.98, 1, 14772, 2349
28012445, 1064, -0.01, 1.00, -0.07, 30.40, -6.47, -14.77, 1, 14933, 2351
28027747, 1065, 0.07, 0.87, 0.32, 42.66, -9.09, -11.11, 1, 14508, 2353
28042612, 1066, 0.02, 0.90, 0.34, 1.40, -23.38, -0.12, 1, 14567, 2355
28057615, 1067, -0.04, 0.96, 0.19, -20.94, -35.64, -1.65, 1, 15205, 2357
28073218, 1068, -0.06, 0.96, 0.12, -21.55, -37.78, -1.46, 1, 14733, 2359
28088332, 1069, -0.08, 0.98, 0.10, -9.83, -19.65, -2.87, 1, 14876, 2361
28103548, 1070, -0.03, 0.95, 0.16, 4.52, -10.86, -5.43, 1, 14586, 2363
28118531, 1071, 0.00, 0.93, 0.24, 11.84, -9.58, -3.97, 1, 14421, 2365
28133318, 1072, 0.01, 0.94, 0.22, 2.93, -9.58, -0.61, 1, 14664, 2367
28148387, 1073, -0.02, 0.95, 0.16, -0.61, -6.65, 2.93, 1, 14824, 2369
28163618, 1074, -0.06, 0.97, 0.15, 4.27, -4.09, 2.44, 1, 14584, 2372
28178713, 1075, -0.07, 0.99, 0.17, 5.49, -1.71, -0.43, 1, 15012, 2374
28194069, 1076, -0.06, 0.99, 0.15, 4.64, -1.59, -2.08, 1, 15134, 2376
28209546, 1077, -0.05, 0.97, 0.14, 6.53, -0.61, -3.60, 1, 14943, 2378
28224937, 1078, -0.03, 0.95, 0.17, 5.92, 0.00, -2.99, 1, 14449, 2380
28239753, 1079, -0.03, 0.96, 0.20, 2.75, -0.67, -2.01, 1, 14869, 2382
28255022, 1080, -0.04, 0.97, 0.18, -0.79, -0.43, -2.14, 1, 14954, 2384
28270375, 1081, -0.06, 0.99, 0.14, 0.06, -0.12, -2.44, 1, 14532, 2386
28285276, 1082, -0.06, 0.98, 0.12, 6.29, -0.98, -3.17, 1, 14725, 2388
28300399, 1083, -0.05, 0.97, 0.16, 17.82, -3.85, -5.55, 1, 14675, 2390
28315446, 1084, -0.03, 0.95, 0.24, 16.42, -4.33, -5.92, 1, 14933, 2392
28330807, 1085, -0.03, 0.96, 0.22, 2.56, -4.64, -5.62, 1, 14573, 2394
28345813, 1086, -0.03, 0.98, 0.15, 2.44, -5.25, -6.10, 1, 14657, 2396
28360872, 1087, -0.01, 0.95, 0.18, 12.08, -4.09, -7.69, 1, 14661, 2398
28375876, 1088, 0.02, 0.93, 0.27, 1.46, -0.37, -4.27, 1, 14611, 2400
28390900, 1089, 0.02, 0.93, 0.26, -7.20, 1.16, -0.92, 1, 15000, 2402
28406241, 1090, -0.03, 0.97, 0.17, -11.84, 0.98, 1.46, 1, 14469, 2404
28421192, 1091, -0.06, 0.99, 0.13, -6.10, -0.06, 0.06, 1, 14642, 2406
28436352, 1092, -0.05, 0.97, 0.17, 4.82, -3.17, -6.04, 1, 14433, 2408
28451221, 1093, -0.00, 0.95, 0.24, 0.06, -5.92, -8.67, 1, 14885, 2410
28466486, 1094, 0.00, 0.95, 0.21, -14.04, -12.27, -8.54, 1, 14526, 2412
28481525, 1095, -0.02, 0.95, 0.16, -14.40, -14.28, -8.42, 1, 14858, 2414
28496769, 1096, -0.03, 0.96, 0.15, -9.22, -12.51, -7.57, 1, 14649, 2416
28511845, 1097, -0.04, 0.97, 0.17, -8.73, -14.77, -8.42, 1, 14717, 2418
28527055, 1098, -0.04, 0.98, 0.14, -10.13, -17.94, -9.28, 1, 14961, 2420
28542414, 1099, -0.04, 0.98, 0.05, -1.34, -16.11, -10.86, 1, 14588, 2422
28557472, 1100, -0.03, 0.97, 0.07, 34.55, -14.28, -19.90, 1, 14452, 2424
28572304, 1101, 0.01, 0.96, 0.20, 46.08, -14.95, -24.17, 1, 14546, 2426
28587252, 1102, 0.03, 0.96, 0.23, 43.82, -13.98, -23.25, 1, 14539, 2428
28602134, 1103, 0.01, 0.98, 0.14, 42.24, -14.04, -20.63, 1, 14885, 2430
28617516, 1104, 0.00, 0.97, 0.11, 66.59, -16.30, -20.02, 1, 14422, 2432
28632338, 1105, -0.01, 0.98, 0.16, 82.82, -17.46, -22.52, 1, 14414, 2434
28647242, 1106, -0.01, 1.00, 0.18, 107.36, -22.89, -33.81, 1, 14511, 2436
28662295, 1107, -0.04, 1.04, 0.30, 116.21, -26.31, -42.79, 1, 14624, 2438
28677412, 1108, -0.01, 1.17, 0.37, 135.68, -31.92, -85.45, 1, 14540, 2440
28692323, 1109, 0.15, 1.12, 0.46, 195.86, -43.70, -120.06, 1, 14475, 2442
28707204, 1110, 0.17, 0.92, 0.62, 260.44, -61.71, -127.75, 1, 14602, 2444
28722175, 1111, 0.15, 0.50, 0.68, 207.46, -60.30, -88.99, 1, 14512, 2446
28737168, 1112, 0.09, 0.45, 0.61, 90.27, -57.98, -3.97, 1, 14455, 2448
28752134, 1113, 0.08, 0.71, 0.48, 60.18, -50.72, 0.73, 1, 14530, 2450
28767172, 1114, 0.10, 0.86, 0.48, 75.13, -34.55, -27.28, 1, 14773, 2452
28782322, 1115, 0.15, 0.92, 0.50, 102.97, -28.44, -31.86, 1, 14760, 2454
28797506, 1116, 0.15, 0.84, 0.52, 118.47, -19.84, -18.37, 1, 14467, 2456
28812374, 1117, 0.10, 0.74, 0.52, 101.14, -17.27, -12.57, 1, 14506, 2458
28827281, 1118, 0.11, 0.77, 0.51, 121.03, -24.72, -19.47, 1, 14696, 2460
28842320, 1119, 0.10, 0.76, 0.59, 147.28, -27.77, -30.58, 1, 14430, 2462
28857213, 1120, 0.08, 0.67, 0.64, 171.08, -20.32, -35.58, 1, 14555, 2464
28872118, 1121, 0.10, 0.59, 0.66, 178.96, -15.08, -28.69, 1, 14689, 2466
28887329, 1122, 0.12, 0.59, 0.65, 243.23, -16.91, -40.04, 1, 14642, 2468
28902436, 1123, 0.10, 0.57, 0.75, 299.80, -20.75, -58.41, 1, 14472, 2470
28917302, 1124, 0.09, 0.52, 0.83, 409.67, -17.88, -99.91, 1, 14459, 2472
28932150, 1125, 0.14, 0.31, 0.89, 373.23, -13.06, -100.77, 1, 14625, 2474
28947124, 1126, 0.08, 0.25, 0.88, 128.97, -9.03, -58.96, 1, 14441, 2476
28962056, 1127, 0.08, 0.35, 0.58, 48.77, -1.16, -42.11, 1, 14592, 2478
28977134, 1128, 0.18, 0.32, 0.55, 71.41, 11.72, -36.93, 1, 14499, 2480
28992059, 1129, 0.23, 0.28, 1.07, -186.65, -39.92, 8.79, 1, 14508, 2482
29006909, 1130, 0.23, 0.43, 1.05, -269.17, -58.47, 28.20, 1, 14348, 2484
29021715, 1131, 0.11, 0.66, 0.88, -222.41, -65.00, 24.05, 1, 14629, 2486
29036709, 1132, 0.05, 0.67, 0.83, 67.69, -71.84, -30.82, 1, 14394, 2488
29051505, 1133, -0.01, 0.42, 0.76, 165.77, -80.57, -39.86, 1, 14596, 2490
29066446, 1134, -0.02, 0.30, 0.81, 183.72, -82.58, -26.06, 1, 14535, 2492
29081400, 1135, -0.03, 0.25, 0.96, 178.41, -73.00, -29.17, 1, 14483, 2494
29096268, 1136, -0.01, 0.25, 0.97, 186.22, -68.66, -41.56, 1, 14489, 2496
29111316, 1137, -0.02, 0.27, 0.99, 198.43, -71.96, -51.45, 1, 14637, 2498
29126452, 1138, -0.05, 0.22, 1.01, 215.15, -69.58, -56.58, 1, 14673, 2500
29141562, 1139, -0.03, 0.04, 0.38, 508.97, -174.62, -94.42, 1, 14664, 2502
29156734, 1140, -0.30, -0.71, 1.48, 657.47, -175.23, -108.83, 1, 14770, 2504
29171920, 1141, -0.12, -0.72, 2.04, 33.75, 121.95, -6.16, 1, 14556, 2506
29187026, 1142, 0.24, 0.07, 1.62, -111.57, 105.83, -0.73, 1, 14502, 2508
29201924, 1143, 0.09, 0.09, 1.16, -5.74, -65.31, -3.60, 1, 14662, 2510
29217015, 1144, -0.17, -0.16, 0.66, 28.93, -70.25, -0.31, 1, 14696, 2512
29232169, 1145, -0.14, -0.16, 0.71, 9.58, 0.24, -3.91, 1, 14609, 2514
29247200, 1146, -0.06, -0.15, 1.00, 7.14, 25.09, -13.12, 1, 14646, 2516
29262218, 1147, -0.12, -0.18, 1.06, 5.00, 27.10, -12.08, 1, 14666, 2518
29277311, 1148, -0.12, -0.18, 1.06, -6.53, 15.50, -5.86, 0, 10346, 2520
29288070, 1149, 0.01, -0.08, 1.10, -5.43, 3.54, -2.62, 1, 14537, 2521
29303042, 1150, 0.00, -0.12, 1.11, 3.97, -25.94, -2.20, 1, 14581, 2523
29318022, 1151, -0.03, -0.17, 1.05, 5.98, -39.86, -5.37, 1, 14729, 2525
29333120, 1152, -0.05, -0.18, 0.97, 9.03, -46.02, -18.98, 1, 14647, 2527
29348193, 1153, -0.08, -0.13, 0.89, 6.84, -38.33, -25.33, 1, 14987, 2529
29363609, 1154, -0.10, -0.09, 0.92, -4.33, -19.17, -25.21, 1, 14745, 2532
29378875, 1155, -0.14, -0.19, 1.03, -3.85, -13.37, -26.00, 1, 14732, 2534
29393969, 1156, -0.06, -0.20, 1.03, 2.08, -14.10, -42.60, 1, 14721, 2536
29409108, 1157, -0.09, -0.08, 0.99, 6.41, -15.26, -49.01, 1, 14750, 2538
29424278, 1158, -0.15, 0.08, 1.00, -15.50, -17.09, -21.18, 1, 14784, 2540
29439516, 1159, -0.12, 0.11, 1.05, -24.17, -19.59, 38.94, 1, 14597, 2542
29454538, 1160, -0.14, -0.16, 1.05, -23.74, -21.61, 41.50, 1, 14768, 2544
29469818, 1161, -0.12, -0.22, 0.98, -25.09, -27.40, -4.15, 1, 14946, 2546
29485166, 1162, -0.10, -0.02, 0.94, -12.51, -27.65, -29.66, 1, 14820, 2548
29500381, 1163, -0.11, 0.15, 0.98, 38.94, -22.71, -75.68, 1, 14701, 2550
29515450, 1164, -0.13, 0.23, 1.05, 71.11, -23.01, -103.33, 1, 14835, 2552
29530664, 1165, -0.14, 0.01, 1.02, 133.91, -30.58, -128.05, 1, 14671, 2554
29545771, 1166, -0.14, 0.01, 1.02, 127.69, -36.19, -102.97, 0, 10361, 2556
29556558, 1167, -0.21, -0.56, 0.83, 90.09, -37.90, -65.67, 1, 14732, 2557
29571799, 1168, -0.23, -0.23, 0.90, 76.66, -15.50, -34.48, 1, 14888, 2559
29587112, 1169, -0.17, -0.17, 1.09, 97.41, -8.24, -33.51, 1, 14511, 2561
29601973, 1170, -0.17, -0.24, 1.09, 100.71, -15.08, -34.55, 1, 14602, 2563
29617009, 1171, -0.23, -0.33, 0.98, 96.31, -19.53, -30.46, 1, 14607, 2565
29632126, 1172, -0.22, -0.35, 0.95, 99.67, -15.38, -21.73, 1, 14791, 2567
29647295, 1173, -0.19, -0.35, 0.94, 106.20, -11.41, -21.67, 1, 14637, 2569
29662422, 1174, -0.20, -0.27, 0.99, 129.21, -11.11, -18.98, 1, 14700, 2571
29677639, 1175, -0.19, -0.39, 1.13, 140.32, -25.33, -14.22, 1, 14671, 2573
29692724, 1176, -0.14, -0.63, 1.01, 73.67, -76.66, -14.10, 1, 15215, 2575
29708311, 1177, -0.20, -0.49, 0.95, 24.29, -120.48, -53.71, 1, 14835, 2577
29723547, 1178, -0.46, -0.44, 0.76, 28.99, -123.96, -61.16, 1, 14595, 2579
29738567, 1179, -0.50, -0.43, 0.65, 79.16, -96.68, -60.67, 1, 14765, 2582
29753757, 1180, -0.43, -0.54, 0.69, 104.37, -76.05, -66.16, 1, 14883, 2584
29768983, 1181, -0.39, -0.55, 0.75, 86.67, -61.22, -83.13, 1, 14732, 2586
29784182, 1182, -0.45, -0.54, 0.75, 50.84, -70.74, -88.75, 1, 14831, 2588
29799413, 1183, -0.52, -0.48, 0.75, 17.03, -87.10, -84.78, 1, 15082, 2590
29815016, 1184, -0.57, -0.17, 0.85, 32.96, -81.18, -79.35, 1, 14950, 2592
29830366, 1185, -0.62, 0.03, 0.80, 110.72, -23.74, -98.94, 1, 14677, 2594
29845414, 1186, -0.39, -0.45, 0.59, 162.48, 13.18, -110.60, 1, 14570, 2596
29860397, 1187, -0.39, -0.75, 0.76, 184.45, 3.23, -104.19, 1, 14497, 2598
29875433, 1188, -0.58, -0.60, 0.97, 161.87, -18.80, -106.26, 1, 14694, 2600
29890637, 1189, -0.54, -0.58, 0.91, 116.64, -50.66, -126.10, 1, 14727, 2602
29905742, 1190, -0.60, -0.60, 0.60, 90.09, -56.64, -137.57, 1, 14695, 2604
29920902, 1191, -0.68, -0.53, 0.51, 74.04, -95.09, -150.09, 1, 14883, 2606
29936248, 1192, -0.74, -0.47, 0.60, 76.97, -120.36, -148.56, 1, 14892, 2608
29951481, 1193, -0.77, -0.44, 0.58, 58.35, -143.37, -116.03, 1, 14814, 2610
29966648, 1194, -0.75, -0.49, 0.41, -6.47, -132.32, -75.62, 1, 14798, 2612
29981819, 1195, -0.82, -0.41, 0.32, -51.45, -120.91, -57.56, 1, 14657, 2614
29996847, 1196, -0.87, -0.36, 0.34, -77.33, -115.36, -39.55, 1, 14685, 2616
30011935, 1197, -0.66, -0.17, 0.49, -47.79, -120.12, -38.27, 1, 14728, 2618
30027038, 1198, -0.62, -0.25, 0.44, 69.27, -193.91, -91.43, 1, 14917, 2620
30042328, 1199, -1.05, -0.45, 0.40, 58.72, -209.96, -108.83, 1, 14577, 2622
30057387, 1200, -1.06, -0.33, 0.44, 35.89, -189.70, -127.93, 1, 14722, 2624
30072507, 1201, -0.88, -0.26, 0.37, 42.42, -188.05, -138.43, 1, 14960, 2626
30087874, 1202, -0.77, -0.20, 0.28, 29.54, -165.95, -161.32, 1, 14793, 2628
30103034, 1203, -0.58, 0.01, 0.16, 25.94, -141.66, -157.90, 1, 14754, 2630
30118156, 1204, -0.56, 0.05, 0.14, 64.70, -106.63, -106.57, 1, 14639, 2632
30133198, 1205, -0.73, -0.04, 0.12, 91.37, -102.42, -68.60, 1, 14512, 2634
30148200, 1206, -0.94, -0.10, 0.21, 133.06, -112.06, -33.57, 1, 14717, 2636
30163329, 1207, -0.99, -0.27, 0.49, 119.32, -104.25, -43.21, 1, 14679, 2638
30178370, 1208, -0.89, -0.30, 0.49, -8.48, -61.46, -61.83, 1, 14908, 2640
30193751, 1209, -0.79, -0.09, 0.19, -61.16, -46.51, -58.84, 1, 14821, 2643
30208983, 1210, -0.80, -0.05, 0.06, -56.40, -30.76, -39.55, 1, 14875, 2645
30224323, 1211, -0.89, -0.16, 0.16, -32.90, -39.61, -27.28, 1, 14697, 2647
30239363, 1212, -1.09, -0.27, 0.30, -45.59, -84.84, -20.87, 1, 14802, 2649
30254621, 1213, -1.13, -0.37, 0.32, -156.01, -63.17, -23.62, 1, 14735, 2651
30269796, 1214, -0.98, -0.09, 0.04, -188.96, -48.34, -18.01, 1, 14713, 2653
30284965, 1215, -0.90, -0.00, -0.09, -142.88, -25.63, -7.57, 1, 14921, 2655
30300395, 1216, -0.63, -0.09, -0.11, -89.05, -20.51, -4.21, 1, 14832, 2657
30315711, 1217, -0.65, -0.15, -0.02, -10.13, -35.58, 48.22, 1, 14714, 2659
30330913, 1218, -1.01, -0.17, -0.03, 3.36, -33.14, 94.54, 1, 14862, 2661
30346148, 1219, -1.24, -0.17, -0.11, 30.52, -23.74, 107.12, 1, 14707, 2663
30361226, 1220, -1.29, -0.40, -0.03, 52.25, -25.45, 65.19, 1, 14642, 2665
30376301, 1221, -1.06, -0.40, 0.01, 35.34, -17.09, 0.24, 1, 14929, 2667
30391599, 1222, -0.89, -0.15, -0.15, 25.76, -9.64, -9.89, 1, 15050, 2669
30407041, 1223, -0.93, -0.13, -0.14, 46.39, 4.21, -4.39, 1, 14862, 2671
30422331, 1224, -0.94, -0.19, 0.00, 47.06, 6.71, -1.22, 1, 14502, 2673
30437251, 1225, -0.97, -0.20, -0.00, 20.32, 0.92, 3.72, 1, 14633, 2675
30452224, 1226, -1.05, -0.17, -0.06, 9.83, -2.26, 6.23, 1, 14842, 2677
30467435, 1227, -1.03, -0.14, -0.07, 10.07, -0.12, 11.90, 1, 14687, 2679
30482548, 1228, -0.97, -0.14, -0.09, 13.31, 3.78, 17.64, 1, 14591, 2681
30497513, 1229, -0.98, -0.18, -0.11, 10.80, 14.04, 28.99, 1, 14501, 2683
30512450, 1230, -1.02, -0.25, -0.09, 2.38, 17.94, 30.82, 1, 14497, 2685
30527455, 1231, -1.03, -0.22, -0.09, -16.54, 24.23, 28.56, 1, 14605, 2687
30542606, 1232, -1.02, -0.14, -0.10, 2.20, 40.28, 29.91, 1, 14591, 2689
30557742, 1233, -1.03, -0.12, -0.06, 13.98, 47.85, 33.94, 1, 14563, 2691
30572745, 1234, -1.13, -0.16, 0.01, 23.56, 58.29, 32.10, 1, 14326, 2693
30587441, 1235, -1.23, -0.21, 0.01, 26.86, 64.94, 20.32, 1, 14645, 2695
30602461, 1236, -1.54, -0.32, 0.03, 54.87, 78.06, 0.18, 1, 14547, 2697
30617414, 1237, -1.63, -0.37, 0.10, 69.03, 78.98, -5.98, 1, 14568, 2699
30632503, 1238, -1.61, -0.43, 0.24, 52.12, 68.66, -20.51, 1, 14484, 2701
30647420, 1239, -1.55, -0.45, 0.21, 32.71, 58.65, -27.47, 1, 14871, 2703
30662677, 1240, -1.53, -0.45, 0.17, -0.73, 37.23, -39.55, 1, 14535, 2705
30677679, 1241, -1.35, -0.38, 0.09, -16.97, 23.38, -48.03, 1, 14890, 2707
30693021, 1242, -1.24, -0.30, 0.06, -38.82, -10.44, -61.46, 1, 14771, 2709
30708200, 1243, -1.19, -0.22, 0.09, -32.29, -22.83, -63.29, 1, 14730, 2711
30723318, 1244, -1.15, -0.26, 0.15, -7.45, -26.43, -65.49, 1, 15017, 2713
30738704, 1245, -0.91, -0.26, 0.17, -14.16, -22.40, -61.40, 1, 14736, 2716
30753886, 1246, -0.85, -0.21, 0.08, -31.74, -32.71, -37.54, 1, 14916, 2718
30769139, 1247, -0.86, -0.23, -0.04, -27.65, -44.68, -27.89, 1, 14898, 2720
30784438, 1248, -0.87, -0.23, -0.03, -16.97, -60.12, -33.20, 1, 14847, 2722
30799720, 1249, -0.81, -0.22, 0.11, -19.47, -58.65, -43.52, 1, 14894, 2724
30815051, 1250, -0.68, -0.18, 0.13, -56.09, -45.53, -63.42, 1, 14642, 2726
30830174, 1251, -0.45, 0.04, 0.02, -67.14, -47.30, -62.87, 1, 14608, 2728
30845197, 1252, -0.43, 0.08, -0.02, -24.41, -69.70, -32.10, 1, 14705, 2730
30860338, 1253, -0.51, -0.05, 0.04, -3.23, -74.40, -18.25, 1, 14912, 2732
30875770, 1254, -0.52, -0.11, 0.09, -23.32, -56.52, -22.16, 1, 15086, 2734
30891255, 1255, -0.48, -0.06, 0.11, -47.61, -43.21, -39.92, 1, 14622, 2736
30906247, 1256, -0.28, -0.05, 0.05, -51.33, -44.74, -41.63, 1, 14948, 2738
30921596, 1257, -0.27, -0.00, 0.00, -41.63, -52.98, -13.06, 1, 14865, 2740
30936835, 1258, -0.37, -0.03, 0.05, -26.06, -50.72, 2.38, 1, 14620, 2742
30951893, 1259, -0.35, -0.09, 0.11, -36.13, -17.21, 3.05, 1, 14669, 2744
30966963, 1260, -0.18, -0.09, 0.11, -55.11, -2.08, -0.61, 1, 15144, 2746
30982620, 1261, -0.07, -0.07, 0.05, -55.05, -2.44, 3.97, 1, 14673, 2748
30997670, 1262, 0.42, -0.04, -0.01, -39.00, -3.72, -2.20, 1, 14727, 2750
31012810, 1263, 0.94, 0.03, -0.03, -1.34, 14.89, -50.35, 1, 14540, 2752
31027778, 1264, 2.48, 0.51, -0.03, 35.64, 24.54, -74.10, 1, 14444, 2754
31042679, 1265, 3.34, 0.71, 0.10, 78.86, 86.85, -34.97, 1, 14523, 2756
31057570, 1266, 3.66, 0.41, 0.22, 60.73, 141.97, 61.28, 1, 14349, 2758
31072428, 1267, 2.25, -0.09, 0.23, 190.19, 232.12, 340.39, 1, 14498, 2760
31087361, 1268, -2.62, -2.18, 0.98, 424.62, 210.88, 379.52, 1, 14635, 2762
31102375, 1269, -3.08, -2.98, 1.68, 276.12, -214.05, -353.33, 1, 14555, 2764
31117468, 1270, -0.95, 2.52, -2.26, -599.85, -233.83, -608.46, 1, 14758, 2766
31132653, 1271, -1.18, 2.59, -3.35, -455.63, -194.15, 256.35, 1, 14755, 2768
31147806, 1272, -0.34, -2.03, -0.41, 214.11, -72.08, 471.80, 1, 14873, 2770
31163139, 1273, 1.76, -2.66, 1.65, 482.06, 64.33, -54.14, 1, 14739, 2772
31178285, 1274, -0.54, -0.01, 2.39, 125.00, 83.31, -286.93, 1, 14615, 2774
31193409, 1275, -2.28, 0.78, 0.71, -253.91, -247.31, -144.47, 1, 14581, 2776
31208363, 1276, -1.30, 0.84, -2.53, -155.27, -149.66, 107.60, 1, 14691, 2778
31223471, 1277, -0.94, 0.23, -1.94, 32.23, -3.05, 101.93, 1, 14665, 2780
31238537, 1278, -0.95, -0.68, 0.30, -17.40, 95.21, -22.46, 1, 14663, 2782
31253599, 1279, -0.96, 0.20, 0.39, -70.50, 51.09, -47.30, 1, 14528, 2785
31268523, 1280, -0.85, 0.30, 0.08, -4.27, -14.22, 8.54, 1, 14778, 2786
31283671, 1281, -0.76, -0.18, -0.51, 25.33, -24.05, 43.27, 1, 15058, 2789
31299132, 1282, -1.02, -0.41, -0.63, -11.23, -7.51, 33.26, 1, 15063, 2791
31314579, 1283, -1.14, -0.16, -0.48, -40.28, 23.68, -0.73, 1, 15143, 2793
31330184, 1284, -1.03, 0.04, -0.24, -22.77, 74.89, -20.63, 1, 14803, 2795
31345357, 1285, -0.84, 0.05, -0.01, -1.53, 76.48, -4.03, 1, 15000, 2797
31360903, 1286, -0.81, -0.07, -0.06, 21.55, 51.82, 21.48, 1, 15175, 2799
31376615, 1287, -0.93, -0.25, -0.20, 21.00, 39.37, 20.94, 1, 14703, 2801
31391767, 1288, -1.01, -0.27, -0.26, -2.56, 34.36, 2.38, 1, 14945, 2803
31407126, 1289, -1.02, -0.09, -0.21, 0.12, 60.97, -14.89, 1, 14756, 2805
31422273, 1290, -0.96, 0.01, -0.09, 17.40, 66.71, -10.07, 1, 14655, 2807
31437330, 1291, -0.92, -0.04, 0.02, 24.41, 44.80, 11.41, 1, 14560, 2809
31452313, 1292, -0.96, -0.17, -0.12, 15.75, 32.90, 14.59, 1, 14990, 2811
31467675, 1293, -0.98, -0.18, -0.13, 3.66, 24.41, 7.69, 1, 14759, 2813
31482824, 1294, -0.96, -0.14, -0.06, 0.85, 21.61, 3.72, 1, 14727, 2815
31497950, 1295, -0.96, -0.11, -0.03, -2.08, 10.44, -3.54, 1, 15472, 2817
31513792, 1296, -0.98, -0.05, -0.05, -2.81, 2.75, -2.99, 1, 14783, 2820
31529004, 1297, -0.97, -0.06, -0.05, -2.69, -12.57, 4.64, 1, 14879, 2822
31544312, 1298, -0.94, -0.12, -0.04, -4.09, -19.90, 6.77, 1, 14794, 2824
31559503, 1299, -0.95, -0.15, -0.08, -10.31, -31.74, 6.04, 1, 14761, 2826
31574634, 1300, -0.97, -0.18, -0.16, -15.75, -33.81, 3.91, 1, 15081, 2828
31590177, 1301, -0.98, -0.17, -0.17, -27.65, -27.77, -1.34, 1, 14953, 2830
31605502, 1302, -0.99, -0.10, -0.12, -28.20, -22.09, -3.97, 1, 15020, 2832
31620891, 1303, -0.98, -0.06, -0.09, -15.69, -16.11, -3.23, 1, 15069, 2834
31636377, 1304, -0.93, -0.06, -0.09, 1.77, -21.36, 5.49, 1, 14817, 2836
31651601, 1305, -0.96, -0.14, -0.16, 4.52, -25.15, 6.65, 1, 14733, 2838
31666717, 1306, -0.97, -0.14, -0.21, -1.59, -24.17, 2.62, 1, 14714, 2840
31681917, 1307, -0.98, -0.11, -0.23, -2.69, -18.62, 1.89, 1, 14842, 2842
31697165, 1308, -0.98, -0.11, -0.19, -3.23, -8.30, 2.32, 1, 14712, 2844
31712356, 1309, -0.98, -0.11, -0.19, -4.39, -5.74, 1.59, 0, 10560, 2846
31723321, 1310, -0.99, -0.09, -0.18, -5.74, -3.66, 1.22, 1, 14741, 2847
31738507, 1311, -0.98, -0.09, -0.19, -4.09, 2.81, 4.64, 1, 14805, 2849
31753714, 1312, -0.97, -0.14, -0.18, -1.95, 6.53, 5.98, 1, 14747, 2852
31768848, 1313, -0.97, -0.15, -0.18, -1.53, 12.82, 2.99, 1, 14649, 2854
31783871, 1314, -1.00, -0.14, -0.19, -1.65, 16.48, 0.92, 1, 14798, 2856
31799048, 1315, -1.01, -0.12, -0.17, -1.40, 29.17, -1.22, 1, 14963, 2858
31814412, 1316, -0.99, -0.12, -0.05, -5.74, 38.51, -0.18, 1, 14900, 2860
31829679, 1317, -1.00, -0.14, 0.01, -49.80, 56.95, 7.26, 1, 14691, 2862
31844748, 1318, -1.03, -0.14, -0.07, -102.11, 67.81, 17.52, 1, 14663, 2864
31859850, 1319, -1.09, -0.09, -0.18, -107.36, 71.29, 22.40, 1, 14823, 2866
31875042, 1320, -1.14, -0.09, -0.22, -62.68, 60.06, 28.08, 1, 14819, 2868
31890267, 1321, -1.19, -0.16, -0.24, -16.54, 41.26, 23.56, 1, 14642, 2870
31905300, 1322, -1.21, -0.18, -0.13, 46.94, 29.79, 6.47, 1, 14660, 2872
31920331, 1323, -1.21, -0.16, 0.14, 38.88, 48.16, 1.89, 1, 14499, 2874
31935197, 1324, -1.21, -0.18, 0.18, -4.58, 80.93, 5.00, 1, 14944, 2876
31950538, 1325, -1.33, -0.21, 0.10, -18.49, 77.45, 10.62, 1, 14738, 2878
31965646, 1326, -1.48, -0.21, 0.02, 3.78, 50.78, 30.46, 1, 14769, 2880
31980795, 1327, -1.71, -0.32, -0.06, 3.78, 50.78, 30.46, 0, 10511, 2882
31991829, 1328, -1.67, -0.42, -0.05, 51.76, 23.80, 44.68, 1, 14640, 2883
32006958, 1329, -1.55, -0.46, -0.02, 33.87, 17.94, 9.46, 1, 14623, 2885
32021957, 1330, -1.24, -0.34, 0.00, 17.76, 15.44, -16.72, 1, 14586, 2887
32037086, 1331, -1.13, -0.25, -0.02, 11.23, 8.36, -37.66, 1, 14711, 2889
32052154, 1332, -1.02, -0.18, 0.01, 20.87, 5.49, -31.31, 1, 14513, 2891
32067086, 1333, -1.02, -0.19, 0.05, 26.73, 3.78, -16.36, 1, 14765, 2893
32082394, 1334, -0.97, -0.19, 0.06, 18.92, 4.88, -18.55, 1, 14499, 2895
32097302, 1335, -0.93, -0.17, 0.06, 3.72, 14.83, -36.93, 1, 14547, 2897
32112247, 1336, -0.85, -0.13, 0.16, 1.77, 23.38, -45.17, 1, 14518, 2899
32127135, 1337, -0.75, -0.15, 0.17, -10.38, 26.61, -40.22, 1, 14766, 2901
32142269, 1338, -0.63, -0.10, 0.01, -17.58, 13.12, -27.16, 1, 14522, 2903
32157299, 1339, -0.70, -0.09, -0.02, 14.77, -25.45, 4.88, 1, 14868, 2905
32172508, 1340, -0.79, -0.20, 0.07, 12.15, -40.71, 2.26, 1, 14578, 2907
32187504, 1341, -0.72, -0.16, 0.08, -6.77, -41.99, -14.59, 1, 14909, 2909
32202754, 1342, -0.68, -0.09, 0.08, -23.13, -35.77, -37.54, 1, 14651, 2911
32217775, 1343, -0.61, 0.00, 0.12, -18.49, -28.93, -35.46, 1, 14680, 2913
32232880, 1344, -0.58, -0.01, 0.11, -4.15, -26.18, -16.60, 1, 14952, 2915
32248227, 1345, -0.56, -0.08, 0.06, -1.22, -34.30, -7.81, 1, 14889, 2917
32263515, 1346, -0.56, -0.11, 0.04, -18.49, -44.19, -5.80, 1, 14753, 2919
32278695, 1347, -0.52, -0.07, 0.02, -31.86, -39.00, -14.40, 1, 14954, 2922
32294010, 1348, -0.46, -0.03, 0.01, -49.74, -19.84, -34.42, 1, 14772, 2924
32309157, 1349, -0.38, 0.02, 0.01, -44.37, -18.74, -34.12, 1, 14912, 2926
32324555, 1350, -0.35, 0.01, 0.02, -21.91, -32.96, -9.09, 1, 14680, 2928
32339653, 1351, -0.32, 0.01, 0.03, -15.75, -39.25, 4.09, 1, 14539, 2930
32354766, 1352, -0.30, -0.02, 0.02, -21.12, -35.89, 11.72, 1, 14548, 2932
32369711, 1353, -0.11, -0.06, -0.01, -33.02, -29.54, 4.82, 1, 14701, 2934
32384855, 1354, 0.07, -0.05, -0.04, -44.37, -24.90, -17.33, 1, 14991, 2936
32400287, 1355, 0.54, 0.10, 0.02, -37.05, -24.60, -26.79, 1, 14638, 2938
32415299, 1356, 0.86, 0.27, 0.18, -2.14, -10.07, -47.73, 1, 14689, 2940
32430509, 1357, 2.33, 0.27, 0.32, -4.52, 36.01, -72.88, 1, 14464, 2942
32445399, 1358, 3.36, 0.09, 0.17, -28.87, 49.80, -58.35, 1, 14472, 2944
32460276, 1359, 4.00, 0.01, 0.15, -25.70, 65.67, -2.01, 1, 14553, 2946
32475230, 1360, 3.36, 0.01, 0.50, 215.09, 65.73, 265.14, 1, 14781, 2948
32490409, 1361, -1.71, -1.74, -0.40, 50.60, -417.42, -339.54, 1, 15132, 2950
32505913, 1362, -0.98, 2.91, -3.76, -971.25, -174.68, -695.01, 1, 15580, 2952
32521866, 1363, -1.22, 3.56, -3.82, -128.72, 69.52, 114.01, 1, 14879, 2954
32537165, 1364, -1.22, 3.56, -3.82, -128.72, 69.52, 114.01, 0, 6369, 2956
32543905, 1365, -1.22, 3.56, -3.82, -128.72, 69.52, 114.01, 0, 6179, 2957
32550595, 1366, 2.30, -3.67, 2.82, 403.20, 453.61, 61.22, 1, 14437, 2957
32565443, 1367, -1.97, -0.46, 2.19, -58.23, 171.26, -195.19, 1, 14867, 2959
32580800, 1368, -2.01, 1.06, -0.09, -433.41, -355.04, -170.35, 1, 14793, 2961
32596094, 1369, -0.62, 1.50, -2.11, -292.36, -281.07, -17.09, 1, 14716, 2963
32611294, 1370, -0.63, 0.46, -1.05, 139.40, 24.96, 170.23, 1, 14529, 2965
32626247, 1371, -1.24, -1.07, 0.63, 134.52, 64.15, 120.97, 1, 14713, 2967
32641349, 1372, -1.25, -0.44, 0.39, -56.82, 10.93, -57.74, 1, 14509, 2969
32656288, 1373, -0.86, 0.41, -0.34, -28.14, -7.87, -51.64, 1, 14991, 2971
32671739, 1374, -0.78, 0.11, -0.28, 40.41, -16.78, 31.68, 1, 14646, 2973
32686916, 1375, -0.96, -0.16, -0.20, 11.05, -25.76, 34.36, 1, 14741, 2975
32702087, 1376, -1.06, -0.06, -0.30, -18.13, -11.23, 4.27, 1, 14822, 2977
32717280, 1377, -1.00, 0.05, -0.22, -4.27, 14.53, 0.55, 1, 14555, 2979
32732252, 1378, -0.95, 0.02, -0.13, 12.15, 47.55, 10.74, 1, 14501, 2981
32747272, 1379, -0.89, -0.06, -0.06, 11.11, 46.33, 13.24, 1, 14680, 2983
32762366, 1380, -0.91, -0.08, -0.07, 4.09, 19.35, 10.93, 1, 14437, 2985
32777229, 1381, -0.99, -0.09, -0.12, -1.46, 8.61, 7.57, 1, 14623, 2987
32792253, 1382, -1.01, -0.05, -0.13, -4.52, 16.54, -2.01, 1, 14961, 2989
32807615, 1383, -1.01, 0.06, -0.09, 1.34, 26.67, -5.92, 1, 14757, 2991
32822886, 1384, -0.99, 0.08, -0.09, 7.81, 28.32, -1.65, 1, 14542, 2993
32837828, 1385, -0.95, 0.01, -0.08, 4.82, 22.64, 5.37, 1, 14744, 2995
32852974, 1386, -0.94, -0.07, -0.08, 1.34, 16.48, 13.00, 1, 14597, 2997
32867978, 1387, -0.99, -0.13, -0.07, -2.81, 18.86, -0.37, 1, 14988, 2999
32883507, 1388, -1.02, 0.02, -0.07, -3.30, 21.61, -7.39, 1, 14789, 3001
32898682, 1389, -1.01, 0.06, -0.05, -0.06, 23.19, -4.03, 1, 14689, 3004
32913854, 1390, -0.98, 0.01, -0.03, -1.10, 20.39, 2.62, 1, 14717, 3006
32928974, 1391, -0.96, -0.02, -0.03, -5.19, 10.74, 10.68, 1, 14837, 3008
32944196, 1392, -0.95, -0.06, -0.04, -5.25, 7.57, 9.89, 1, 15054, 3010
32959680, 1393, -0.96, -0.05, -0.04, -3.78, 3.11, 6.04, 1, 14847, 3012
32974954, 1394, -1.01, -0.01, -0.07, -7.75, -0.24, 7.14, 1, 14828, 3014
32990205, 1395, -1.02, 0.02, -0.06, -12.57, -1.40, 11.78, 1, 14936, 3016
33005543, 1396, -1.02, 0.01, 0.01, -8.79, -1.34, 13.67, 1, 14883, 3018
33020879, 1397, -1.01, -0.03, 0.02, -19.90, -5.00, 20.81, 1, 15161, 3020
33036408, 1398, -0.98, -0.10, 0.04, -40.89, -3.91, 24.90, 1, 14665, 3022
33051535, 1399, -1.01, -0.11, 0.05, -93.63, 13.00, 29.48, 1, 14652, 3024
33066531, 1400, -1.03, -0.02, 0.08, -91.80, 20.75, 26.31, 1, 14761, 3026
33081693, 1401, -1.09, -0.01, 0.06, -72.94, 15.32, 30.76, 1, 14725, 3028
33096785, 1402, -1.35, -0.07, -0.12, -82.34, 20.14, 46.57, 1, 14614, 3030
33111881, 1403, -1.32, -0.13, -0.34, -64.94, 29.79, 42.91, 1, 14785, 3032
33127036, 1404, -1.27, -0.15, -0.28, 22.28, 31.86, 5.68, 1, 14715, 3034
33142168, 1405, -1.26, -0.19, 0.07, 42.97, 33.69, -11.05, 1, 14575, 3036
33157096, 1406, -1.19, -0.19, 0.15, -7.14, 47.30, -24.54, 1, 14514, 3038
33172086, 1407, -1.06, -0.06, 0.01, -39.61, 53.83, -23.68, 1, 14682, 3040
33187137, 1408, -1.15, 0.04, -0.08, -19.41, 42.79, 2.44, 1, 14626, 3042
33202209, 1409, -1.55, 0.06, -0.10, 25.09, 29.24, 30.76, 1, 14844, 3044
33217424, 1410, -1.57, -0.10, -0.09, 77.58, 8.85, 77.21, 1, 14732, 3046
33232543, 1411, -1.49, -0.32, -0.02, 74.16, 3.23, 72.02, 1, 14552, 3048
33247495, 1412, -1.45, -0.33, 0.04, 43.58, 6.47, 15.32, 1, 14552, 3050
33262447, 1413, -1.45, -0.33, 0.04, 20.08, 14.95, -16.78, 0, 10323, 3052
33273183, 1414, -1.08, -0.11, 0.10, 0.24, 21.67, -39.67, 1, 14630, 3053
33288301, 1415, -1.01, -0.03, 0.05, -1.22, 24.35, -41.69, 1, 14759, 3055
33303447, 1416, -0.96, -0.02, -0.02, 14.53, 22.77, -25.70, 1, 14687, 3057
33318598, 1417, -0.98, -0.10, -0.01, 40.47, 14.04, 4.15, 1, 14487, 3060
33333483, 1418, -1.00, -0.24, 0.07, 34.12, 6.96, 7.08, 1, 14750, 3061
33348611, 1419, -0.96, -0.24, 0.06, -1.53, -5.37, -7.75, 1, 14964, 3064
33363957, 1420, -0.91, -0.13, 0.08, -7.51, -10.86, -18.37, 1, 14732, 3066
33379141, 1421, -0.89, -0.08, 0.12, -5.19, -11.90, -27.47, 1, 14978, 3068
33394518, 1422, -0.76, -0.04, 0.12, -9.89, -9.03, -26.55, 1, 14845, 3070
33409762, 1423, -0.74, -0.02, 0.09, -8.54, -12.63, -14.89, 1, 14777, 3072
33424909, 1424, -0.77, -0.09, 0.01, 4.33, -21.97, 2.50, 1, 14768, 3074
33440075, 1425, -0.68, -0.17, -0.03, 2.08, -24.29, 2.20, 1, 14698, 3076
33455146, 1426, -0.62, -0.16, -0.04, -11.11, -25.82, -16.66, 1, 14914, 3078
33470452, 1427, -0.59, -0.07, -0.00, -12.39, -27.04, -23.50, 1, 14946, 3080
33485824, 1428, -0.59, -0.05, 0.03, -14.16, -21.85, -22.71, 1, 14793, 3082
33500991, 1429, -0.55, -0.05, 0.06, -15.44, -17.21, -19.59, 1, 14788, 3084
33516349, 1430, -0.48, -0.06, 0.06, -15.69, -14.34, -18.31, 1, 14773, 3086
33531575, 1431, -0.35, -0.04, 0.06, -17.27, -16.05, -20.26, 1, 14718, 3088
33546785, 1432, -0.31, -0.02, 0.05, -20.75, -18.49, -21.24, 1, 14682, 3090
33561952, 1433, -0.31, 0.03, 0.05, -20.39, -16.85, -17.94, 1, 14727, 3092
33577039, 1434, -0.33, 0.04, 0.06, -14.83, -8.24, -5.55, 1, 14708, 3094
33592259, 1435, -0.37, 0.01, 0.11, -9.40, -3.97, 0.49, 1, 14680, 3096
33607345, 1436, -0.38, 0.00, 0.15, 2.08, -2.87, 12.27, 1, 14652, 3098
33622386, 1437, -0.33, -0.01, 0.14, 3.11, -3.78, 17.70, 1, 14466, 3100
33637272, 1438, -0.30, -0.04, 0.11, -4.15, -1.89, 22.28, 1, 14650, 3102
33652352, 1439, -0.04, -0.11, 0.01, -9.77, -0.98, 18.37, 1, 14709, 3104
33667487, 1440, 0.22, -0.05, -0.02, 6.10, -11.90, -9.46, 1, 14612, 3106
33682503, 1441, 1.15, 0.12, 0.13, 35.28, -19.65, -26.92, 1, 14736, 3108
33697646, 1442, 1.98, 0.22, 0.30, 42.60, -27.04, -55.97, 1, 14617, 3110
33712663, 1443, 3.81, 0.37, 0.27, -42.66, -50.48, 12.21, 1, 14530, 3112
33727615, 1444, 4.00, 0.36, 0.08, -37.96, -57.74, 124.45, 1, 14426, 3114
33742532, 1445, 3.37, -0.43, 0.40, 276.73, -99.12, 381.84, 1, 14488, 3116
33757418, 1446, 0.90, -1.88, -0.41, 484.50, -489.87, 72.81, 1, 14542, 3118
33772360, 1447, -1.81, -0.41, -2.37, -1082.64, 15.38, -866.58, 1, 14730, 3120
33787525, 1448, -1.03, 2.75, -3.62, -851.56, 362.67, -468.26, 1, 14493, 3122
33802417, 1449, 0.62, -0.54, -0.71, 942.02, 549.62, 459.53, 1, 14617, 3124
33817460, 1450, 2.06, -3.44, 3.43, 743.16, 597.96, 292.97, 1, 14707, 3126
33832539, 1451, -0.86, -1.54, 3.23, -234.37, -31.80, -242.31, 1, 14904, 3128
33847813, 1452, -2.06, 1.53, -1.33, -455.75, -323.97, -218.99, 1, 15190, 3130
33863381, 1453, -0.93, 1.93, -2.34, -168.88, -125.55, 63.42, 1, 14843, 3132
33878717, 1454, -0.56, -0.47, 0.03, 123.96, 7.57, 151.98, 1, 14391, 3135
33893509, 1455, -1.22, -1.30, 0.60, 33.81, 24.90, 39.25, 1, 14485, 3136
33908400, 1456, -1.22, -1.30, 0.60, -86.91, 15.69, -42.91, 0, 10335, 3138
33919107, 1457, -0.95, 0.47, -0.22, -48.22, 25.45, -42.36, 1, 14866, 3140
33934381, 1458, -0.76, -0.02, -0.02, 64.45, 36.19, 29.91, 1, 14663, 3142
33949459, 1459, -0.94, -0.22, -0.05, 28.87, 16.24, 20.57, 1, 14523, 3144
33964489, 1460, -1.06, 0.01, -0.12, -5.55, 6.96, -10.74, 1, 14713, 3146
33979619, 1461, -1.00, 0.09, 0.11, 7.02, 17.52, -4.46, 1, 14419, 3148
33994440, 1462, -0.93, -0.02, 0.18, 3.72, -1.77, 16.30, 1, 14523, 3150
34009370, 1463, -0.92, -0.10, -0.07, -7.69, -15.01, 17.09, 1, 14998, 3152
34024787, 1464, -0.97, -0.10, -0.11, -4.15, -8.61, 6.96, 1, 14894, 3154
34040025, 1465, -1.01, -0.03, -0.07, -0.24, -0.79, 1.95, 1, 14807, 3156
34055177, 1466, -1.01, 0.01, -0.03, 4.15, 8.42, 0.00, 1, 14650, 3158
34070261, 1467, -0.98, 0.03, -0.04, 6.90, 12.15, 0.98, 1, 14491, 3160
34085160, 1468, -0.98, -0.01, -0.09, 13.61, 18.98, 6.16, 1, 14606, 3162
34100165, 1469, -0.99, -0.07, -0.05, 9.89, 20.14, 7.14, 1, 14738, 3164
34115270, 1470, -0.98, -0.05, -0.03, -0.43, 18.07, 6.10, 1, 14739, 3166
34130448, 1471, -0.97, -0.04, -0.03, -3.23, 16.97, 9.83, 1, 14731, 3168
34145519, 1472, -0.98, -0.05, 0.03, -3.72, 15.81, 8.48, 1, 14549, 3170
34160558, 1473, -1.00, -0.03, 0.05, -5.55, 8.36, 1.46, 1, 14414, 3172
34175462, 1474, -0.98, 0.01, 0.03, -5.31, 4.33, 3.54, 1, 14535, 3174
34190368, 1475, -0.97, -0.02, 0.02, -1.83, -1.65, 17.64, 1, 14865, 3176
34205746, 1476, -1.01, -0.08, 0.01, -2.62, -2.62, 20.51, 1, 14728, 3178
34220993, 1477, -1.02, -0.07, -0.01, -9.46, 2.93, 17.15, 1, 14715, 3180
34236084, 1478, -1.00, -0.03, 0.01, -13.31, 8.30, 16.48, 1, 14603, 3182
34251176, 1479, -1.00, -0.04, 0.04, -38.02, 20.02, 25.02, 1, 14644, 3184
34266203, 1480, -1.01, -0.05, 0.14, -64.39, 28.32, 31.74, 1, 14470, 3186
34281070, 1481, -1.01, -0.03, 0.13, -106.81, 40.22, 47.30, 1, 14786, 3188
34296276, 1482, -0.93, -0.01, -0.03, -99.55, 34.67, 56.70, 1, 14651, 3190
34311325, 1483, -0.93, -0.03, -0.05, -57.80, 21.18, 74.95, 1, 14591, 3192
34326296, 1484, -0.99, -0.09, 0.01, -34.79, 16.97, 80.02, 1, 14660, 3194
34341382, 1485, -1.06, -0.11, 0.13, -25.15, 27.40, 99.43, 1, 14538, 3196
34356356, 1486, -1.08, -0.30, 0.37, -62.56, 49.62, 119.32, 1, 14849, 3198
34371593, 1487, -0.99, -0.43, 0.37, -211.24, 99.49, 156.07, 1, 14777, 3200
34386776, 1488, -0.98, -0.38, 0.28, -272.89, 108.76, 166.38, 1, 14566, 3202
34401755, 1489, -1.05, -0.30, 0.22, -298.89, 113.46, 195.01, 1, 15030, 3204
34417204, 1490, -1.01, -0.26, -0.07, -258.24, 113.22, 213.20, 1, 14725, 3206
34432325, 1491, -0.86, -0.29, -0.15, -94.06, 93.87, 221.68, 1, 14675, 3208
34447407, 1492, -0.62, -0.36, 0.10, -23.01, 90.15, 216.43, 1, 14722, 3210
34462499, 1493, -0.51, -0.45, 0.26, 26.98, 104.37, 218.38, 1, 14353, 3212
34477365, 1494, -0.42, -0.63, 0.45, 16.42, 108.76, 230.29, 1, 15071, 3214
34492845, 1495, -0.46, -0.70, 0.50, -52.43, 121.28, 274.78, 1, 14989, 3216
34508225, 1496, -0.49, -0.83, 0.40, -133.30, 134.34, 300.90, 1, 14769, 3218
34523393, 1497, -0.51, -0.75, 0.22, -152.04, 130.37, 286.62, 1, 14588, 3220
34538407, 1498, -0.56, -0.64, 0.20, -120.79, 107.48, 212.34, 1, 14796, 3222
34553600, 1499, -0.62, -0.46, 0.29, -87.52, 98.39, 166.81, 1, 14555, 3225
34568554, 1500, -0.60, -0.38, 0.37, -20.63, 85.63, 84.90, 1, 14675, 3227
34583659, 1501, -0.58, -0.52, 0.53, 0.06, 88.44, 60.24, 1, 14333, 3229
34598482, 1502, -0.63, -0.80, 0.60, 3.72, 118.71, 52.73, 1, 14523, 3230
34613546, 1503, -0.57, -1.07, 0.81, -23.86, 120.54, 39.98, 1, 14669, 3232
34628701, 1504, -0.51, -0.92, 0.83, -115.17, 74.89, -21.48, 1, 14700, 3235
34643884, 1505, -0.45, -0.62, 0.61, -138.73, 47.79, -46.81, 1, 14630, 3237
34659028, 1506, -0.40, -0.56, 0.54, -143.62, 29.60, -61.16, 1, 14862, 3239
34674303, 1507, -0.33, -0.36, 0.64, -153.38, 31.07, -57.19, 1, 14591, 3241
34689444, 1508, -0.44, -0.44, 0.66, -154.72, 31.31, -20.45, 1, 14817, 3243
34704603, 1509, -0.57, -0.61, 0.86, -141.05, 37.23, -3.17, 1, 14897, 3245
34719916, 1510, -0.43, -0.52, 0.91, -141.66, 39.18, 1.65, 1, 14722, 3247
34735039, 1511, -0.36, -0.37, 0.88, -156.49, 23.80, -2.38, 1, 14812, 3249
34750233, 1512, -0.35, -0.33, 0.82, -208.13, -8.42, -2.32, 1, 14908, 3251
34765569, 1513, -0.38, -0.40, 0.76, -214.54, -9.52, 0.18, 1, 14711, 3253
34780680, 1514, -0.43, -0.35, 0.81, -197.88, 13.79, 4.33, 1, 14637, 3255
34795737, 1515, -0.41, -0.17, 0.90, -180.60, 27.95, 11.41, 1, 14652, 3257
34810798, 1516, -0.44, -0.14, 0.91, -88.93, 54.75, 25.15, 1, 14430, 3259
34825717, 1517, -0.38, -0.24, 0.87, -37.05, 67.02, 29.97, 1, 14666, 3261
34840798, 1518, -0.33, -0.31, 0.86, 7.02, 79.22, 28.81, 1, 14684, 3263
34855858, 1519, -0.29, -0.32, 0.93, 16.91, 80.08, 17.15, 1, 14611, 3265
34870958, 1520, -0.26, -0.31, 0.99, 43.70, 80.14, 7.81, 1, 14658, 3267
34886102, 1521, -0.24, -0.34, 1.06, 89.23, 71.84, -8.42, 1, 14715, 3269
34901306, 1522, -0.21, -0.38, 0.97, 77.51, 59.33, -11.05, 1, 14477, 3271
34916181, 1523, -0.18, -0.34, 1.04, 143.13, 64.45, -34.00, 1, 14570, 3273
34931151, 1524, -0.20, -0.21, 1.22, 255.80, 91.13, -54.44, 1, 14597, 3275
34946149, 1525, -0.27, -0.25, 1.11, 439.51, 121.34, -65.98, 1, 14692, 3277
34961239, 1526, -0.28, -0.47, 0.71, 441.77, 107.79, -52.37, 1, 14594, 3279
34976202, 1527, -0.23, -0.57, 0.58, 359.74, 76.17, -19.17, 1, 14454, 3281
34991185, 1528, -0.23, -0.68, 0.46, 303.34, 66.04, -1.59, 1, 14569, 3283
35006190, 1529, -0.23, -0.70, 0.45, 188.54, 52.19, 38.45, 1, 14495, 3285
35021065, 1530, -0.16, -0.74, 0.52, 145.32, 48.28, 56.46, 1, 14579, 3287
35036040, 1531, -0.12, -0.75, 0.59, 105.59, 42.48, 79.28, 1, 14480, 3289
35050884, 1532, -0.05, -0.83, 0.71, 110.84, 40.04, 79.96, 1, 14509, 3291
35065910, 1533, -0.02, -0.84, 0.70, 160.77, 39.73, 60.79, 1, 14587, 3293
35080949, 1534, -0.02, -0.89, 0.56, 184.75, 38.39, 48.95, 1, 14553, 3295
35096009, 1535, -0.03, -0.92, 0.46, 167.36, 21.67, 39.92, 1, 14531, 3297
35110937, 1536, 0.00, -0.91, 0.42, 147.83, 14.47, 39.98, 1, 14428, 3299
35125789, 1537, -0.00, -0.90, 0.44, 132.57, 8.06, 40.16, 1, 14399, 3301
35140679, 1538, -0.02, -0.91, 0.41, 127.69, 4.15, 41.93, 1, 14450, 3303
35155676, 1539, -0.01, -0.90, 0.38, 135.99, 6.47, 43.82, 1, 14410, 3305
35170484, 1540, 0.01, -0.90, 0.31, 148.50, 12.08, 44.01, 1, 14376, 3307
35185232, 1541, 0.02, -0.92, 0.28, 170.72, 21.42, 46.39, 1, 14338, 3309
35200062, 1542, 0.03, -0.98, 0.23, 178.16, 25.02, 46.69, 1, 14441, 3311
35214899, 1543, 0.05, -1.01, 0.19, 179.02, 26.86, 42.05, 1, 14470, 3313
35229758, 1544, 0.09, -1.05, 0.11, 168.52, 23.38, 38.02, 1, 14409, 3315
35244628, 1545, 0.09, -1.07, 0.07, 129.70, 14.28, 29.17, 1, 14267, 3317
35259313, 1546, 0.09, -1.07, 0.01, 105.04, 11.72, 24.90, 1, 14414, 3319
35274148, 1547, 0.09, -1.07, 0.00, 48.89, 7.14, 18.92, 1, 14344, 3321
35288972, 1548, 0.11, -1.06, 0.04, 23.25, 3.60, 16.24, 1, 14336, 3323
35303736, 1549, 0.11, -1.05, 0.07, -4.21, 0.06, 6.23, 1, 14420, 3325
35318585, 1550, 0.09, -1.02, 0.07, -8.85, 0.73, 0.92, 1, 14427, 3327
35333398, 1551, 0.08, -1.01, 0.06, -15.26, 4.94, -3.05, 1, 14529, 3328
35348362, 1552, 0.08, -1.00, 0.08, -18.55, 7.32, -2.50, 1, 14689, 3330
35363563, 1553, 0.08, -1.00, 0.09, -20.94, 10.68, -1.95, 1, 14537, 3333
35378441, 1554, 0.09, -1.00, 0.10, -19.84, 11.78, -2.56, 1, 14566, 3334
35393444, 1555, 0.09, -1.01, 0.10, -15.44, 13.24, -5.68, 1, 14552, 3336
35408434, 1556, 0.10, -1.02, 0.10, -14.40, 13.18, -7.81, 1, 14735, 3338
35423543, 1557, 0.10, -1.02, 0.10, -16.85, 11.11, -11.66, 1, 14845, 3340
35438759, 1558, 0.08, -1.00, 0.12, -19.65, 9.46, -12.39, 1, 14590, 3343
35453770, 1559, 0.07, -1.00, 0.13, -23.38, 6.96, -11.29, 1, 14825, 3345
35469024, 1560, 0.07, -0.98, 0.15, -19.35, 7.63, -10.86, 1, 14681, 3347
35484097, 1561, 0.07, -0.98, 0.14, -1.34, 12.51, -11.90, 1, 14769, 3349
35499300, 1562, 0.08, -1.01, 0.13, 6.35, 14.59, -13.31, 1, 14466, 3351
35514136, 1563, 0.08, -1.02, 0.12, 10.56, 15.75, -17.64, 1, 14735, 3353
35529276, 1564, 0.08, -1.14, -0.06, 3.54, 14.16, -19.59, 1, 14557, 3355
35544215, 1565, 0.11, -1.26, -0.22, -172.49, -27.34, -12.70, 1, 14786, 3357
35559493, 1566, 0.12, -1.02, 0.35, -236.33, -38.21, -26.31, 1, 14617, 3359
35574486, 1567, 0.08, -1.00, 0.35, -199.95, -36.99, -57.19, 1, 14617, 3361
35589594, 1568, 0.05, -1.03, 0.10, -215.88, -43.33, -58.65, 1, 14664, 3363
35604746, 1569, 0.03, -0.98, 0.20, -283.39, -51.94, -60.79, 1, 14657, 3365
35619849, 1570, -0.04, -0.80, 0.54, -272.40, -44.92, -69.03, 1, 14812, 3367
35635123, 1571, -0.10, -0.72, 0.66, -128.30, -0.79, -86.91, 1, 15072, 3369
35650602, 1572, -0.10, -0.75, 0.42, -63.11, 17.88, -81.05, 1, 14665, 3371
35665716, 1573, -0.09, -0.83, 0.29, -70.98, 25.94, -52.43, 1, 14812, 3373
35680954, 1574, -0.10, -0.96, 0.37, -177.61, 20.51, -35.10, 1, 14766, 3375
35696088, 1575, -0.04, -0.82, 0.46, -241.46, 10.25, -34.12, 1, 14532, 3377
35711016, 1576, -0.12, -0.69, 0.56, -283.26, 1.89, -41.20, 1, 14601, 3379
35726020, 1577, -0.14, -0.56, 0.68, -254.58, 11.66, -31.25, 1, 14728, 3381
35741155, 1578, -0.03, -0.67, 0.64, -216.55, 36.68, -11.66, 1, 14629, 3383
35756297, 1579, 0.03, -0.77, 0.82, -225.83, 36.44, -18.74, 1, 14428, 3385
35771097, 1580, -0.00, -0.67, 0.95, -241.64, 8.97, -53.10, 1, 14681, 3387
35786215, 1581, -0.14, -0.44, 0.89, -252.38, -14.04, -56.09, 1, 14714, 3389
35801298, 1582, -0.18, -0.35, 0.84, -241.52, -27.34, -27.71, 1, 14764, 3391
35816489, 1583, -0.19, -0.28, 0.85, -203.43, -8.54, -9.58, 1, 15136, 3393
35832077, 1584, -0.16, -0.27, 0.90, -62.99, 58.35, 19.78, 1, 14569, 3395
35847001, 1585, -0.06, -0.31, 1.02, 1.10, 81.24, 24.72, 1, 14464, 3397
35861917, 1586, -0.05, -0.38, 1.03, 3.42, 62.07, -2.50, 1, 14961, 3399
35877333, 1587, -0.09, -0.60, 0.93, -34.85, 36.07, -11.35, 1, 15543, 3401
35893220, 1588, -0.11, -0.50, 0.85, -103.76, 16.78, 2.62, 1, 15077, 3403
35908674, 1589, -0.06, -0.28, 0.76, -112.06, 30.70, 10.44, 1, 14999, 3406
35924071, 1590, -0.04, -0.28, 0.81, -80.51, 83.31, 8.30, 1, 14883, 3408
35939363, 1591, 0.00, -0.27, 0.99, -52.19, 108.52, -3.91, 1, 14632, 3410
35954374, 1592, 0.07, -0.27, 1.07, -65.73, 85.27, -4.52, 1, 14839, 3412
35969618, 1593, 0.18, -0.50, 1.22, -199.22, -57.74, 15.81, 1, 15172, 3414
35985278, 1594, -0.05, -0.28, 1.16, -228.58, -105.29, 20.26, 1, 14833, 3416
36000576, 1595, -0.08, -0.12, 0.87, -117.49, -45.47, 2.32, 1, 14962, 3418
36015936, 1596, -0.05, -0.04, 0.91, -33.75, -2.44, -2.01, 1, 14908, 3420
36031260, 1597, -0.01, -0.16, 1.03, 26.31, 16.48, 2.69, 1, 14377, 3422
36046016, 1598, -0.00, -0.24, 1.02, 11.72, 4.15, 5.55, 1, 14464, 3424
36060822, 1599, -0.02, -0.21, 0.98, -2.87, -3.36, 8.67, 1, 14799, 3426
36076140, 1600, -0.00, -0.19, 0.98, 1.34, 1.28, 9.70, 1, 14379, 3428
36090947, 1601, 0.01, -0.19, 1.00, 7.75, -0.49, 9.28, 1, 14565, 3430
36105884, 1602, -0.03, -0.20, 1.01, 3.11, -6.71, 9.64, 1, 14726, 3432
36121009, 1603, -0.04, -0.18, 0.98, -6.65, -4.76, 15.81, 1, 14731, 3434
36136292, 1604, -0.03, -0.17, 0.95, -2.20, 4.03, 20.39, 1, 14613, 3436
36151310, 1605, -0.02, -0.19, 0.96, 2.14, 18.68, 33.33, 1, 14591, 3438
36166275, 1606, 0.02, -0.20, 0.98, -0.18, 22.16, 37.54, 1, 14378, 3440
36181144, 1607, 0.04, -0.22, 1.01, 5.55, 21.73, 29.91, 1, 14470, 3442
36195986, 1608, 0.04, -0.24, 1.05, 6.35, 14.95, 22.16, 1, 14271, 3444
36210655, 1609, 0.02, -0.22, 1.03, -1.40, -5.31, 10.62, 1, 14648, 3446
36225686, 1610, 0.02, -0.20, 0.94, -2.20, -10.93, 8.06, 1, 14458, 3448
36240595, 1611, 0.01, -0.23, 0.94, 15.01, -11.90, 14.89, 1, 14384, 3450
36255409, 1612, 0.00, -0.31, 1.04, 10.99, -6.90, 25.21, 1, 14510, 3452
36270263, 1613, -0.03, -0.27, 1.03, -4.82, -13.92, 53.10, 1, 14571, 3454
36285263, 1614, -0.09, -0.14, 1.03, -7.45, -20.20, 68.36, 1, 14685, 3456
36300467, 1615, -0.03, -0.11, 1.03, -25.27, -16.91, 85.75, 1, 14562, 3458
36315549, 1616, 0.11, -0.14, 0.98, -35.16, -11.84, 62.19, 1, 14573, 3460
36330546, 1617, 0.07, -0.17, 0.98, -23.56, -23.86, 12.45, 1, 14553, 3462
36345449, 1618, -0.04, -0.19, 1.10, -17.82, -33.39, 8.79, 1, 14777, 3464
36360566, 1619, -0.07, -0.21, 1.18, -23.80, -52.00, 10.44, 1, 14675, 3466
36375615, 1620, -0.04, -0.14, 1.24, -25.57, -70.43, 4.39, 1, 14921, 3468
36391017, 1621, -0.07, -0.10, 1.25, -39.49, -105.90, -3.36, 1, 14805, 3470
36406203, 1622, -0.11, -0.09, 1.33, -54.69, -108.89, -1.53, 1, 14883, 3472
36421439, 1623, -0.10, -0.12, 1.31, -86.98, -106.51, 9.46, 1, 14616, 3474
36436567, 1624, -0.16, -0.04, 1.10, -62.19, -115.60, 30.21, 1, 14676, 3476
36451705, 1625, -0.30, 0.06, 1.29, -31.13, -104.49, 27.04, 1, 14667, 3478
36466854, 1626, -0.49, 0.04, 1.52, -17.33, -28.38, 13.18, 1, 14673, 3480
36482020, 1627, -0.23, -0.35, 1.60, -42.48, 0.12, 18.37, 1, 14759, 3482
36497168, 1628, -0.20, -0.44, 1.69, -104.98, 4.15, 37.23, 1, 14510, 3484
36512199, 1629, -0.18, -0.39, 1.75, -127.81, -6.35, 42.30, 1, 14799, 3486
36527495, 1630, -0.14, -0.28, 1.63, -185.30, -51.03, 41.02, 1, 14811, 3488
36542724, 1631, -0.30, -0.10, 1.09, -184.57, -74.16, 36.68, 1, 14692, 3490
36557869, 1632, -0.38, -0.10, 0.72, -42.72, -79.65, 18.98, 1, 14894, 3492
36573105, 1633, -0.38, -0.05, 0.77, 50.54, -43.82, 15.20, 1, 14606, 3494
36588124, 1634, -0.36, -0.03, 1.07, 133.73, 83.86, 19.53, 1, 14402, 3496
36603074, 1635, -0.17, -0.16, 1.39, 136.05, 118.41, 16.72, 1, 14538, 3498
36617956, 1636, -0.12, -0.22, 1.44, 123.54, 76.60, 16.48, 1, 14683, 3500
36633036, 1637, -0.20, -0.13, 1.32, 96.92, 24.72, 20.02, 1, 14654, 3502
36648088, 1638, -0.22, -0.06, 1.22, 25.63, -61.95, 23.68, 1, 14589, 3504
36663074, 1639, -0.20, 0.01, 1.00, 10.86, -75.50, 23.62, 1, 14658, 3506
36678076, 1640, -0.24, 0.03, 0.96, 15.81, -63.23, 23.86, 1, 14612, 3508
36693079, 1641, -0.25, 0.05, 1.03, 18.74, -45.41, 24.84, 1, 14583, 3510
36708066, 1642, -0.22, 0.11, 0.99, 16.78, -26.73, 17.09, 1, 14611, 3512
36723166, 1643, -0.19, 0.06, 0.76, 19.10, -33.08, 5.25, 1, 14656, 3514
36738304, 1644, -0.18, -0.04, 0.62, 26.61, -67.32, -12.39, 1, 14754, 3516
36753481, 1645, -0.19, -0.05, 0.39, 34.36, -87.77, -17.03, 1, 14745, 3518
36768750, 1646, -0.23, 0.00, 0.41, 27.28, -96.86, -18.49, 1, 14387, 3521
36783508, 1647, -0.24, 0.07, 0.57, -2.38, -76.23, -13.85, 1, 14707, 3522
36798645, 1648, -0.17, 0.04, 0.54, -47.85, -35.28, -5.80, 1, 14941, 3525
36814049, 1649, -0.06, 0.04, 0.32, -41.75, -23.32, -1.89, 1, 14625, 3527
36829215, 1650, -0.05, -0.03, 0.20, -30.46, -18.68, -1.77, 1, 14827, 3529
36844393, 1651, -0.08, -0.11, 0.12, -27.40, -1.77, 3.78, 1, 14629, 3531
36859515, 1652, -0.10, -0.08, 0.11, -35.46, 5.00, 4.09, 1, 14513, 3533
36874565, 1653, -0.11, -0.02, 0.14, -39.00, 12.02, -9.09, 1, 14632, 3535
36889603, 1654, -0.07, 0.01, 0.24, -28.38, 15.62, -18.49, 1, 14711, 3537
36904826, 1655, -0.02, 0.02, 0.20, -26.55, 25.02, -29.30, 1, 14647, 3539
36919962, 1656, 0.01, 0.02, -0.07, -29.54, 32.23, -30.21, 1, 14643, 3541
36934993, 1657, -0.03, -0.05, -0.15, -16.72, 57.43, -18.25, 1, 14711, 3543
36950076, 1658, -0.04, -0.01, -0.16, -21.00, 74.22, -4.52, 1, 14733, 3545
36965190, 1659, -0.00, 0.03, -0.19, -51.21, 89.72, 27.53, 1, 14605, 3547
36980234, 1660, 0.17, -0.07, -0.29, -52.61, 86.00, 39.92, 1, 14866, 3549
36995444, 1661, 0.19, -0.03, -0.43, -41.69, 46.45, 45.59, 1, 14489, 3551
37010304, 1662, 0.20, 0.03, -1.44, -55.85, 9.09, 42.48, 1, 14548, 3553
37025250, 1663, 0.33, -0.14, -2.20, -50.05, -35.71, 48.03, 1, 14743, 3555
37040361, 1664, 1.01, -0.37, -3.42, 8.18, -8.06, 56.09, 1, 14823, 3557
37055557, 1665, 1.44, -0.18, -3.67, 26.55, 186.65, 84.53, 1, 14521, 3559
37070468, 1666, 2.24, 1.17, -2.40, -50.48, 322.33, 94.85, 1, 14475, 3561
37085284, 1667, 1.86, 0.88, 0.65, 322.14, 613.34, 164.92, 1, 14357, 3563
37099982, 1668, -1.11, -0.50, 3.57, 357.06, 196.11, 97.47, 1, 14421, 3565
37114851, 1669, -3.01, -1.23, 3.30, 69.64, -191.59, 8.18, 1, 14997, 3567
37130241, 1670, 0.44, 0.38, 0.62, -57.25, 96.56, 12.02, 1, 14501, 3569
37145169, 1671, 1.50, 0.86, -1.29, -58.17, 76.72, -9.89, 1, 14720, 3571
37160274, 1672, 0.66, -0.35, 0.14, 1.40, -47.79, -21.42, 1, 14708, 3573
37175383, 1673, -0.15, -0.70, 1.93, 9.89, -138.61, -30.64, 1, 14823, 3575
37190693, 1674, -0.66, -0.15, 1.57, -11.66, -81.79, -20.14, 1, 14884, 3577
37205928, 1675, -0.33, 0.07, 0.85, -11.35, 48.16, 3.23, 1, 14787, 3579
37221085, 1676, 0.14, -0.09, 0.66, 0.24, 52.55, 3.85, 1, 14291, 3581
37235945, 1677, 0.03, -0.27, 0.99, 2.20, 10.68, -2.08, 1, 14579, 3583
37251006, 1678, -0.02, -0.31, 1.24, -5.74, 1.10, -3.85, 1, 14702, 3585
37266217, 1679, 0.06, -0.22, 1.07, -9.70, 1.89, -0.85, 1, 14624, 3587
37281333, 1680, 0.03, -0.23, 0.83, -3.78, 7.02, 0.31, 1, 14660, 3589
37296417, 1681, -0.00, -0.16, 0.98, -5.07, 5.25, -2.81, 1, 14761, 3591
37311712, 1682, -0.02, -0.13, 1.02, -2.50, 6.29, -2.32, 1, 14601, 3593
37326756, 1683, -0.00, -0.14, 1.01, 0.98, 13.18, -0.79, 1, 14632, 3595
37341844, 1684, 0.04, -0.17, 0.98, 3.05, 16.97, -0.67, 1, 14629, 3597
37356993, 1685, 0.10, -0.26, 0.94, 2.44, 13.06, -1.71, 1, 14664, 3599
37372140, 1686, 0.09, -0.24, 0.95, -0.61, 4.33, -4.76, 1, 14657, 3601
37387148, 1687, 0.02, -0.17, 1.00, -1.89, 0.79, -5.80, 1, 14468, 3603
37402014, 1688, -0.03, -0.17, 1.02, -1.04, -4.09, -5.00, 1, 14815, 3605
37417258, 1689, -0.05, -0.19, 1.03, 0.37, -4.33, -3.85, 1, 14625, 3607
37432273, 1690, -0.03, -0.20, 1.00, 2.44, -1.04, -1.77, 1, 14703, 3609
37447375, 1691, 0.05, -0.23, 0.96, 2.44, -1.04, -1.77, 0, 10207, 3611
37457991, 1692, 0.07, -0.24, 0.95, 1.59, 1.46, -1.22, 1, 14479, 3612
37472852, 1693, 0.06, -0.23, 0.95, 0.00, -1.22, -1.28, 1, 14579, 3614
37487838, 1694, -0.01, -0.18, 1.02, -0.12, -3.17, -1.34, 1, 14659, 3616
37502923, 1695, -0.03, -0.17, 1.03, 1.04, -2.93, -1.34, 1, 14615, 3618
37517974, 1696, 0.00, -0.20, 1.01, 1.83, -1.22, -0.98, 1, 14652, 3620
37533054, 1697, 0.03, -0.21, 0.98, 2.87, 0.37, -0.06, 1, 14321, 3622
37547867, 1698, 0.05, -0.21, 0.96, 2.99, -0.55, 0.06, 1, 14638, 3624
37562989, 1699, 0.04, -0.21, 0.97, 2.75, -3.30, 0.00, 1, 14687, 3626
37578092, 1700, -0.02, -0.20, 1.02, 2.75, -3.91, 0.00, 1, 14474, 3628
37592907, 1701, -0.04, -0.20, 1.03, 2.81, -1.95, 0.37, 1, 14673, 3630
37607979, 1702, -0.01, -0.21, 1.00, 2.56, -0.12, 0.67, 1, 14555, 3632
37622901, 1703, 0.01, -0.22, 0.99, 1.53, 2.08, 1.04, 1, 14332, 3634
37637723, 1704, 0.03, -0.23, 0.98, 0.73, 1.34, 0.98, 1, 14376, 3636
37652498, 1705, 0.01, -0.22, 0.99, -2.26, -0.49, 0.92, 1, 14658, 3638
37667552, 1706, -0.02, -0.20, 1.01, -3.36, -0.24, 0.79, 1, 14787, 3640
37682712, 1707, -0.02, -0.19, 1.01, -3.72, 3.11, 1.10, 1, 14911, 3642
37698115, 1708, 0.00, -0.20, 1.00, -3.48, 5.37, 1.95, 1, 14658, 3644
37713253, 1709, 0.02, -0.21, 1.00, -4.46, 6.90, 3.36, 1, 14535, 3646
37728157, 1710, 0.03, -0.22, 1.04, -6.77, 6.10, 3.36, 1, 14590, 3648
37743176, 1711, 0.03, -0.22, 1.05, -13.85, 1.22, 1.46, 1, 14732, 3650
37758306, 1712, 0.01, -0.19, 1.07, -16.48, -6.71, -2.50, 1, 14523, 3652
37773235, 1713, 0.01, -0.20, 1.11, -19.53, -12.76, -6.71, 1, 14717, 3654
37788380, 1714, 0.03, -0.23, 1.22, -43.09, -42.24, -22.71, 1, 14759, 3656
37803540, 1715, 0.03, -0.18, 1.58, -73.61, -70.86, -33.08, 1, 14736, 3658
37818678, 1716, -0.17, -0.04, 2.00, -109.86, -100.59, -50.84, 1, 14813, 3661
37833948, 1717, -0.22, -0.20, 2.02, -85.39, -81.79, -44.86, 1, 14856, 3663
37849211, 1718, -0.14, -0.25, 1.81, -27.22, -37.84, -11.47, 1, 14959, 3665
37864723, 1719, -0.19, -0.19, 1.65, 6.53, -18.13, -2.81, 1, 14715, 3667
37879826, 1720, -0.17, -0.24, 1.54, 25.76, 3.23, 3.78, 1, 14509, 3669
37894672, 1721, -0.03, -0.34, 1.22, 25.76, 3.23, 3.78, 0, 10279, 3671
37905293, 1722, -0.01, -0.33, 1.12, 14.89, -10.99, -0.43, 1, 14587, 3672
37920426, 1723, -0.04, -0.32, 1.08, 17.88, -16.78, -12.94, 1, 14636, 3674
37935515, 1724, -0.10, -0.23, 1.01, 20.45, -8.00, -17.09, 1, 14683, 3676
37950687, 1725, -0.12, -0.18, 1.02, 21.00, 7.75, -14.95, 1, 14674, 3678
37965793, 1726, -0.13, -0.18, 1.05, 21.55, 8.61, -10.74, 1, 14826, 3680
37980991, 1727, -0.12, -0.20, 1.03, 22.22, 7.02, -6.29, 1, 14613, 3682
37996036, 1728, -0.10, -0.19, 0.99, 20.63, 2.32, -5.86, 1, 14630, 3684
38011160, 1729, -0.12, -0.15, 1.02, -0.43, -10.68, -1.71, 1, 14685, 3686
38026229, 1730, -0.10, -0.11, 1.04, -19.90, -13.49, -0.12, 1, 14597, 3688
38041345, 1731, -0.06, -0.10, 0.90, -27.22, -21.73, -5.62, 1, 14814, 3690
38056546, 1732, -0.06, -0.08, 0.73, -2.38, -31.25, -15.32, 1, 14709, 3692
38071676, 1733, -0.10, -0.07, 0.79, 2.20, -28.20, -13.49, 1, 14562, 3694
38086651, 1734, -0.10, -0.03, 0.75, 6.90, -20.81, -2.32, 1, 14796, 3696
38101870, 1735, -0.08, 0.06, 0.55, 10.80, -25.70, 0.37, 1, 14581, 3698
38116790, 1736, -0.08, 0.03, 0.48, 31.74, -44.62, 1.40, 1, 14360, 3700
38131566, 1737, -0.06, 0.02, 0.46, 42.36, -46.20, 3.30, 1, 14431, 3702
