t_us,seq,ax,ay,az,gx,gy,gz,valid,t_imu,t_serial,missed
6634102,79,0.0596,0.0513,1.0068,-0.3662,-0.0610,-0.1221,1,10652,823,326
6645691,80,0.0597,0.0505,1.0087,-0.2441,-0.0610,-0.1221,1,10693,852,328
6657206,81,0.0597,0.0500,1.0089,-0.2441,-0.1221,-0.0610,1,10600,888,329
6668733,82,0.0593,0.0493,1.0084,-0.3052,-0.0610,-0.0610,1,10631,869,330
6680369,83,0.0590,0.0497,1.0078,-0.3052,-0.0610,-0.1221,1,10674,934,332
6691937,84,0.0597,0.0507,1.0068,-0.3052,-0.0610,-0.1221,1,10675,865,333
6703591,85,0.0604,0.0499,1.0055,-0.2441,-0.0610,-0.1831,1,10697,928,334
6715156,86,0.0598,0.0499,1.0055,-0.2441,-0.1221,-0.1831,1,10635,904,335
6726814,87,0.0598,0.0497,1.0076,-0.2441,-0.0610,-0.1831,1,10685,945,337
6738382,88,0.0601,0.0497,1.0089,-0.3052,-0.0610,-0.0610,1,10664,877,338
6750036,89,0.0594,0.0499,1.0079,-0.3052,-0.1221,-0.0610,1,10691,936,339
6761576,90,0.0592,0.0499,1.0068,-0.3052,-0.0610,-0.1221,1,10673,841,341
6773252,91,0.0586,0.0504,1.0055,-0.2441,-0.0610,-0.1221,1,10721,928,342
6784810,92,0.0588,0.0497,1.0057,-0.1831,0.0000,-0.0610,1,10633,870,343
6796342,93,0.0591,0.0498,1.0060,-0.1831,-0.0610,-0.1221,1,10679,825,345
6807976,94,0.0590,0.0509,1.0065,-0.1831,-0.0610,-0.1831,1,10708,898,346
6819571,95,0.0598,0.0510,1.0081,-0.1831,-0.0610,-0.1221,1,10670,898,347
6831244,96,0.0599,0.0502,1.0095,-0.1831,-0.1221,-0.0610,1,10775,870,349
6842887,97,0.0590,0.0479,1.0061,-0.2441,-0.1221,-0.0610,1,10684,932,350
6854449,98,0.0596,0.0488,1.0052,-0.1831,-0.1831,-0.0610,1,10635,871,351
6866098,99,0.0598,0.0502,1.0061,-0.1831,-0.1221,-0.1831,1,10672,948,353
6877657,100,0.0601,0.0507,1.0072,-0.1831,-0.0610,-0.1831,1,10655,876,354
6889309,101,0.0602,0.0502,1.0093,-0.1831,-0.0610,-0.1221,1,10687,939,355
6900870,102,0.0605,0.0486,1.0117,-0.2441,-0.0610,-0.1221,1,10668,864,357
6912521,103,0.0580,0.0494,1.0045,-0.3052,-0.1831,-0.1221,1,10689,933,358
6924085,104,0.0586,0.0498,1.0034,-0.3052,-0.1831,-0.1221,0,10636,874,359
6931413,105,0.0586,0.0498,1.0034,-0.3052,-0.1831,-0.1221,0,6465,834,360
6935228,106,0.0599,0.0499,1.0051,-0.2441,-0.0610,-0.1221,1,2194,749,360
6946837,107,0.0599,0.0503,1.0056,-0.2441,-0.2441,-0.0610,1,10650,933,361
6958377,108,0.0588,0.0500,1.0065,-0.1831,-0.1831,0.0000,1,10663,848,362
6969925,109,0.0585,0.0493,1.0094,-0.1221,0.0000,-0.0610,1,10693,828,363
6981507,110,0.0608,0.0488,1.0120,-0.2441,-0.0610,-0.0610,1,10705,850,365
6992987,111,0.0586,0.0513,1.0037,-0.4272,-0.3052,-0.0610,1,10598,854,366
7004518,112,0.0591,0.0499,1.0039,-0.3052,-0.1221,-0.1221,1,10635,867,367
7016125,113,0.0592,0.0487,1.0083,-0.1831,0.0000,-0.1221,1,10715,848,369
7027616,114,0.0593,0.0497,1.0131,-0.1831,0.0000,-0.1221,1,10641,821,370
7039096,115,0.0602,0.0500,1.0128,-0.3662,-0.1221,-0.1831,1,10626,827,371
7050647,116,0.0590,0.0500,1.0081,-0.3662,-0.1831,-0.1221,1,10661,862,373
7062181,117,0.0602,0.0485,1.0070,-0.2441,0.0000,-0.1221,1,10606,901,374
7073654,118,0.0594,0.0486,1.0050,-0.3662,-0.0610,-0.1221,1,10648,797,375
7085189,119,0.0593,0.0503,1.0056,-0.4272,-0.2441,-0.1221,1,10617,891,376
7096701,120,0.0603,0.0505,1.0120,-0.2441,0.0000,-0.1221,1,10608,876,378
7108256,121,0.0598,0.0496,1.0121,-0.3662,-0.1221,-0.1221,1,10682,846,379
7119867,122,0.0588,0.0493,1.0090,-0.3662,0.0610,-0.1221,1,10714,869,380
7131566,123,0.0598,0.0487,1.0090,-0.4272,0.1221,-0.1221,1,10716,954,382
7143088,124,0.0590,0.0500,1.0043,-0.6104,-0.1221,-0.0610,1,10650,845,383
7154631,125,0.0597,0.0505,1.0062,-0.4883,-0.0610,-0.1221,1,10663,852,384
7166164,126,0.0605,0.0494,1.0098,-0.3052,-0.0610,-0.1221,1,10606,900,386
7177651,127,0.0594,0.0493,1.0082,-0.3662,-0.0610,-0.1221,1,10639,820,387
7189250,128,0.0587,0.0491,1.0092,-0.3052,0.1221,-0.1221,1,10699,872,388
7200838,129,0.0583,0.0490,1.0106,-0.3662,0.0610,-0.0610,1,10707,854,390
7212334,130,0.0583,0.0491,1.0066,-0.4272,0.0000,-0.0610,1,10604,865,391
7223817,131,0.0587,0.0510,1.0005,-0.5493,-0.0610,-0.1221,1,10658,797,392
7235396,132,0.0591,0.0530,1.0012,-0.2441,0.1221,-0.0610,1,10694,858,394
7246930,133,0.0607,0.0521,1.0070,-0.2441,0.0610,0.0000,1,10606,899,395
7258394,134,0.0598,0.0509,1.0066,-0.3662,-0.2441,0.0000,1,10629,808,396
7269819,135,0.0577,0.0497,1.0060,-0.1831,-0.0610,0.0000,1,10613,754,397
7281375,136,0.0599,0.0471,1.0106,-0.2441,0.0610,-0.0610,1,10672,856,399
7292982,137,0.0591,0.0492,1.0062,-0.4883,-0.0610,-0.0610,1,10680,901,400
7304575,138,0.0596,0.0508,1.0035,-0.3052,-0.0610,0.0000,1,10698,867,401
7316014,139,0.0596,0.0511,1.0037,-0.1831,-0.0610,0.0000,1,10686,726,403
7327511,140,0.0601,0.0500,1.0078,-0.1221,0.0610,0.0000,1,10640,828,404
7338960,141,0.0607,0.0490,1.0103,-0.2441,-0.0610,-0.0610,1,10604,819,405
7350612,142,0.0582,0.0510,1.0085,-0.3052,-0.1221,0.0000,1,10675,950,407
7362121,143,0.0599,0.0516,1.0082,-0.3052,0.0000,-0.0610,1,10654,826,408
7373667,144,0.0597,0.0522,1.0049,-0.4272,-0.1221,-0.0610,1,10677,842,409
7385206,145,0.0599,0.0515,1.0039,-0.1831,0.0610,-0.1221,1,10610,900,410
7396710,146,0.0602,0.0499,1.0068,-0.1831,0.0000,-0.0610,1,10619,858,412
7408281,147,0.0591,0.0493,1.0089,-0.2441,-0.0610,-0.0610,1,10684,858,413
7419895,148,0.0596,0.0507,1.0056,-0.3052,-0.0610,-0.0610,1,10714,874,414
7431516,149,0.0598,0.0521,1.0042,-0.4272,-0.0610,-0.1221,1,10699,894,416
7443107,150,0.0605,0.0519,1.0066,-0.3662,0.0000,-0.1831,1,10690,874,417
7454564,151,0.0601,0.0510,1.0067,-0.3052,-0.1221,-0.0610,1,10601,827,418
7466083,152,0.0593,0.0503,1.0066,-0.2441,0.0000,0.0000,1,10657,835,420
7477444,153,0.0598,0.0493,1.0093,-0.3052,0.0000,-0.0610,1,10674,658,421
7489016,154,0.0601,0.0492,1.0074,-0.4272,0.0000,-0.1221,1,10691,853,422
7500547,155,0.0598,0.0497,1.0051,-0.3662,0.0000,-0.1221,1,10711,793,424
7512071,156,0.0598,0.0507,1.0049,-0.3662,0.0000,-0.1221,1,10640,856,425
7523588,157,0.0599,0.0513,1.0071,-0.3052,0.0000,-0.0610,1,10664,825,426
7535135,158,0.0603,0.0504,1.0077,-0.2441,-0.0610,-0.0610,1,10710,809,427
7546694,159,0.0596,0.0493,1.0061,-0.2441,-0.0610,-0.0610,1,10631,901,429
7558178,160,0.0596,0.0490,1.0073,-0.1831,0.0610,0.0000,1,10599,857,430
7569738,161,0.0602,0.0496,1.0071,-0.2441,-0.0610,0.0000,1,10674,859,431
7581255,162,0.0587,0.0507,1.0049,-0.3052,-0.1221,-0.1221,1,10696,792,433
7592814,163,0.0592,0.0505,1.0065,-0.2441,0.0000,-0.1831,1,10630,902,434
7604293,164,0.0598,0.0502,1.0082,-0.1831,0.0000,-0.1831,1,10647,804,435
7615732,165,0.0593,0.0502,1.0072,-0.1831,0.0000,-0.1221,1,10600,810,437
7627278,166,0.0596,0.0503,1.0059,-0.2441,0.0000,-0.0610,1,10662,856,438
7638835,167,0.0603,0.0497,1.0094,-0.2441,0.0610,-0.0610,1,10715,815,439
7650365,168,0.0599,0.0498,1.0082,-0.3052,-0.0610,-0.0610,1,10605,898,441
7661878,169,0.0601,0.0502,1.0060,-0.3662,-0.1221,-0.1221,1,10643,842,442
7673482,170,0.0609,0.0499,1.0067,-0.2441,0.0610,-0.1221,1,10698,879,443
7685101,171,0.0609,0.0496,1.0081,-0.2441,0.0000,-0.0610,1,10690,902,444
7696631,172,0.0602,0.0497,1.0077,-0.3052,-0.0610,-0.0610,1,10689,813,446
7708248,173,0.0598,0.0500,1.0072,-0.3052,-0.0610,-0.1221,1,10729,861,447
7719704,174,0.0596,0.0503,1.0077,-0.3052,-0.0610,-0.0610,1,10597,831,448
7731260,175,0.0596,0.0500,1.0077,-0.3052,0.0000,-0.0610,1,10639,891,450
7742795,176,0.0594,0.0503,1.0071,-0.3052,-0.1221,-0.1221,1,10690,817,451
7754315,177,0.0596,0.0507,1.0072,-0.2441,0.0000,-0.1831,1,10604,888,452
7765787,178,0.0601,0.0503,1.0079,-0.3052,0.0000,-0.1831,1,10643,802,454
7777196,179,0.0594,0.0505,1.0065,-0.3052,-0.1221,-0.1221,1,10598,783,455
7788777,180,0.0598,0.0505,1.0070,-0.3052,-0.0610,-0.1221,1,10689,864,456
7800373,181,0.0596,0.0505,1.0082,-0.3052,-0.0610,-0.1831,1,10702,866,458
7811861,182,0.0591,0.0507,1.0087,-0.3662,-0.0610,-0.1831,1,10601,859,459
7823363,183,0.0587,0.0508,1.0084,-0.3052,-0.0610,-0.0610,1,10633,842,460
7834952,184,0.0588,0.0510,1.0074,-0.2441,0.0000,-0.0610,1,10669,893,461
7846495,185,0.0597,0.0514,1.0077,-0.1831,0.0000,-0.0610,1,10684,832,463
7857940,186,0.0605,0.0500,1.0077,-0.2441,-0.0610,-0.0610,1,10610,807,464
7869543,187,0.0604,0.0498,1.0078,-0.3662,-0.0610,-0.1221,1,10677,898,465
7881118,188,0.0604,0.0498,1.0083,-0.3662,-0.0610,-0.1831,1,10671,875,467
7892735,189,0.0596,0.0503,1.0068,-0.3662,-0.0610,-0.0610,1,10681,909,468
7904345,190,0.0590,0.0504,1.0059,-0.3662,-0.0610,-0.0610,1,10713,870,469
7915836,191,0.0592,0.0500,1.0062,-0.3052,-0.0610,-0.1221,1,10602,861,471
7927363,192,0.0603,0.0507,1.0085,-0.3052,-0.0610,-0.1831,1,10630,869,472
7938890,193,0.0601,0.0504,1.0090,-0.3662,-0.0610,-0.1831,1,10642,859,473
7950398,194,0.0592,0.0498,1.0079,-0.3662,-0.0610,-0.1221,1,10608,871,475
7961896,195,0.0593,0.0503,1.0074,-0.3052,-0.0610,-0.1221,1,10641,829,476
7973448,196,0.0602,0.0515,1.0070,-0.3052,-0.1221,-0.0610,1,10659,867,477
7984910,197,0.0607,0.0516,1.0059,-0.3052,-0.0610,-0.1221,1,10598,835,478
7996455,198,0.0599,0.0497,1.0077,-0.3052,0.0000,-0.1221,1,10658,860,480
8008032,199,0.0593,0.0493,1.0084,-0.3052,0.0000,-0.1221,1,10700,850,481
8019464,200,0.0593,0.0493,1.0071,-0.3052,0.0000,0.0000,1,10595,809,482
8030919,201,0.0593,0.0502,1.0052,-0.3052,-0.0610,-0.1221,1,10659,769,484
8042453,202,0.0597,0.0508,1.0059,-0.3052,-0.0610,-0.1221,1,10640,866,485
8054004,203,0.0602,0.0509,1.0068,-0.3052,-0.0610,-0.1221,1,10665,857,486
8065592,204,0.0601,0.0513,1.0079,-0.3662,0.0000,-0.1831,1,10698,864,488
8076996,205,0.0597,0.0514,1.0085,-0.3662,0.0000,-0.1831,1,10595,781,489
8088561,206,0.0593,0.0513,1.0077,-0.3662,0.0000,-0.1831,1,10706,832,490
8100025,207,0.0593,0.0509,1.0062,-0.3662,-0.0610,-0.1221,1,10606,832,491
8111654,208,0.0599,0.0509,1.0054,-0.3052,-0.0610,-0.0610,1,10668,933,493
8123148,209,0.0596,0.0511,1.0067,-0.2441,0.0000,0.0000,1,10628,838,494
8134558,210,0.0587,0.0508,1.0088,-0.2441,-0.0610,0.0000,1,10674,678,495
8146100,211,0.0580,0.0497,1.0072,-0.3052,-0.0610,-0.0610,1,10659,855,497
8157700,212,0.0591,0.0498,1.0073,-0.3052,-0.0610,-0.1221,1,10752,820,498
8169274,213,0.0601,0.0502,1.0068,-0.3662,0.0000,-0.1221,1,10651,895,499
8180691,214,0.0603,0.0500,1.0067,-0.2441,-0.1221,-0.1221,1,10597,792,501
8192262,215,0.0603,0.0498,1.0077,-0.2441,-0.1221,-0.1221,1,10677,867,502
8203851,216,0.0604,0.0502,1.0078,-0.3052,-0.1221,-0.1221,1,10689,871,503
8215218,217,0.0599,0.0507,1.0067,-0.3052,-0.1221,-0.1221,1,10600,740,504
8226863,218,0.0594,0.0515,1.0067,-0.3052,-0.1221,-0.0610,1,10692,896,506
8238419,219,0.0596,0.0520,1.0079,-0.2441,-0.1221,-0.0610,1,10704,825,507
8249986,220,0.0598,0.0522,1.0085,-0.3052,-0.0610,-0.1221,1,10666,873,508
8261483,221,0.0597,0.0516,1.0076,-0.3052,-0.1221,-0.1221,1,10597,873,510
8273103,222,0.0599,0.0500,1.0068,-0.2441,-0.0610,-0.1221,1,10648,945,511
8284636,223,0.0598,0.0502,1.0079,-0.2441,-0.0610,-0.1221,1,10631,874,512
8296185,224,0.0597,0.0509,1.0081,-0.2441,-0.0610,-0.0610,1,10652,868,514
8307773,225,0.0596,0.0508,1.0078,-0.3052,-0.0610,-0.0610,1,10693,869,515
8319142,226,0.0591,0.0502,1.0084,-0.3052,-0.0610,-0.1831,1,10600,742,516
8330759,227,0.0587,0.0497,1.0088,-0.3052,-0.0610,-0.1831,1,10691,867,518
8342326,228,0.0593,0.0499,1.0084,-0.2441,-0.0610,-0.1221,1,10668,870,519
8353902,229,0.0615,0.0510,1.0078,-0.2441,0.0000,-0.0610,1,10671,878,520
8365330,230,0.0603,0.0500,1.0068,-0.2441,0.0000,-0.0610,0,10598,802,522
8372618,231,0.0603,0.0500,1.0068,-0.2441,0.0000,-0.0610,0,6451,810,522
8375646,232,0.0591,0.0491,1.0063,-0.3052,-0.0610,-0.1831,1,2193,808,522
8387231,233,0.0597,0.0492,1.0072,-0.3052,-0.0610,-0.1831,1,10663,894,523
8398818,234,0.0608,0.0504,1.0081,-0.3052,0.0610,-0.0610,1,10690,871,524
8410407,235,0.0615,0.0509,1.0084,-0.3052,0.0000,-0.0610,1,10672,888,526
8421858,236,0.0608,0.0505,1.0074,-0.3052,0.0000,-0.0610,1,10596,826,527
8433380,237,0.0598,0.0499,1.0062,-0.3052,0.0000,-0.1221,1,10649,847,528
8444959,238,0.0602,0.0505,1.0061,-0.3052,0.0000,-0.1221,1,10696,855,529
8456396,239,0.0599,0.0511,1.0059,-0.3052,-0.0610,-0.0610,1,10599,812,531
8467997,240,0.0594,0.0508,1.0057,-0.2441,0.0000,-0.1221,1,10673,900,532
8479530,241,0.0592,0.0498,1.0061,-0.2441,-0.0610,-0.1221,1,10679,809,533
8491102,242,0.0596,0.0497,1.0071,-0.1831,-0.0610,-0.1221,1,10650,894,535
8502566,243,0.0605,0.0507,1.0076,-0.2441,-0.0610,-0.1221,1,10598,839,536
8514123,244,0.0605,0.0509,1.0070,-0.3052,0.0000,-0.1221,1,10637,893,537
8525637,245,0.0601,0.0503,1.0077,-0.2441,0.0000,-0.1221,1,10665,822,539
8537074,246,0.0596,0.0497,1.0083,-0.2441,-0.0610,-0.1221,1,10608,800,540
8548707,247,0.0602,0.0502,1.0084,-0.3052,0.0000,-0.0610,1,10707,900,541
8560232,248,0.0602,0.0502,1.0084,-0.3052,0.0000,-0.0610,0,10697,800,543
8565221,249,0.0598,0.0507,1.0056,-0.3662,-0.0610,0.0000,1,2205,801,543
8576667,250,0.0592,0.0498,1.0061,-0.2441,-0.0610,-0.0610,1,10603,816,544
8588262,251,0.0598,0.0492,1.0078,-0.2441,-0.0610,-0.1221,1,10719,849,545
8599886,252,0.0596,0.0499,1.0070,-0.2441,-0.0610,-0.1221,1,10705,892,546
8611448,253,0.0588,0.0510,1.0063,-0.1831,0.0610,-0.0610,1,10662,871,548
8623062,254,0.0585,0.0503,1.0088,-0.2441,0.0610,-0.0610,1,10714,872,549
8634668,255,0.0582,0.0497,1.0083,-0.3052,0.0000,-0.0610,1,10681,897,550
8646265,256,0.0586,0.0494,1.0071,-0.2441,-0.1221,-0.1831,1,10719,851,552
8657865,257,0.0594,0.0497,1.0068,-0.1831,-0.1221,-0.1831,1,10700,872,553
8669251,258,0.0605,0.0503,1.0076,-0.1831,-0.1221,-0.1221,1,10604,754,554
8680864,259,0.0607,0.0503,1.0071,-0.2441,-0.1221,-0.1221,1,10690,866,556
8692471,260,0.0596,0.0498,1.0067,-0.2441,-0.1221,-0.1221,1,10717,862,557
8704065,261,0.0598,0.0493,1.0077,-0.2441,-0.1221,-0.1221,1,10665,901,558
8715694,262,0.0596,0.0498,1.0082,-0.2441,-0.1221,-0.1221,1,10729,872,560
8727261,263,0.0594,0.0504,1.0083,-0.3662,-0.0610,-0.1831,1,10640,900,561
8738881,264,0.0594,0.0503,1.0084,-0.3052,-0.0610,-0.1831,1,10713,880,562
8750480,265,0.0597,0.0499,1.0079,-0.3662,-0.0610,-0.1831,1,10671,900,564
8762129,266,0.0596,0.0499,1.0055,-0.3662,-0.0610,-0.1221,1,10744,877,565
8773766,267,0.0593,0.0496,1.0062,-0.3662,-0.0610,-0.0610,1,10707,901,566
8785338,268,0.0598,0.0496,1.0076,-0.3662,0.0000,-0.0610,1,10671,873,568
8796929,269,0.0601,0.0499,1.0081,-0.3662,-0.0610,-0.0610,1,10707,858,569
8808510,270,0.0596,0.0505,1.0076,-0.3052,-0.0610,-0.0610,1,10686,868,570
8820093,271,0.0590,0.0508,1.0077,-0.3052,-0.0610,-0.0610,1,10661,893,571
8831665,272,0.0603,0.0507,1.0074,-0.3662,0.0000,-0.0610,1,10712,834,573
8843200,273,0.0614,0.0499,1.0079,-0.3662,0.0610,-0.1221,1,10601,906,574
8854690,274,0.0605,0.0493,1.0084,-0.3052,0.0610,-0.1221,1,10616,848,575
8866257,275,0.0598,0.0486,1.0082,-0.2441,-0.0610,-0.1221,1,10682,857,577
8877877,276,0.0593,0.0490,1.0081,-0.2441,-0.0610,-0.1221,1,10722,870,578
8889518,277,0.0590,0.0496,1.0082,-0.3052,-0.0610,-0.1221,1,10719,894,579
8901120,278,0.0593,0.0502,1.0066,-0.3662,0.0000,-0.1221,1,10711,863,581
8912692,279,0.0594,0.0507,1.0065,-0.4272,0.0000,-0.1221,1,10693,851,582
8924234,280,0.0591,0.0507,1.0073,-0.4272,0.0000,-0.1831,1,10691,822,583
8935679,281,0.0591,0.0500,1.0084,-0.3052,0.0610,-0.1221,1,10609,810,585
8947275,282,0.0594,0.0491,1.0074,-0.3662,0.0000,-0.1221,1,10706,863,586
8958839,283,0.0593,0.0493,1.0042,-0.3662,-0.0610,-0.1221,1,10710,827,587
8970432,284,0.0597,0.0502,1.0074,-0.3052,-0.0610,-0.1221,1,10664,902,589
8981894,285,0.0601,0.0498,1.0084,-0.2441,-0.0610,-0.1221,1,10599,836,590
8993538,286,0.0604,0.0496,1.0079,-0.3052,-0.1221,-0.1221,1,10665,952,591
9005031,287,0.0603,0.0502,1.0090,-0.3662,0.0000,-0.1831,1,10627,838,592
9016577,288,0.0607,0.0509,1.0096,-0.3662,-0.0610,-0.1831,1,10694,825,594
9028229,289,0.0607,0.0509,1.0088,-0.3662,-0.0610,-0.1221,1,10722,902,595
9039797,290,0.0602,0.0502,1.0079,-0.3662,-0.0610,-0.1221,1,10685,855,596
9051427,291,0.0604,0.0493,1.0099,-0.3052,0.0000,-0.1221,1,10707,894,598
9062988,292,0.0597,0.0488,1.0088,-0.3662,0.0000,-0.1221,1,10694,840,599
9074532,293,0.0582,0.0494,1.0057,-0.4272,0.0000,-0.1221,1,10689,827,600
9085983,294,0.0585,0.0500,1.0061,-0.3662,0.0610,-0.1221,1,10609,814,602
9097546,295,0.0598,0.0504,1.0065,-0.4272,-0.1221,-0.1221,1,10637,899,603
9109165,296,0.0590,0.0508,1.0038,-0.3662,-0.1221,-0.1221,1,10721,870,604
9120711,297,0.0597,0.0503,1.0077,-0.2441,0.0000,-0.1221,1,10663,856,606
9132140,298,0.0596,0.0496,1.0095,-0.2441,0.0000,-0.0610,1,10609,794,607
9143728,299,0.0592,0.0496,1.0071,-0.4272,-0.1221,-0.1221,1,10705,855,608
9155342,300,0.0592,0.0500,1.0050,-0.3052,-0.0610,-0.1831,1,10691,896,610
9166919,301,0.0598,0.0509,1.0062,-0.2441,0.0000,-0.1221,1,10689,859,611
9178483,302,0.0607,0.0503,1.0071,-0.3052,0.0000,-0.1221,1,10707,802,612
9189907,303,0.0598,0.0497,1.0062,-0.3052,-0.0610,-0.0610,1,10602,794,613
9201461,304,0.0596,0.0493,1.0076,-0.3662,0.0000,-0.0610,1,10639,889,615
9212889,305,0.0596,0.0497,1.0074,-0.2441,-0.1221,-0.1221,1,10601,799,616
9224475,306,0.0598,0.0505,1.0067,-0.2441,0.0000,-0.1221,1,10663,895,617
9236015,307,0.0608,0.0507,1.0077,-0.3052,0.0000,-0.1221,1,10711,801,619
9247422,308,0.0607,0.0503,1.0076,-0.3662,-0.0610,-0.0610,1,10602,778,620
9258963,309,0.0593,0.0498,1.0073,-0.3052,-0.0610,-0.0610,1,10629,885,621
9270610,310,0.0593,0.0503,1.0078,-0.3052,-0.0610,-0.0610,1,10746,873,623
9282182,311,0.0594,0.0504,1.0068,-0.4272,-0.0610,-0.1831,1,10658,887,624
9293769,312,0.0596,0.0503,1.0062,-0.3052,-0.0610,-0.1831,1,10710,850,625
9305294,313,0.0593,0.0502,1.0071,-0.2441,-0.0610,-0.1831,1,10600,897,627
9316789,314,0.0597,0.0499,1.0085,-0.2441,-0.0610,-0.0610,1,10623,844,628
9328390,315,0.0598,0.0508,1.0065,-0.2441,-0.1221,-0.0610,1,10682,892,629
9339989,316,0.0594,0.0511,1.0067,-0.1831,-0.0610,-0.0610,1,10674,868,630
9351621,317,0.0597,0.0511,1.0081,-0.1831,0.0000,-0.1221,1,10703,902,632
9363132,318,0.0599,0.0510,1.0090,-0.2441,-0.0610,-0.0610,1,10658,796,633
9374571,319,0.0599,0.0500,1.0089,-0.3052,-0.0610,-0.0610,1,10612,771,634
9386117,320,0.0599,0.0492,1.0077,-0.3662,-0.0610,-0.1221,1,10630,889,636
9397730,321,0.0598,0.0503,1.0066,-0.3662,0.0000,-0.1221,1,10714,872,637
9409237,322,0.0597,0.0504,1.0062,-0.3662,0.0000,-0.0610,1,10654,825,638
9420686,323,0.0588,0.0502,1.0063,-0.3052,-0.0610,-0.0610,1,10621,799,640
9432069,324,0.0587,0.0498,1.0082,-0.2441,-0.0610,-0.1221,1,10601,754,641
9443665,325,0.0597,0.0494,1.0107,-0.3052,0.0000,-0.1221,1,10636,902,642
9455204,326,0.0601,0.0497,1.0095,-0.4272,-0.0610,-0.1221,1,10690,821,643
9466762,327,0.0591,0.0500,1.0035,-0.4272,-0.0610,-0.0610,1,10600,929,645
9478283,328,0.0594,0.0505,1.0065,-0.3052,-0.0610,-0.0610,1,10624,869,646
9489853,329,0.0597,0.0507,1.0098,-0.2441,-0.0610,-0.0610,1,10651,892,647
9501419,330,0.0594,0.0498,1.0104,-0.2441,-0.1221,-0.1831,1,10697,841,649
9513035,331,0.0597,0.0493,1.0088,-0.3052,-0.0610,-0.1831,1,10713,875,650
9524637,332,0.0601,0.0493,1.0082,-0.3662,0.0000,-0.1831,1,10676,899,651
9536194,333,0.0598,0.0497,1.0061,-0.3662,-0.0610,-0.1831,1,10685,844,653
9547835,334,0.0603,0.0499,1.0060,-0.3052,-0.0610,-0.1221,1,10706,908,654
9559460,335,0.0601,0.0500,1.0076,-0.1831,-0.0610,-0.0610,1,10705,891,655
9571053,336,0.0592,0.0502,1.0081,-0.3052,-0.1221,0.0000,1,10701,864,657
9582609,337,0.0587,0.0503,1.0072,-0.3052,-0.0610,0.0610,1,10693,836,658
9594251,338,0.0596,0.0499,1.0070,-0.3052,-0.0610,0.0000,1,10721,865,659
9605808,339,0.0608,0.0505,1.0071,-0.3052,-0.0610,-0.0610,1,10688,841,661
9617401,340,0.0603,0.0508,1.0073,-0.3662,-0.0610,-0.0610,1,10703,862,662
9628808,341,0.0596,0.0504,1.0088,-0.3662,0.0610,-0.0610,1,10594,785,663
9640332,342,0.0596,0.0502,1.0098,-0.4272,0.0000,-0.1221,1,10637,859,665
9651778,343,0.0601,0.0504,1.0081,-0.4272,-0.0610,-0.1221,1,10597,821,666
9663329,344,0.0604,0.0510,1.0052,-0.3662,-0.0610,-0.1221,1,10673,851,667
9674957,345,0.0596,0.0499,1.0071,-0.3052,0.0610,-0.0610,1,10699,872,668
9686583,346,0.0594,0.0500,1.0070,-0.3662,0.0610,-0.0610,1,10710,890,670
9698168,347,0.0597,0.0507,1.0062,-0.4272,0.0000,-0.1221,1,10659,870,671
9709739,348,0.0597,0.0504,1.0067,-0.3662,0.0000,-0.1221,1,10694,850,672
9721327,349,0.0599,0.0498,1.0078,-0.3052,0.0000,-0.1221,1,10705,854,674
9732740,350,0.0604,0.0497,1.0081,-0.3052,0.0000,-0.1221,1,10596,790,675
9744214,351,0.0603,0.0500,1.0070,-0.3662,0.0000,-0.0610,1,10639,807,676
9755677,352,0.0604,0.0502,1.0082,-0.3662,0.0610,0.0000,1,10608,827,678
9767248,353,0.0605,0.0494,1.0082,-0.3052,-0.0610,-0.0610,1,10694,850,679
9778844,354,0.0598,0.0490,1.0062,-0.3052,-0.1221,-0.0610,1,10702,838,680
9790216,355,0.0593,0.0492,1.0056,-0.2441,-0.0610,-0.0610,1,10599,746,681
9801779,356,0.0591,0.0503,1.0061,-0.3052,0.0000,-0.0610,1,10631,874,683
9813201,357,0.0592,0.0509,1.0071,-0.3052,-0.0610,-0.1221,1,10603,792,684
9824759,358,0.0601,0.0493,1.0085,-0.3662,-0.0610,-0.1221,1,10678,852,685
9836356,359,0.0604,0.0487,1.0109,-0.2441,0.0000,-0.1221,1,10701,842,687
9847744,360,0.0602,0.0493,1.0076,-0.3052,0.0000,-0.1221,1,10598,731,688
9859175,361,0.0596,0.0511,1.0016,-0.3052,-0.0610,-0.0610,1,10632,743,689
9870703,362,0.0604,0.0513,1.0057,-0.1831,0.1221,-0.1221,1,10633,868,691
9882318,363,0.0610,0.0498,1.0114,-0.3662,-0.1221,-0.0610,1,10700,888,692
9893925,364,0.0579,0.0505,1.0046,-0.5493,-0.2441,0.0000,1,10706,874,693
9905493,365,0.0599,0.0508,1.0087,-0.4272,0.0000,-0.0610,1,10690,851,695
9917047,366,0.0604,0.0510,1.0093,-0.4272,0.0000,-0.0610,1,10702,824,696
9928460,367,0.0607,0.0511,1.0050,-0.3052,-0.1221,-0.1221,1,10606,779,697
9940025,368,0.0603,0.0503,1.0027,-0.1221,-0.1221,-0.1221,1,10655,882,698
9951491,369,0.0597,0.0492,1.0061,-0.1221,0.0000,-0.0610,1,10605,833,700
9963027,370,0.0601,0.0483,1.0110,-0.3052,0.0000,-0.0610,1,10659,849,701
9974578,371,0.0586,0.0503,1.0034,-0.4272,-0.1831,-0.0610,1,10731,791,702
9986052,372,0.0592,0.0507,1.0043,-0.3662,-0.1221,-0.1221,1,10611,835,704
9997668,373,0.0603,0.0509,1.0078,-0.2441,-0.0610,-0.1221,1,10691,897,705
10009234,374,0.0603,0.0520,1.0067,-0.3052,-0.1221,-0.1221,1,10686,853,706
10020747,375,0.0598,0.0510,1.0044,-0.1831,-0.1221,-0.1221,1,10629,857,708
10032230,376,0.0598,0.0496,1.0061,-0.0610,-0.0610,-0.1221,1,10613,842,709
10043814,377,0.0604,0.0485,1.0118,-0.1221,-0.0610,-0.0610,1,10660,896,710
10055402,378,0.0583,0.0496,1.0050,-0.3662,-0.1831,-0.0610,1,10690,870,712
10067024,379,0.0579,0.0504,1.0040,-0.3662,-0.1831,-0.1221,1,10691,904,713
10078603,380,0.0602,0.0504,1.0082,-0.1831,-0.1221,-0.1221,1,10649,903,714
10090187,381,0.0604,0.0502,1.0087,-0.1831,-0.3052,-0.0610,1,10700,855,715
10101812,382,0.0604,0.0494,1.0065,-0.1831,-0.1831,-0.0610,1,10730,868,717
10113439,383,0.0607,0.0494,1.0101,-0.2441,-0.1831,-0.0610,1,10697,902,718
10125030,384,0.0613,0.0508,1.0120,-0.2441,-0.1221,-0.0610,1,10686,878,719
10136596,385,0.0609,0.0521,1.0084,-0.3052,-0.0610,-0.0610,1,10682,858,721
10148190,386,0.0594,0.0519,1.0050,-0.3052,-0.1221,-0.0610,1,10696,869,722
10159808,387,0.0591,0.0496,1.0071,-0.1831,-0.0610,-0.0610,1,10734,856,723
10171435,388,0.0591,0.0481,1.0100,-0.2441,-0.1221,-0.0610,1,10733,867,725
10183021,389,0.0597,0.0505,1.0078,-0.3052,-0.0610,-0.0610,1,10702,855,726
10194614,390,0.0601,0.0515,1.0068,-0.3052,-0.0610,-0.1221,1,10698,840,727
10206265,391,0.0601,0.0508,1.0074,-0.2441,0.0000,-0.1221,1,10732,891,729
10217775,392,0.0601,0.0494,1.0078,-0.3052,-0.0610,-0.1221,1,10662,820,730
10229236,393,0.0594,0.0496,1.0074,-0.3052,-0.1221,-0.1221,1,10605,829,731
10240771,394,0.0599,0.0500,1.0078,-0.3052,-0.0610,-0.1831,1,10621,886,733
10252414,395,0.0598,0.0510,1.0093,-0.3662,-0.0610,-0.1221,1,10742,874,734
10263969,396,0.0593,0.0503,1.0077,-0.4272,-0.0610,-0.1221,1,10636,892,735
10275602,397,0.0593,0.0494,1.0059,-0.4272,-0.0610,-0.0610,1,10734,871,737
10287174,398,0.0596,0.0496,1.0062,-0.2441,0.0000,-0.0610,1,10649,895,738
10298633,399,0.0597,0.0496,1.0077,-0.2441,-0.1221,-0.0610,1,10602,830,739
10310218,400,0.0585,0.0492,1.0078,-0.2441,-0.1831,-0.1221,1,10670,888,740
10321824,401,0.0593,0.0502,1.0094,-0.2441,-0.0610,-0.1831,1,10675,875,742
10333433,402,0.0593,0.0515,1.0079,-0.3052,-0.0610,-0.1831,1,10689,892,743
10345032,403,0.0596,0.0521,1.0070,-0.3662,0.0000,-0.1221,1,10694,877,744
10356611,404,0.0598,0.0513,1.0076,-0.2441,-0.0610,0.0000,1,10706,846,746
10368204,405,0.0594,0.0503,1.0073,-0.2441,-0.0610,-0.0610,1,10706,830,747
10379844,406,0.0592,0.0496,1.0077,-0.3052,0.0000,-0.1221,1,10751,862,748
10391433,407,0.0585,0.0497,1.0071,-0.3662,0.0000,-0.1221,1,10738,824,750
10402974,408,0.0591,0.0508,1.0057,-0.3662,0.0000,-0.1221,1,10738,775,751
10414593,409,0.0596,0.0514,1.0052,-0.3662,-0.0610,-0.0610,1,10741,852,752
10426049,410,0.0602,0.0508,1.0056,-0.2441,-0.0610,-0.1221,1,10620,778,754
10437572,411,0.0598,0.0494,1.0084,-0.2441,-0.0610,-0.1221,1,10638,857,755
10449227,412,0.0591,0.0488,1.0103,-0.3662,-0.0610,-0.1221,1,10749,878,756
10460780,413,0.0591,0.0499,1.0082,-0.4272,-0.0610,-0.0610,1,10666,859,758
10472287,414,0.0599,0.0496,1.0079,-0.3662,0.0000,-0.0610,1,10607,872,759
10483800,415,0.0604,0.0494,1.0063,-0.3662,-0.0610,-0.0610,1,10637,847,760
10495440,416,0.0603,0.0497,1.0059,-0.3052,-0.0610,-0.1831,1,10709,876,762
10507075,417,0.0603,0.0498,1.0068,-0.3052,0.0000,-0.1221,1,10712,896,763
10518568,418,0.0601,0.0503,1.0090,-0.3052,0.0610,-0.0610,1,10668,798,764
10530022,419,0.0602,0.0499,1.0071,-0.3662,0.0000,0.0000,1,10604,822,765
10541483,420,0.0599,0.0503,1.0049,-0.3662,0.0000,0.0000,0,10626,807,767
10548698,421,0.0599,0.0503,1.0049,-0.3662,0.0000,0.0000,0,6407,781,767
10551724,422,0.0599,0.0504,1.0063,-0.3052,0.0000,-0.0610,1,2219,780,767
10563230,423,0.0601,0.0503,1.0085,-0.2441,0.0000,-0.0610,1,10682,797,768
10574687,424,0.0594,0.0503,1.0093,-0.3662,-0.0610,-0.1221,1,10617,811,769
10586232,425,0.0594,0.0500,1.0082,-0.4272,-0.0610,-0.1221,1,10676,842,771
10597858,426,0.0593,0.0498,1.0059,-0.4272,0.0000,-0.1221,1,10739,860,772
10609448,427,0.0609,0.0499,1.0063,-0.3052,0.0610,-0.1831,1,10732,830,773
10621073,428,0.0596,0.0498,1.0056,-0.3052,-0.0610,-0.1831,1,10734,863,775
10632662,429,0.0586,0.0496,1.0072,-0.3052,-0.1221,-0.1221,1,10714,846,776
10644276,430,0.0597,0.0496,1.0099,-0.2441,-0.1221,-0.0610,1,10731,855,777
10655862,431,0.0599,0.0498,1.0094,-0.3052,-0.0610,-0.0610,1,10690,842,779
10667490,432,0.0593,0.0498,1.0076,-0.3052,0.0000,-0.0610,1,10740,860,780
10679017,433,0.0601,0.0507,1.0063,-0.3052,-0.0610,-0.0610,1,10702,798,781
10690450,434,0.0604,0.0507,1.0077,-0.2441,-0.0610,-0.0610,1,10609,796,783
10702004,435,0.0605,0.0504,1.0083,-0.3052,0.0000,-0.0610,1,10638,888,784
10713566,436,0.0594,0.0504,1.0074,-0.3052,0.0000,-0.0610,1,10738,796,785
10725032,437,0.0593,0.0499,1.0072,-0.3052,-0.0610,-0.0610,1,10615,823,786
10736593,438,0.0593,0.0499,1.0072,-0.3052,-0.0610,-0.0610,0,10687,846,788
10740228,439,0.0593,0.0499,1.0072,-0.3052,-0.0610,-0.0610,0,2219,873,788
10745221,440,0.0593,0.0499,1.0072,-0.3052,-0.0610,-0.0610,0,2195,795,788
10750224,441,0.0593,0.0499,1.0072,-0.3052,-0.0610,-0.0610,0,2193,926,788
10755222,442,0.0593,0.0499,1.0072,-0.3052,-0.0610,-0.0610,0,2200,862,788
10760221,443,0.0588,0.0507,1.0077,-0.3052,0.0000,-0.1831,1,2192,861,788
10771732,444,0.0583,0.0500,1.0076,-0.2441,-0.0610,-0.1221,1,10632,853,789
10783308,445,0.0591,0.0497,1.0081,-0.3052,-0.0610,-0.1221,1,10679,870,790
10794841,446,0.0596,0.0502,1.0074,-0.3052,-0.0610,-0.1221,1,10627,878,791
10806417,447,0.0601,0.0509,1.0066,-0.3052,-0.0610,-0.1221,1,10712,837,793
10817960,448,0.0592,0.0508,1.0071,-0.3052,-0.0610,-0.0610,1,10654,861,794
10829441,449,0.0592,0.0499,1.0068,-0.3662,-0.0610,-0.0610,1,10618,835,795
10841071,450,0.0596,0.0503,1.0073,-0.3662,-0.0610,-0.0610,1,10700,903,797
10852618,451,0.0601,0.0504,1.0074,-0.3052,-0.0610,-0.1831,1,10675,843,798
10864265,452,0.0607,0.0499,1.0073,-0.3052,-0.0610,-0.1831,1,10734,886,799
10875810,453,0.0604,0.0498,1.0067,-0.3052,0.0000,-0.1831,1,10673,844,801
10887427,454,0.0596,0.0510,1.0063,-0.3052,0.0000,-0.1831,1,10741,847,802
10899009,455,0.0601,0.0507,1.0068,-0.3052,0.0000,-0.1831,1,10726,828,803
10910554,456,0.0603,0.0504,1.0067,-0.2441,0.0000,-0.1221,1,10745,773,805
10922208,457,0.0598,0.0496,1.0067,-0.3052,-0.0610,-0.0610,1,10769,830,806
10933747,458,0.0596,0.0492,1.0073,-0.2441,-0.0610,-0.1221,1,10659,852,807
10945391,459,0.0604,0.0497,1.0079,-0.2441,-0.0610,-0.1221,1,10715,901,809
10956821,460,0.0607,0.0502,1.0066,-0.2441,-0.0610,-0.1221,1,10594,778,810
10968356,461,0.0588,0.0505,1.0082,-0.1831,0.0000,-0.1221,1,10624,884,811
10979934,462,0.0590,0.0507,1.0082,-0.1221,0.0000,-0.1221,1,10721,828,812
10991397,463,0.0585,0.0511,1.0065,-0.1221,-0.0610,-0.0610,1,10621,815,814
11002943,464,0.0594,0.0509,1.0078,-0.2441,0.0000,-0.0610,1,10678,840,815
11014560,465,0.0599,0.0507,1.0089,-0.3662,-0.1221,-0.1221,1,10742,848,816
11026103,466,0.0597,0.0508,1.0082,-0.3662,0.0000,-0.1221,1,10643,871,818
11037525,467,0.0601,0.0502,1.0079,-0.3662,0.0000,-0.1221,1,10610,786,819
11049006,468,0.0593,0.0508,1.0067,-0.3662,-0.1221,-0.1221,1,10632,820,820
11060525,469,0.0591,0.0499,1.0022,-0.3052,-0.1221,-0.1221,1,10621,872,822
11072068,470,0.0552,0.0494,0.9788,-0.3662,-1.0376,-0.1221,1,10662,853,823
11083611,471,0.0504,0.0521,0.9849,1.1597,0.4272,-0.3052,1,10642,872,824
11095045,472,0.0624,0.0449,1.0436,1.2817,1.5869,-0.3662,1,10599,779,825
11106552,473,0.0575,0.0575,1.0052,-1.4648,-1.0986,0.0000,1,10608,870,827
11118135,474,0.0529,0.0653,0.9832,-2.1362,-1.9531,0.1221,1,10722,834,828
11129720,475,0.0663,0.0531,1.0206,0.1831,1.0986,-0.2441,1,10622,934,829
11141238,476,0.0669,0.0428,1.0232,-1.4648,-1.2207,0.0610,1,10610,882,831
11152815,477,0.0526,0.0504,0.9761,-1.2207,-1.2207,0.0610,1,10646,904,832
11164352,478,0.0509,0.0531,0.9790,0.9155,1.1597,-0.1831,1,10662,847,833
11176019,479,0.0646,0.0455,1.0377,0.8545,0.7935,-0.1831,1,10736,905,835
11187597,480,0.0564,0.0487,1.0079,-0.6714,-0.8545,-0.0610,1,10671,878,836
11199083,481,0.0563,0.0530,0.9900,-1.0986,-0.7324,-0.0610,1,10632,826,837
11210773,482,0.0603,0.0546,1.0004,0.0610,0.2441,-0.1831,1,10786,878,839
11222405,483,0.0630,0.0522,1.0114,-0.1221,0.0000,-0.1221,1,10715,890,840
11233908,484,0.0605,0.0499,1.0067,-0.3052,-0.3052,-0.0610,1,10678,797,841
11245287,485,0.0569,0.0457,1.0149,0.0000,0.0610,-0.0610,1,10605,747,843
11256836,486,0.0612,0.0464,1.0200,0.0610,0.4272,-0.1221,1,10639,851,844
11268340,487,0.0603,0.0529,1.0046,-0.5493,-0.1221,-0.1221,1,10608,868,845
11279916,488,0.0582,0.0568,0.9930,-0.3052,-0.0610,-0.1221,1,10660,889,846
11291465,489,0.0598,0.0522,1.0016,0.0610,0.1831,-0.1221,1,10680,843,848
11303116,490,0.0610,0.0471,1.0117,-0.0610,-0.1221,-0.0610,1,10732,890,849
11314647,491,0.0581,0.0480,1.0096,-0.2441,-0.1831,-0.1221,1,10659,846,850
11326198,492,0.0591,0.0497,1.0105,-0.2441,0.0000,-0.1221,1,10691,832,852
11337792,493,0.0610,0.0513,1.0101,-0.3662,0.0610,-0.1221,1,10743,795,853
11349195,494,0.0605,0.0519,1.0057,-0.4883,-0.0610,-0.1221,1,10627,750,854
11360741,495,0.0585,0.0505,1.0032,-0.3662,0.0610,-0.1221,1,10630,860,856
11372214,496,0.0591,0.0479,1.0077,-0.3052,0.1831,-0.1221,1,10604,841,857
11383781,497,0.0608,0.0474,1.0125,-0.3662,0.0610,-0.0610,1,10685,854,858
11395348,498,0.0598,0.0510,1.0061,-0.4272,-0.0610,-0.0610,1,10670,841,860
11407029,499,0.0596,0.0520,1.0059,-0.3662,-0.0610,-0.0610,1,10752,901,861
11418577,500,0.0603,0.0515,1.0066,-0.3662,-0.0610,-0.1221,1,10650,872,862
11430093,501,0.0605,0.0503,1.0045,-0.3662,-0.0610,-0.1221,1,10664,825,863
11441742,502,0.0594,0.0492,1.0042,-0.2441,-0.0610,-0.1221,1,10778,843,865
11453285,503,0.0587,0.0492,1.0074,-0.2441,0.0000,-0.0610,1,10662,854,866
11464861,504,0.0593,0.0500,1.0095,-0.3662,-0.0610,-0.0610,1,10716,831,867
11476345,505,0.0596,0.0507,1.0051,-0.4272,-0.1831,-0.0610,1,10648,780,869
11487863,506,0.0605,0.0504,1.0049,-0.3662,-0.0610,-0.0610,1,10626,864,870
11499458,507,0.0610,0.0499,1.0066,-0.3052,-0.1221,-0.1221,1,10694,874,871
11510967,508,0.0602,0.0497,1.0062,-0.3662,-0.0610,-0.0610,1,10669,782,873
11522477,509,0.0593,0.0492,1.0066,-0.3662,0.0000,-0.0610,1,10640,842,874
11533954,510,0.0592,0.0502,1.0079,-0.3662,0.0000,-0.1221,1,10642,808,875
11545561,511,0.0598,0.0500,1.0071,-0.3662,0.0000,-0.1221,1,10721,858,877
11556975,512,0.0599,0.0499,1.0055,-0.4272,-0.0610,-0.1221,1,10626,730,878
11568538,513,0.0594,0.0507,1.0056,-0.3662,0.0000,-0.1831,1,10642,893,879
11580098,514,0.0598,0.0504,1.0087,-0.3052,0.0000,-0.1221,1,10705,827,880
11591585,515,0.0598,0.0497,1.0101,-0.3662,-0.0610,-0.0610,1,10639,820,882
11603157,516,0.0586,0.0497,1.0084,-0.3662,0.0000,-0.0610,1,10669,877,883
11614639,517,0.0601,0.0502,1.0078,-0.3662,0.0000,-0.0610,1,10644,809,884
11626146,518,0.0605,0.0507,1.0056,-0.4272,-0.1221,-0.1221,1,10627,852,886
11637693,519,0.0603,0.0504,1.0061,-0.2441,-0.0610,-0.1221,1,10670,851,887
11649213,520,0.0603,0.0500,1.0076,-0.2441,-0.0610,-0.0610,1,10629,863,888
11660811,521,0.0596,0.0497,1.0087,-0.3052,0.0000,-0.0610,1,10700,870,890
11672384,522,0.0601,0.0507,1.0076,-0.3662,0.0000,-0.0610,1,10672,874,891
11683811,523,0.0602,0.0516,1.0057,-0.4272,-0.0610,-0.0610,1,10607,792,892
11695336,524,0.0603,0.0510,1.0065,-0.3052,0.0000,-0.1221,1,10672,825,894
11706938,525,0.0593,0.0507,1.0059,-0.3052,-0.1221,-0.1831,1,10724,850,895
11718374,526,0.0583,0.0507,1.0062,-0.2441,-0.0610,-0.1831,1,10608,783,896
11729929,527,0.0592,0.0497,1.0079,-0.2441,-0.0610,-0.1221,1,10630,896,897
11741520,528,0.0590,0.0493,1.0072,-0.3052,-0.1221,-0.0610,1,10696,867,899
11753113,529,0.0599,0.0493,1.0071,-0.3052,0.0610,-0.0610,1,10669,898,900
11764617,530,0.0596,0.0498,1.0056,-0.3052,-0.0610,-0.0610,1,10607,869,901
11776173,531,0.0590,0.0503,1.0067,-0.3052,-0.0610,-0.1221,1,10669,860,903
11787698,532,0.0598,0.0499,1.0089,-0.3662,-0.1221,-0.1221,1,10631,865,904
11799129,533,0.0592,0.0497,1.0074,-0.4272,-0.1221,-0.0610,1,10597,790,905
11810602,534,0.0590,0.0497,1.0062,-0.3662,-0.0610,-0.1221,1,10628,787,907
11822085,535,0.0592,0.0498,1.0066,-0.3052,-0.1221,-0.1831,1,10610,845,908
11833628,536,0.0598,0.0497,1.0070,-0.3662,-0.1221,-0.2441,1,10661,855,909
11845252,537,0.0603,0.0502,1.0071,-0.3662,-0.0610,-0.2441,1,10720,875,911
11856638,538,0.0601,0.0508,1.0076,-0.3052,0.0000,-0.1221,1,10611,748,912
11868187,539,0.0610,0.0503,1.0094,-0.2441,0.0610,-0.1221,1,10616,876,913
11879690,540,0.0607,0.0494,1.0094,-0.2441,-0.0610,-0.0610,1,10607,868,914
11891252,541,0.0592,0.0498,1.0062,-0.3052,-0.1221,-0.0610,1,10674,861,916
11902812,542,0.0601,0.0509,1.0070,-0.3662,-0.0610,-0.1221,1,10688,845,917
11914374,543,0.0598,0.0511,1.0074,-0.3662,-0.0610,-0.0610,1,10657,877,918
11926006,544,0.0592,0.0504,1.0074,-0.3052,0.0000,-0.0610,1,10680,906,920
11937569,545,0.0593,0.0497,1.0071,-0.3052,-0.0610,-0.0610,1,10699,837,921
11949181,546,0.0601,0.0492,1.0076,-0.2441,-0.0610,-0.0610,1,10719,864,922
11960601,547,0.0602,0.0493,1.0071,-0.1831,-0.1221,-0.0610,1,10595,781,924
11972069,548,0.0594,0.0499,1.0067,-0.1831,-0.1831,-0.1221,1,10629,781,925
11983558,549,0.0594,0.0507,1.0072,-0.2441,-0.1831,-0.1221,1,10608,853,926
11995097,550,0.0602,0.0508,1.0084,-0.2441,-0.0610,-0.1221,1,10654,857,927
12006691,551,0.0603,0.0505,1.0089,-0.2441,-0.0610,-0.1221,1,10655,866,929
12018135,552,0.0603,0.0505,1.0089,-0.2441,-0.0610,-0.1221,0,10602,767,930
12021122,553,0.0603,0.0505,1.0089,-0.2441,-0.1221,-0.1221,0,2208,751,930
12028513,554,0.0593,0.0498,1.0060,-0.1831,-0.0610,-0.1221,1,6444,890,930
12040088,555,0.0598,0.0497,1.0087,-0.1831,0.0000,-0.0610,1,10672,876,931
12051592,556,0.0598,0.0498,1.0078,-0.1831,-0.0610,-0.0610,1,10640,838,933
12063241,557,0.0601,0.0508,1.0073,-0.1831,-0.1221,-0.1221,1,10714,907,934
12074803,558,0.0603,0.0514,1.0083,-0.1831,-0.1221,-0.1831,1,10659,875,935
12086424,559,0.0597,0.0508,1.0092,-0.2441,-0.0610,-0.1831,1,10717,876,937
12098015,560,0.0588,0.0492,1.0099,-0.2441,-0.0610,-0.1221,1,10711,852,938
12109613,561,0.0591,0.0492,1.0083,-0.2441,-0.0610,-0.1221,1,10699,872,939
12121041,562,0.0601,0.0503,1.0062,-0.2441,-0.0610,-0.1221,1,10600,784,941
12132513,563,0.0608,0.0508,1.0056,-0.1831,-0.0610,-0.0610,1,10627,788,942
12144006,564,0.0610,0.0505,1.0073,-0.1831,0.0000,-0.0610,1,10624,840,943
12155517,565,0.0604,0.0497,1.0079,-0.3052,-0.0610,-0.0610,1,10645,839,945
12167150,566,0.0596,0.0492,1.0073,-0.3052,-0.0610,-0.1221,1,10708,898,946
12178544,567,0.0592,0.0496,1.0095,-0.2441,0.0000,-0.1221,1,10621,744,947
12190091,568,0.0587,0.0497,1.0085,-0.3052,-0.0610,-0.1831,1,10633,858,948
12201680,569,0.0586,0.0496,1.0050,-0.3662,-0.1221,-0.1221,1,10715,846,950
12213287,570,0.0592,0.0500,1.0050,-0.3662,-0.1221,-0.1221,1,10712,866,951
12224794,571,0.0596,0.0504,1.0078,-0.2441,0.0000,-0.0610,1,10609,871,952
12236333,572,0.0604,0.0499,1.0096,-0.2441,0.0000,-0.0610,1,10664,848,954
12247815,573,0.0604,0.0487,1.0084,-0.3662,-0.0610,-0.0610,1,10620,833,955
12259284,574,0.0599,0.0499,1.0059,-0.3662,-0.0610,-0.1221,1,10634,808,956
12270756,575,0.0604,0.0511,1.0061,-0.3052,-0.0610,-0.1221,1,10619,795,958
12282232,576,0.0603,0.0513,1.0065,-0.2441,-0.1221,-0.1221,1,10607,842,959
12293758,577,0.0605,0.0505,1.0072,-0.1831,-0.1221,-0.1221,1,10647,851,960
12305356,578,0.0603,0.0492,1.0088,-0.1831,-0.0610,-0.1221,1,10699,873,962
12316757,579,0.0599,0.0488,1.0099,-0.2441,-0.0610,-0.1221,1,10626,747,963
12328294,580,0.0602,0.0505,1.0059,-0.3662,-0.0610,-0.1221,1,10647,863,964
12339797,581,0.0604,0.0508,1.0056,-0.3662,-0.0610,-0.1221,0,10607,868,965
12347037,582,0.0604,0.0508,1.0056,-0.3662,-0.0610,-0.1221,0,6444,770,966
12350229,583,0.0599,0.0504,1.0071,-0.3052,-0.0610,-0.0610,1,2191,792,966
12361854,584,0.0592,0.0497,1.0092,-0.3052,-0.0610,-0.0610,1,10702,894,967
12373445,585,0.0594,0.0494,1.0085,-0.3662,-0.1221,0.0000,1,10685,878,968
12385014,586,0.0597,0.0499,1.0071,-0.3052,0.0000,0.0000,1,10663,861,969
12396409,587,0.0601,0.0496,1.0074,-0.3052,0.0000,-0.0610,1,10629,739,971
12407951,588,0.0590,0.0492,1.0066,-0.3662,-0.1831,-0.0610,1,10628,886,972
12419532,589,0.0596,0.0494,1.0084,-0.3052,-0.1221,-0.1221,1,10707,846,973
12431141,590,0.0598,0.0499,1.0087,-0.3662,0.0000,-0.1221,1,10684,897,975
12442703,591,0.0592,0.0499,1.0073,-0.4272,0.0000,-0.1831,1,10705,828,976
12454335,592,0.0597,0.0496,1.0061,-0.3662,0.0000,-0.1221,1,10714,892,977
12465889,593,0.0594,0.0497,1.0051,-0.3052,-0.0610,-0.1221,1,10699,829,979
12477383,594,0.0591,0.0497,1.0082,-0.2441,0.0000,-0.0610,1,10607,859,980
12488893,595,0.0591,0.0492,1.0083,-0.2441,-0.0610,-0.1221,1,10658,825,981
12500286,596,0.0591,0.0483,1.0072,-0.3052,-0.0610,-0.0610,1,10619,747,983
12511859,597,0.0596,0.0488,1.0065,-0.3662,0.0000,-0.0610,1,10628,887,984
12523367,598,0.0598,0.0504,1.0048,-0.3662,-0.0610,-0.1221,1,10682,799,985
12534944,599,0.0602,0.0510,1.0044,-0.3052,0.0000,-0.1831,1,10658,890,986
12546388,600,0.0601,0.0500,1.0067,-0.3052,0.0610,-0.1831,1,10622,795,988
12557882,601,0.0605,0.0493,1.0090,-0.4272,0.0610,-0.1831,1,10619,847,989
12569461,602,0.0605,0.0500,1.0073,-0.4272,0.0000,-0.0610,1,10675,877,990
12580942,603,0.0594,0.0507,1.0063,-0.3662,0.0000,-0.0610,1,10656,797,992
12592516,604,0.0593,0.0509,1.0068,-0.3662,-0.0610,-0.0610,1,10678,869,993
12604031,605,0.0594,0.0513,1.0068,-0.3662,-0.1221,-0.0610,1,10610,877,994
12615610,606,0.0592,0.0511,1.0063,-0.3662,-0.0610,-0.0610,1,10632,892,996
12627145,607,0.0597,0.0494,1.0085,-0.3662,0.0610,-0.1221,1,10658,850,997
12638729,608,0.0597,0.0493,1.0083,-0.4272,0.0610,-0.0610,1,10653,885,998
12650286,609,0.0592,0.0498,1.0074,-0.4883,0.0610,-0.0610,1,10654,875,1000
12661796,610,0.0588,0.0508,1.0067,-0.5493,0.0000,-0.1221,1,10626,857,1001
12673329,611,0.0593,0.0513,1.0074,-0.4883,0.0610,-0.1221,1,10676,829,1002
12684903,612,0.0601,0.0507,1.0083,-0.4883,0.0610,-0.0610,1,10694,852,1003
12696440,613,0.0588,0.0498,1.0076,-0.4883,0.0000,-0.0610,1,10617,892,1005
12707989,614,0.0590,0.0507,1.0076,-0.4272,0.0610,-0.0610,1,10694,828,1006
12719531,615,0.0593,0.0509,1.0078,-0.4272,0.0610,-0.0610,1,10620,894,1007
12731083,616,0.0594,0.0510,1.0049,-0.5493,0.0000,-0.1221,1,10649,876,1009
12742665,617,0.0592,0.0520,0.9982,-0.4883,-0.0610,-0.1221,1,10706,847,1010
12754224,618,0.0599,0.0527,1.0011,-0.1831,0.1831,-0.1221,1,10661,871,1011
12765785,619,0.0612,0.0502,1.0123,-0.2441,0.0610,-0.1221,1,10675,858,1013
12777383,620,0.0582,0.0502,1.0051,-0.4883,-0.3052,-0.1221,1,10699,872,1014
12788968,621,0.0599,0.0505,1.0081,-0.3662,-0.0610,-0.1221,1,10706,851,1015
12800611,622,0.0615,0.0511,1.0099,-0.4272,-0.1221,-0.1221,1,10714,901,1017
12812175,623,0.0587,0.0518,1.0028,-0.4272,-0.1831,-0.1831,1,10682,856,1018
12823794,624,0.0583,0.0502,0.9996,-0.2441,0.0000,-0.1221,1,10710,882,1019
12835160,625,0.0587,0.0485,1.0107,-0.1221,-0.1221,-0.0610,1,10631,707,1020
12846744,626,0.0597,0.0492,1.0120,-0.1831,-0.0610,-0.0610,1,10630,898,1022
12858352,627,0.0592,0.0507,1.0085,-0.3052,0.0000,-0.0610,1,10707,874,1023
12869952,628,0.0583,0.0511,1.0056,-0.3052,0.0610,-0.0610,1,10682,890,1024
12881533,629,0.0608,0.0507,1.0065,-0.3052,0.0000,-0.0610,1,10686,866,1026
12893046,630,0.0607,0.0505,1.0057,-0.3662,-0.1831,-0.0610,1,10680,806,1027
12904584,631,0.0597,0.0503,1.0077,-0.2441,-0.1221,-0.1221,1,10634,877,1028
12916181,632,0.0607,0.0487,1.0131,-0.1221,0.0000,-0.1221,1,10712,857,1030
12927655,633,0.0598,0.0485,1.0110,-0.2441,-0.0610,-0.0610,1,10653,794,1031
12939172,634,0.0597,0.0500,1.0050,-0.4272,0.0000,-0.0610,1,10613,875,1032
12950637,635,0.0607,0.0510,1.0035,-0.2441,0.0610,-0.0610,1,10612,826,1034
12962218,636,0.0608,0.0505,1.0065,-0.2441,0.0000,-0.0610,1,10708,845,1035
12973850,637,0.0590,0.0490,1.0095,-0.2441,-0.0610,-0.1221,1,10708,896,1036
12985435,638,0.0593,0.0499,1.0082,-0.2441,-0.0610,-0.1221,0,10690,867,1038
12992773,639,0.0593,0.0499,1.0082,-0.2441,-0.0610,-0.1221,0,6455,857,1038
12995916,640,0.0601,0.0515,1.0083,-0.3662,0.0000,0.0000,1,2214,902,1038
13007362,641,0.0612,0.0526,1.0074,-0.3662,-0.0610,-0.0610,1,10664,755,1039
13018914,642,0.0607,0.0525,1.0051,-0.2441,-0.0610,-0.1221,1,10622,902,1040
13030509,643,0.0603,0.0507,1.0065,-0.1221,0.0610,-0.0610,1,10666,900,1042
13041960,644,0.0610,0.0494,1.0098,-0.1831,0.0000,0.0000,1,10661,763,1043
13053457,645,0.0594,0.0510,1.0068,-0.3052,-0.0610,-0.0610,1,10637,802,1044
13064952,646,0.0590,0.0514,1.0056,-0.3052,-0.0610,-0.0610,0,10624,843,1045
13072258,647,0.0590,0.0514,1.0056,-0.3052,-0.0610,-0.0610,0,6428,850,1046
13075290,648,0.0590,0.0513,1.0074,-0.3662,-0.0610,-0.0610,1,2190,785,1046
13086839,649,0.0597,0.0508,1.0090,-0.3052,0.0000,-0.0610,1,10620,901,1047
13098372,650,0.0594,0.0503,1.0076,-0.3052,-0.1221,-0.0610,1,10686,821,1048
13109890,651,0.0588,0.0499,1.0076,-0.3052,0.0000,-0.0610,1,10634,856,1049
13121404,652,0.0601,0.0499,1.0094,-0.3052,0.0610,-0.0610,1,10658,828,1051
13132973,653,0.0602,0.0502,1.0052,-0.3052,0.0000,-0.0610,1,10694,847,1052
13144552,654,0.0602,0.0498,1.0061,-0.2441,0.0000,-0.0610,1,10704,846,1053
13156013,655,0.0598,0.0498,1.0077,-0.2441,-0.0610,-0.1221,1,10621,813,1055
13167530,656,0.0591,0.0500,1.0079,-0.2441,-0.0610,-0.1221,1,10615,875,1056
13179132,657,0.0585,0.0509,1.0068,-0.3052,-0.0610,-0.1221,1,10705,869,1057
13190750,658,0.0586,0.0513,1.0062,-0.3052,0.0000,-0.1221,1,10694,896,1059
13202293,659,0.0605,0.0513,1.0079,-0.3052,0.0000,-0.0610,1,10692,824,1060
13213824,660,0.0605,0.0513,1.0068,-0.3662,-0.0610,-0.0610,1,10651,852,1061
13225412,661,0.0607,0.0508,1.0077,-0.3052,-0.1221,-0.1221,1,10685,874,1063
13237002,662,0.0603,0.0502,1.0088,-0.3052,-0.0610,-0.0610,1,10714,850,1064
13248556,663,0.0597,0.0502,1.0074,-0.2441,-0.0610,-0.0610,1,10634,864,1065
13260102,664,0.0594,0.0502,1.0065,-0.2441,-0.1221,-0.1221,1,10665,854,1066
13271693,665,0.0598,0.0494,1.0078,-0.2441,-0.0610,-0.1221,1,10694,870,1068
13283246,666,0.0601,0.0498,1.0076,-0.3052,0.0000,-0.1221,1,10622,904,1069
13294795,667,0.0593,0.0507,1.0062,-0.3052,-0.0610,-0.0610,1,10674,847,1070
13306332,668,0.0586,0.0507,1.0062,-0.2441,-0.1221,-0.0610,1,10688,792,1072
13317895,669,0.0593,0.0500,1.0076,-0.2441,-0.1221,-0.1221,1,10638,898,1073
13329489,670,0.0598,0.0503,1.0072,-0.3052,-0.1221,-0.1221,1,10693,874,1074
13341096,671,0.0598,0.0508,1.0065,-0.3052,-0.0610,-0.1221,1,10670,909,1076
13352647,672,0.0598,0.0509,1.0076,-0.2441,0.0000,-0.1221,1,10687,836,1077
13364150,673,0.0623,0.0521,1.0072,-0.1831,0.0000,-0.1221,1,10629,846,1078
13375626,674,0.0638,0.0535,1.0012,0.1831,-0.1221,0.0610,1,10646,802,1080
13387143,675,0.0590,0.0503,1.0007,2.1362,-0.7935,0.4272,1,10617,873,1081
13398674,676,0.0568,0.0466,1.0092,1.6479,-0.5493,0.3052,1,10608,895,1082
13410203,677,0.0602,0.0486,1.0101,1.0376,-0.6714,0.2441,1,10626,875,1083
13421809,678,0.0597,0.0532,0.9979,1.7090,-1.0376,0.2441,1,10679,899,1085
13433403,679,0.0582,0.0498,1.0043,3.4180,-1.2817,0.1221,1,10686,880,1086
13444999,680,0.0571,0.0460,1.0142,4.3945,-1.4648,0.0000,1,10690,879,1087
13456554,681,0.0560,0.0436,1.0172,1.8311,-1.0376,-0.0610,1,10690,838,1089
13468098,682,0.0559,0.0442,1.0133,0.4883,-0.5493,-0.0610,1,10625,890,1090
13479661,683,0.0564,0.0465,1.0089,0.1831,-0.1831,-0.1221,1,10656,880,1091
13491181,684,0.0583,0.0439,1.0094,0.1831,-0.0610,-0.1221,1,10632,861,1093
13502807,685,0.0591,0.0432,1.0066,0.0000,-0.0610,0.0000,1,10676,875,1094
13514176,686,0.0580,0.0457,1.0051,-0.2441,-0.1831,0.1831,1,10630,681,1095
13525710,687,0.0524,0.0441,1.0095,-1.1597,-0.3662,0.1831,1,10627,880,1097
13537277,688,0.0433,0.0398,1.0031,-7.3242,-3.1738,-0.9766,1,10672,868,1098
13548914,689,0.0327,0.0581,0.9800,-18.3716,-14.7705,-4.7607,1,10671,938,1099
13560536,690,0.0612,0.0648,1.0397,-26.5503,-30.3345,-9.2163,1,10679,916,1101
13572136,691,0.0542,0.0729,1.0522,-28.0151,-35.4614,-10.3149,1,10640,933,1102
13583744,692,-0.0063,0.1342,1.0068,-24.2310,-27.8320,-9.9487,1,10649,932,1103
13595257,693,-0.0886,0.2321,0.9684,-7.0801,-12.7563,-37.3535,1,10617,868,1105
13606827,694,-0.1426,0.3291,0.9792,-3.9673,-11.1084,-70.9229,1,10604,938,1106
13618410,695,-0.1075,0.3551,1.0027,-7.4463,-6.7749,-102.0508,1,10652,902,1107
13629978,696,0.2729,-0.1447,0.9758,-6.8359,4.5166,-107.8491,1,10636,905,1108
13641708,697,0.2892,-0.3860,1.0334,4.8828,17.8833,-73.8525,1,10675,1000,1110
13653293,698,0.1370,-0.1498,1.0913,14.0381,23.1323,-33.2642,1,10670,888,1111
13664932,699,0.0695,0.1794,1.0356,3.6621,15.1367,-36.3770,1,10659,951,1112
13676554,700,0.0431,0.2841,0.9777,2.6245,20.1416,-51.0864,1,10664,931,1114
13688040,701,0.0482,0.2074,0.9778,7.4463,31.9214,-63.7207,1,10602,826,1115
13699585,702,0.0835,0.1154,1.0980,7.7515,42.6636,-72.8760,1,10604,914,1116
13711182,703,0.0781,0.1996,1.1118,-4.0894,47.2412,-77.5757,1,10670,900,1118
13722748,704,0.0787,0.2806,1.1007,-24.8413,46.6919,-79.2236,1,10650,888,1119
13734311,705,0.0641,0.2513,1.1324,-86.1816,46.3257,-91.5527,1,10602,888,1120
13745928,706,0.0529,0.1494,1.2041,-134.4604,49.8657,-108.0933,1,10645,943,1122
13757676,707,0.1331,0.1226,1.2555,-194.8242,56.2744,-122.2534,1,10719,1003,1123
13769337,708,0.5691,0.1995,1.2244,-270.5078,71.8384,-113.8306,1,10667,966,1124
13780904,709,0.5077,0.2611,1.1558,-360.4126,98.6328,-72.9980,1,10620,918,1126
13792502,710,0.3466,0.3555,1.0066,-423.7671,118.2251,-20.3857,1,10633,938,1127
13804080,711,0.2407,0.3518,0.7858,-359.8633,67.8101,44.8608,1,10622,930,1128
13815697,712,0.1438,0.2178,0.5848,-289.1846,31.8603,51.8188,1,10655,935,1130
13827284,713,0.0746,0.1222,0.4664,-230.4687,17.8833,40.4663,1,10631,928,1131
13838873,714,0.0682,0.2689,0.6505,-187.5000,21.6675,20.9351,1,10653,909,1132
13850474,715,0.0458,0.3827,0.9628,-166.5649,28.9307,8.9111,1,10643,930,1134
13862049,716,0.0924,0.4879,1.2179,-176.1474,28.1982,9.5825,1,10651,895,1135
13873683,717,0.1753,0.5624,1.2164,-237.1216,-18.3716,35.8887,1,10654,953,1136
13885265,718,0.1448,0.5978,0.9819,-226.8677,-53.8330,41.7480,1,10680,844,1138
13896899,719,0.0045,0.5898,0.6809,-178.3447,-70.8008,27.9541,1,10644,963,1139
13908492,720,-0.1544,0.3827,0.4546,-119.1406,-60.3027,-0.9155,1,10656,909,1140
13920063,721,0.0221,0.4426,0.5155,-75.0732,-37.5366,-32.8979,1,10625,917,1141
13931641,722,0.3188,0.6171,0.5923,-51.9409,-18.5547,-50.8423,1,10655,897,1143
13943206,723,0.4902,0.7430,0.6874,-20.7520,-5.7373,0.9155,1,10659,848,1144
13954819,724,0.4094,0.7756,0.8093,-21.2402,-8.0566,33.9355,1,10712,875,1145
13966392,725,0.2338,0.9812,0.9305,-40.6494,-9.3994,37.9028,1,10691,854,1147
13977978,726,0.0891,0.7589,0.2795,-29.3579,-29.1748,21.2402,1,10613,945,1148
13989686,727,0.1907,0.5398,0.1147,26.7944,-55.1147,6.8970,1,10717,964,1149
14001266,728,0.2001,0.6066,0.2443,95.3369,-56.7627,-0.1221,1,10674,848,1151
14012833,729,0.1805,0.6613,0.5867,186.1572,-35.8887,5.3101,1,10631,908,1152
14024450,730,0.1353,0.5953,0.8995,170.4101,-31.6162,9.8267,1,10674,916,1153
14036073,731,0.1122,0.5386,1.0698,125.6103,-34.3018,8.4839,1,10647,949,1155
14047697,732,0.1664,0.6294,0.9579,81.4819,-38.2080,7.0190,1,10667,930,1156
14059244,733,0.1478,0.6378,0.8190,56.7017,-37.4756,10.0708,1,10618,901,1157
14070823,734,0.1146,0.5951,0.7151,51.5747,-32.4097,13.9160,1,10653,898,1159
14082380,735,0.0869,0.5632,0.6842,69.7632,-24.9634,12.8174,1,10649,851,1160
14094019,736,0.0543,0.5850,0.7178,82.6416,-26.6113,7.6294,1,10705,906,1161
14105618,737,0.0444,0.6166,0.7588,97.2290,-29.4189,0.1831,1,10661,911,1163
14117210,738,0.0348,0.5220,0.9108,107.1167,-27.1606,-5.0659,1,10673,893,1164
14128767,739,-0.0027,0.4562,1.0142,99.4873,-17.2729,-8.5449,1,10659,840,1165
14140308,740,0.0234,0.4603,0.9999,72.1436,-6.1646,-15.6250,1,10602,911,1167
14151927,741,0.1019,0.5016,0.8992,30.0903,-7.4463,-27.3437,1,10662,929,1168
14163471,742,0.1410,0.5083,0.8535,28.6255,-10.0098,-22.1558,1,10629,887,1169
14174969,743,0.1157,0.4882,0.8972,24.8413,-7.8735,-17.0288,1,10593,876,1170
14186588,744,0.0774,0.4941,0.9634,12.6343,-2.9297,-16.6626,1,10671,893,1172
14198206,745,0.0760,0.5270,0.9303,-3.1128,2.8687,-19.5312,1,10651,922,1173
14209837,746,0.0745,0.5449,0.8862,-15.0146,7.2021,-24.1699,1,10659,945,1174
14221370,747,0.0806,0.5402,0.8630,-27.5879,11.8408,-32.8369,1,10627,878,1176
14233024,748,0.1069,0.5238,0.8660,-35.0952,13.3667,-32.7759,1,10700,927,1177
14244639,749,0.1460,0.5076,0.8768,-42.2974,12.8784,-28.8086,1,10633,955,1178
14256210,750,0.1323,0.5732,0.9277,-48.5229,12.5122,-23.7427,1,10634,910,1180
14267799,751,0.0995,0.6119,0.9585,-60.1807,16.8457,-21.8506,1,10612,949,1181
14279409,752,0.0824,0.6320,0.9446,-80.7495,25.7568,-24.9023,1,10658,923,1182
14291007,753,0.1132,0.6298,0.8911,-121.0937,38.1470,-36.9873,1,10638,933,1184
14302631,754,0.2633,0.5863,0.7529,-120.2393,34.4238,-33.1421,1,10662,935,1185
14314248,755,0.4377,0.5587,0.5653,-88.2568,18.6157,-18.4326,1,10635,954,1186
14325820,756,0.1589,0.6682,0.7148,-46.6919,4.2725,-2.4414,1,10636,907,1188
14337403,757,0.1128,0.6305,0.8458,-30.4565,5.6763,2.9297,1,10616,922,1189
14348968,758,0.1711,0.6033,0.8221,-41.8701,17.3950,-1.7700,1,10607,930,1190
14360563,759,0.2047,0.6172,0.7418,-45.5322,26.5503,-13.3057,1,10671,896,1192
14372237,760,0.2062,0.6497,0.7168,-39.6118,31.6162,-16.9067,1,10707,939,1193
14383772,761,0.1968,0.6941,0.7391,-47.4853,43.6401,-21.4844,1,10630,877,1194
14395415,762,0.2404,0.7494,0.8016,-62.5000,55.9692,-25.6348,1,10677,910,1196
14406986,763,0.2834,0.7415,0.8239,-79.6509,64.0869,-25.9399,1,10624,918,1197
14418599,764,0.3280,0.7496,0.8235,-86.9751,61.5234,-21.9727,1,10642,899,1198
14430247,765,0.3773,0.7904,0.7991,-57.0679,44.9219,-21.1182,1,10654,965,1200
14441849,766,0.4011,0.8530,0.7665,-12.9395,20.5078,-16.4795,1,10639,935,1201
14453434,767,0.3936,0.9005,0.7330,26.3672,-4.0283,-4.6997,1,10631,926,1202
14465020,768,0.3160,0.8600,0.6980,46.0205,-22.4609,12.9395,1,10626,905,1203
14476601,769,0.2666,0.8154,0.6722,48.8281,-33.9355,29.4800,1,10637,917,1205
14488242,770,0.2428,0.7775,0.6571,55.7251,-43.8232,40.7715,1,10627,968,1206
14499868,771,0.2271,0.7522,0.6630,57.9224,-40.8325,40.5273,1,10636,963,1207
14511474,772,0.2288,0.7256,0.6691,63.3545,-36.8652,41.2598,1,10641,937,1209
14523059,773,0.2428,0.6808,0.6750,72.4487,-34.4238,44.7998,1,10630,927,1210
14534642,774,0.2072,0.5916,0.6895,77.2705,-32.3486,48.6450,1,10626,901,1211
14546256,775,0.1864,0.5709,0.6995,73.9136,-28.5034,48.0347,1,10633,935,1213
14557835,776,0.1832,0.5795,0.6929,64.8193,-14.0991,35.5835,1,10649,902,1214
14569421,777,0.1833,0.5922,0.6903,67.6880,-8.2397,32.1045,1,10650,909,1215
14581019,778,0.1779,0.5967,0.7010,66.0400,-3.4790,31.7383,1,10670,881,1217
14592563,779,0.1716,0.5873,0.6978,62.1948,-1.0986,30.8228,1,10627,889,1218
14604191,780,0.1584,0.5242,0.7242,62.1948,-1.6479,26.4893,1,10681,919,1219
14615864,781,0.1659,0.5392,0.7660,60.7910,-1.8311,20.5688,1,10692,953,1221
14627453,782,0.1721,0.6248,0.7568,56.5796,1.7700,22.8882,1,10648,914,1222
14639026,783,0.1786,0.6930,0.7166,67.5049,6.9580,34.4238,1,10642,902,1223
14650635,784,0.1786,0.6930,0.7166,67.5049,6.9580,34.4238,0,10704,878,1225
14655225,785,0.1569,0.5677,0.7092,82.3975,13.1836,45.8984,1,2213,905,1225
14666801,786,0.1292,0.4827,0.7174,94.6045,19.3481,50.2930,1,10635,912,1226
14678379,787,0.1119,0.4235,0.7368,101.1963,35.3394,36.8652,1,10641,910,1227
14690029,788,0.1023,0.3887,0.7633,98.0835,43.9453,26.5503,1,10643,933,1228
14701573,789,0.0695,0.3695,0.7593,86.9141,57.6172,16.3574,1,10630,885,1230
14713230,790,0.0293,0.4044,0.6411,70.7397,80.0171,5.3101,1,10700,929,1231
14724772,791,0.0796,0.4720,0.6791,60.9741,104.7363,-3.6621,1,10609,878,1232
14736381,792,0.1576,0.5089,0.7839,59.6924,123.5962,-5.3101,1,10630,950,1234
14748004,793,0.2291,0.4950,0.8695,51.8799,132.8125,13.5498,1,10644,933,1235
14759632,794,0.2584,0.4630,0.9001,51.4526,124.3896,22.7661,1,10657,942,1236
14771230,795,0.2610,0.4155,0.8766,62.7441,111.8164,23.8647,1,10622,903,1238
14782801,796,0.1956,0.3088,0.8079,81.2378,98.3276,17.5171,1,10627,916,1239
14794359,797,0.1649,0.2593,0.8009,91.6138,87.4023,6.8970,1,10622,908,1240
14805981,798,0.1707,0.2550,0.8038,61.9507,83.8623,-18.2495,1,10628,920,1242
14817603,799,0.2061,0.3042,0.8253,43.0298,86.3037,-27.1606,1,10638,909,1243
14829163,800,0.2590,0.3650,0.8534,31.7383,86.2427,-28.6865,1,10630,902,1244
14840727,801,0.3114,0.3901,0.8749,25.5127,83.1909,-22.1558,1,10616,921,1246
14852347,802,0.3325,0.2980,0.8749,21.0571,77.7588,-12.5122,1,10656,936,1247
14863924,803,0.3031,0.2567,0.8311,15.6860,70.0684,-7.7515,1,10633,916,1248
14875519,804,0.2839,0.2485,0.7853,16.4185,53.1616,-24.4141,1,10629,939,1250
14887118,805,0.3013,0.2504,0.7816,24.5361,50.4150,-36.6211,1,10657,915,1251
14898712,806,0.3473,0.2501,0.8062,27.2217,52.0019,-44.1284,1,10640,925,1252
14910346,807,0.3903,0.2489,0.8330,21.7285,53.7109,-46.8140,1,10645,943,1254
14921938,808,0.4172,0.2927,0.8442,8.9722,52.4292,-46.3867,1,10626,911,1255
14933543,809,0.4270,0.3214,0.8209,-4.6997,48.2788,-44.1894,1,10625,936,1256
14945141,810,0.4482,0.3333,0.7924,-14.1602,39.4287,-42.9077,1,10642,928,1257
14956757,811,0.4651,0.3112,0.7634,-9.5215,37.1094,-46.2036,1,10628,913,1259
14968320,812,0.4696,0.2699,0.7561,-7.9956,37.1094,-51.5747,1,10626,910,1260
14979888,813,0.4827,0.2535,0.7788,-14.9536,38.8794,-56.7017,1,10610,930,1261
14991530,814,0.5455,0.2695,0.8069,-25.6958,40.7104,-59.5703,1,10650,963,1263
15003121,815,0.5912,0.2637,0.8064,-29.8462,41.3818,-60.6079,1,10628,937,1264
15014691,816,0.6288,0.2457,0.8057,-4.8218,36.4990,-62.3779,1,10636,907,1265
15026286,817,0.6340,0.2418,0.8118,5.9204,33.7524,-62.8052,1,10641,926,1267
15037871,818,0.6271,0.2656,0.8326,13.0005,33.3862,-63.7207,1,10652,888,1268
15049451,819,0.6417,0.2664,0.8701,16.2354,35.7666,-63.4766,1,10642,910,1269
15061081,820,0.6859,0.1581,0.9124,9.1553,39.9170,-58.3496,1,10647,956,1271
15072649,821,0.6898,0.1711,0.9188,-3.4790,43.8843,-49.9878,1,10643,896,1272
15084282,822,0.6724,0.2372,0.9125,-1.8921,43.5791,-38.6353,1,10651,955,1273
15095837,823,0.6290,0.2715,0.9010,16.9678,35.8887,-35.8276,1,10640,889,1275
15107457,824,0.6290,0.2715,0.9010,16.9678,35.8887,-35.8276,0,10674,890,1276
15110592,825,0.6290,0.2715,0.9010,28.0762,26.6724,-32.1045,0,2218,889,1276
15118022,826,0.5616,0.1499,0.8806,23.9258,20.1416,-29.3579,1,6453,951,1276
15129661,827,0.6174,0.1464,0.8730,13.2446,17.2729,-29.9683,1,10670,940,1277
15141296,828,0.6438,0.1920,0.8811,5.6152,16.9067,-31.8603,1,10643,947,1279
15152896,829,0.6392,0.2146,0.8729,4.0894,16.8457,-31.0059,1,10625,919,1280
15164501,830,0.6118,0.2241,0.8354,-7.3853,14.6484,-16.9067,1,10640,919,1281
15176096,831,0.5802,0.2537,0.7764,-10.1318,12.0850,-9.7046,1,10644,924,1283
15187682,832,0.5583,0.2887,0.7224,1.0376,8.1787,-4.1504,1,10631,927,1284
15199263,833,0.5376,0.2040,0.7054,15.4419,5.3101,3.7231,1,10652,885,1285
15210819,834,0.5260,0.1285,0.7007,23.4985,3.9673,13.9770,1,10648,880,1287
15222464,835,0.5057,0.0813,0.6885,24.5361,2.5635,21.9116,1,10669,950,1288
15234081,836,0.4956,0.0657,0.6746,15.9912,0.4272,24.5972,1,10660,930,1289
15245667,837,0.5116,0.0688,0.6713,10.4370,2.6855,23.4375,1,10648,893,1291
15257282,838,0.5509,0.0771,0.6833,6.2866,8.2397,22.5830,1,10657,930,1292
15268860,839,0.6475,0.0614,0.7113,6.2256,15.5640,22.7051,1,10652,880,1293
15280472,840,0.6890,0.0393,0.7336,10.0098,24.2310,23.7427,1,10658,927,1295
15292066,841,0.7158,0.0273,0.7568,12.8784,34.4849,25.0244,1,10645,922,1296
15303718,842,0.7238,0.0386,0.7721,13.5498,50.6592,20.9961,1,10660,964,1297
15315280,843,0.7271,0.0657,0.7766,17.7612,54.1382,14.1602,1,10635,899,1299
15326916,844,0.7283,0.0916,0.7799,23.5596,55.3589,7.2021,1,10653,938,1300
15338511,845,0.7050,0.1338,0.7850,24.6582,53.7109,2.7466,1,10650,917,1301
15350110,846,0.6892,0.1649,0.7726,18.6768,48.4009,1.2207,1,10623,931,1302
15361674,847,0.6859,0.1954,0.7632,10.4370,40.0391,1.5869,1,10653,883,1304
15373241,848,0.7084,0.2141,0.7726,6.1646,26.3062,4.5166,1,10647,892,1305
15384842,849,0.7416,0.2205,0.7917,9.3384,23.2544,6.2256,1,10701,872,1306
15396457,850,0.7660,0.2107,0.8087,14.0991,19.9585,7.7515,1,10677,911,1308
15408071,851,0.7765,0.1761,0.8341,16.4185,15.8691,9.0332,1,10648,911,1309
15419656,852,0.7523,0.1879,0.8322,14.1602,10.7422,9.7656,1,10628,929,1310
15431274,853,0.7188,0.2223,0.8170,9.5825,3.1738,8.9722,1,10644,947,1312
15442842,854,0.6882,0.2610,0.7898,2.9907,-18.6768,6.9580,1,10639,900,1313
15454457,855,0.6768,0.2833,0.7649,1.0376,-29.1748,9.9487,1,10693,896,1314
15466059,856,0.6844,0.2843,0.7476,-1.0986,-36.5601,15.4419,1,10658,917,1316
15477674,857,0.6616,0.2880,0.7227,-3.6621,-41.5649,20.8740,1,10646,913,1317
15489261,858,0.6252,0.2020,0.6956,-5.6763,-41.7480,22.5220,1,10626,935,1318
15500881,859,0.6208,0.0948,0.7284,-5.6152,-35.8276,12.1460,1,10644,947,1320
15512458,860,0.6410,0.1366,0.7666,-27.0996,-29.2358,-25.2686,1,10648,901,1321
15524099,861,0.6519,0.2458,0.7378,-31.5552,-31.2500,-25.7568,1,10671,942,1322
15535722,862,0.6533,0.3356,0.6952,-24.3530,-32.2876,-13.2446,1,10627,968,1324
15547268,863,0.6743,0.3180,0.7737,-13.7329,-32.2266,1.0986,1,10610,908,1325
15558836,864,0.6575,0.3467,0.7870,-13.3667,-35.0952,13.1226,1,10612,929,1326
15570436,865,0.6160,0.3988,0.6902,-21.8506,-36.4380,26.1841,1,10640,932,1328
15582025,866,0.5602,0.3848,0.6122,-2.3804,-15.1978,53.1616,1,10655,907,1329
15593664,867,0.5061,0.2899,0.6224,12.6953,-4.1504,56.3965,1,10695,915,1330
15605233,868,0.4792,0.1815,0.6775,10.4980,1.2207,50.2319,1,10635,906,1332
15616835,869,0.5242,0.1627,0.7434,-1.7700,3.2959,36.9263,1,10654,894,1333
15628381,870,0.5613,0.2201,0.7538,-10.0098,6.2866,21.1182,1,10639,880,1334
15640007,871,0.5814,0.2726,0.7739,-9.5825,12.2070,8.5449,1,10665,932,1335
15651632,872,0.5914,0.3059,0.7988,-7.3853,26.0620,0.8545,1,10676,923,1337
15663241,873,0.6007,0.3202,0.8115,-7.8125,29.3579,2.8687,1,10678,904,1338
15674798,874,0.6133,0.3447,0.8049,5.4321,27.9541,4.2725,1,10618,910,1339
15686414,875,0.6573,0.3488,0.8448,39.1235,19.1650,2.9907,1,10657,933,1341
15698018,876,0.6750,0.2877,0.8939,68.1152,6.2256,2.5635,1,10652,924,1342
15709625,877,0.6827,0.2378,0.9143,67.5659,-3.8452,3.7842,1,10650,929,1343
15721182,878,0.6931,0.2292,0.9111,19.9585,-8.5449,0.6714,1,10643,888,1345
15732826,879,0.7069,0.2505,0.8995,-1.0986,-3.6621,-3.6621,1,10714,902,1346
15744345,880,0.7140,0.2615,0.8719,-15.7471,5.1270,-5.6152,1,10620,872,1347
15756005,881,0.6768,0.2393,0.8087,-24.6582,16.2964,-4.1504,1,10698,933,1349
15767568,882,0.6593,0.2438,0.7878,-30.5176,29.2358,-2.9297,1,10641,894,1350
15779164,883,0.6487,0.2677,0.7659,-34.5459,42.3584,-4.1504,1,10645,924,1351
15790791,884,0.6476,0.2980,0.7451,-32.0435,63.3545,-8.6670,1,10675,924,1353
15802401,885,0.6571,0.3087,0.7356,-20.2637,67.3218,-11.3525,1,10668,915,1354
15814028,886,0.6874,0.2960,0.7732,-4.5776,59.8144,-13.3667,1,10637,944,1355
15825588,887,0.6694,0.3038,0.7601,3.9062,45.1660,-11.9019,1,10636,897,1357
15837169,888,0.6401,0.3124,0.7122,7.2021,34.8511,-9.3384,1,10622,931,1358
15848755,889,0.6395,0.3163,0.7205,12.7563,31.0059,-9.3994,1,10664,895,1359
15860367,890,0.6587,0.3154,0.7472,17.4561,26.6113,-13.7939,1,10653,931,1361
15871967,891,0.6653,0.3058,0.7534,15.7471,21.0571,-13.4277,1,10666,905,1362
15883541,892,0.6614,0.2877,0.7397,13.6108,15.8081,-12.7563,1,10627,920,1363
15895192,893,0.6963,0.2567,0.7200,11.9629,14.4043,-13.4277,1,10651,945,1364
15906747,894,0.7247,0.2451,0.7336,12.2070,17.3950,-15.0757,1,10635,893,1366
15918342,895,0.7407,0.2384,0.7545,13.4277,27.2217,-19.1040,1,10661,906,1367
15929921,896,0.7378,0.2401,0.7609,11.9629,28.6865,-21.0571,1,10635,916,1368
15941540,897,0.7283,0.2418,0.7511,11.2915,27.8320,-22.5830,1,10681,910,1370
15953146,898,0.7213,0.2373,0.7395,11.5967,26.1230,-23.6816,1,10628,951,1371
15964748,899,0.7301,0.2249,0.7526,11.5356,24.3530,-24.5972,1,10639,918,1372
15976368,900,0.7400,0.2212,0.7632,9.3994,23.3765,-24.1699,1,10627,949,1374
15987936,901,0.7258,0.2236,0.7568,4.3945,18.1885,-15.9912,1,10618,923,1375
15999505,902,0.6844,0.2213,0.7329,3.9673,11.2305,-9.6436,1,10636,905,1376
16011094,903,0.6323,0.2079,0.7008,5.1270,2.1362,-4.2725,1,10683,879,1378
16022645,904,0.5985,0.1898,0.6746,6.8970,-5.8594,-2.0752,1,10656,867,1379
16034273,905,0.6057,0.1859,0.6473,8.7891,-10.4370,-2.9297,1,10685,915,1380
16045874,906,0.6217,0.1848,0.6455,12.2681,-11.4746,-4.7607,1,10660,914,1382
16057486,907,0.6398,0.1731,0.6490,15.3198,-6.5918,-4.0283,1,10628,956,1383
16069036,908,0.6624,0.1567,0.6511,13.5498,-2.5024,-2.9907,1,10637,884,1384
16080681,909,0.6864,0.1384,0.6512,11.8408,1.9531,-2.9297,1,10707,910,1386
16092258,910,0.7070,0.1266,0.6552,9.5215,7.0190,-3.9062,1,10626,922,1387
16103837,911,0.7551,0.1295,0.6705,5.6763,12.6953,-5.1270,1,10644,880,1388
16115415,912,0.7747,0.1353,0.6774,1.9531,17.8833,-6.1035,1,10658,892,1390
16127022,913,0.7812,0.1392,0.6799,-2.2583,22.3389,-6.6528,1,10652,927,1391
16138644,914,0.7812,0.1395,0.6763,-2.6855,21.0571,-7.0801,1,10673,920,1392
16150249,915,0.7812,0.1395,0.6763,-2.6855,21.0571,-7.0801,0,10675,903,1394
16155221,916,0.7877,0.1144,0.6763,-2.8076,18.9209,-7.1411,1,2191,931,1394
16166827,917,0.8013,0.1074,0.6855,-7.3242,13.6719,-3.9673,1,10700,879,1395
16178425,918,0.7928,0.0890,0.6741,-11.0474,10.7422,-3.1128,1,10664,905,1396
16190035,919,0.7928,0.0890,0.6741,-11.0474,10.7422,-3.1128,0,10688,895,1397
16193194,920,0.7928,0.0890,0.6741,-13.9770,14.7095,-8.3008,0,2200,931,1397
16200607,921,0.7073,0.0269,0.5245,-9.4604,24.5361,-18.6768,1,6473,911,1398
16212229,922,0.7845,0.1277,0.6202,-2.0752,31.6772,-26.7944,1,10700,894,1399
16223852,923,0.8497,0.1742,0.6775,-0.3052,32.1045,-27.2217,1,10701,896,1400
16235420,924,0.8658,0.1798,0.7034,-0.4883,25.8179,-20.0806,1,10652,888,1402
16247053,925,0.8253,0.1442,0.6902,-5.0049,-1.7090,0.8545,1,10665,939,1403
16258602,926,0.7662,0.1060,0.6400,-13.6719,-13.2446,5.1880,1,10637,885,1404
16270229,927,0.7219,0.1079,0.5795,-22.3389,-14.8315,4.0283,1,10649,950,1406
16281849,928,0.7352,0.1873,0.4762,-26.6113,-2.9907,1.7700,1,10657,934,1407
16293444,929,0.8594,0.3032,0.6357,-20.8130,14.7095,5.6763,1,10663,905,1408
16305045,930,0.9274,0.3408,0.7784,-6.2256,13.5498,23.4985,1,10645,928,1409
16316674,931,0.8643,0.2218,0.6497,-1.2207,-19.7754,68.4204,1,10674,926,1411
16328231,932,0.7798,0.0651,0.5369,3.7231,-17.8223,64.6362,1,10639,890,1412
16339848,933,0.7655,-0.0723,0.6200,-2.6855,-22.1558,43.4570,1,10655,906,1413
16351455,934,0.8228,0.0636,0.7030,-33.2031,-36.8042,19.2871,1,10648,932,1415
16363052,935,0.8254,0.2570,0.6293,-60.2417,-53.2227,3.7231,1,10657,913,1416
16374656,936,0.8176,0.3658,0.5930,-62.8052,-63.9038,2.3193,1,10642,933,1417
16386276,937,0.8141,0.3711,0.6252,-39.1846,-69.8853,23.3154,1,10668,926,1419
16397863,938,0.8047,0.3276,0.6809,-39.1235,-74.0967,29.6020,1,10626,932,1420
16409486,939,0.7795,0.2893,0.7074,-47.3633,-78.5522,28.4424,1,10671,924,1421
16421103,940,0.6942,0.3210,0.6770,-57.3730,-80.5054,23.3765,1,10627,946,1423
16432678,941,0.6510,0.3762,0.6597,-63.9038,-79.7119,18.9209,1,10611,937,1424
16444246,942,0.6426,0.4199,0.6703,-65.4297,-77.2095,16.8457,1,10631,909,1425
16455862,943,0.6521,0.4363,0.7036,-62.4390,-75.5005,20.2637,1,10672,917,1427
16467451,944,0.6464,0.4280,0.7217,-61.4624,-77.7588,23.5596,1,10627,934,1428
16479055,945,0.6279,0.3982,0.7164,-60.1196,-79.5288,24.9023,1,10646,929,1429
16490683,946,0.6018,0.3214,0.7458,-60.3027,-79.5898,23.4375,1,10636,947,1431
16502254,947,0.5599,0.3403,0.7576,-66.1011,-79.0405,19.7754,1,10606,937,1432
16513833,948,0.4875,0.4022,0.7472,-75.7446,-80.9326,14.4653,1,10626,924,1433
16525429,949,0.4241,0.4824,0.7357,-87.7075,-96.4966,0.6104,1,10659,911,1435
16536977,950,0.4006,0.5570,0.7410,-93.0176,-105.5908,-4.4556,1,10622,898,1436
16548584,951,0.4238,0.6052,0.7562,-97.7173,-114.2578,-5.3711,1,10634,946,1437
16560211,952,0.5143,0.5635,0.7319,-92.1020,-122.6196,-1.9531,1,10660,939,1438
16571792,953,0.5443,0.4771,0.7312,-72.0215,-127.0752,3.2959,1,10653,899,1440
16583401,954,0.5723,0.4031,0.7855,-49.0723,-121.7041,7.5684,1,10655,927,1441
16594983,955,0.5940,0.3724,0.8881,-32.6538,-91.4307,14.0991,1,10667,888,1442
16606601,956,0.5901,0.3635,0.9746,-43.0908,-80.7495,18.6768,1,10647,944,1444
16618202,957,0.5292,0.3649,0.9795,-69.0918,-76.8433,22.8271,1,10644,928,1445
16629792,958,0.2415,0.4738,0.7678,-106.5063,-78.6743,23.8037,1,10632,930,1446
16641412,959,0.1208,0.5605,0.6218,-142.5171,-84.5947,21.5454,1,10652,941,1448
16653034,960,0.0602,0.6311,0.5100,-160.0342,-93.3227,18.1274,1,10627,951,1449
16664569,961,0.0603,0.6713,0.4794,-122.9248,-111.2671,12.0239,1,10612,896,1450
16676164,962,0.1039,0.6871,0.5366,-97.7173,-112.8540,13.3667,1,10641,926,1452
16687758,963,0.1788,0.6801,0.6455,-88.9282,-107.4219,20.2026,1,10649,916,1453
16699356,964,0.3071,0.6543,0.8186,-94.8486,-100.7690,31.5552,1,10650,922,1454
16710985,965,0.3154,0.6621,0.8177,-102.9663,-99.1821,45.8374,1,10657,943,1456
16722573,966,0.2700,0.6776,0.7539,-106.9336,-102.9053,62.6221,1,10628,932,1457
16734195,967,0.1769,0.6823,0.6624,-105.2246,-119.1406,97.2900,1,10649,944,1458
16745776,968,0.0785,0.6542,0.5773,-103.3935,-127.0752,109.9243,1,10626,928,1460
16757369,969,-0.0018,0.6155,0.4989,-105.0415,-128.9062,117.1265,1,10599,920,1461
16769032,970,-0.0791,0.5454,0.4280,-108.8867,-121.2158,117.0654,1,10632,1003,1462
16780654,971,-0.0120,0.5547,0.5441,-108.7646,-105.5298,111.0229,1,10613,982,1464
16792256,972,0.0911,0.5914,0.7394,-97.6562,-87.8906,102.6001,1,10608,966,1465
16803821,973,0.1729,0.6021,0.9216,-68.6646,-68.4814,94.2383,1,10601,935,1466
16815404,974,0.1777,0.5815,0.9619,-71.2891,-68.1763,97.5342,1,10603,935,1468
16826963,975,0.1030,0.5322,0.8400,-76.1719,-69.5801,100.7690,1,10631,899,1469
16838562,976,-0.1486,0.3894,0.5193,-79.9561,-70.0073,97.0459,1,10639,933,1470
16850113,977,-0.2119,0.4344,0.4862,-86.6089,-71.8994,84.4116,1,10632,891,1471
16861729,978,-0.2172,0.5277,0.4941,-93.6890,-79.1016,68.7256,1,10666,921,1473
16873330,979,-0.1792,0.5835,0.5186,-80.8105,-98.3887,53.3447,1,10677,896,1474
16884956,980,-0.1268,0.5942,0.5634,-71.6553,-100.6470,58.3496,1,10651,948,1475
16896534,981,-0.0917,0.5774,0.6013,-72.0825,-96.8018,68.7256,1,10640,912,1477
16908143,982,-0.0924,0.5100,0.6140,-80.2612,-91.8579,79.7119,1,10650,931,1478
16919719,983,-0.0925,0.4858,0.5879,-88.7451,-90.2710,86.1206,1,10647,900,1479
16931346,984,-0.1190,0.4916,0.5457,-98.3276,-97.2290,78.7964,1,10656,945,1481
16942928,985,-0.1885,0.5488,0.5027,-106.6894,-101.3794,69.2749,1,10648,905,1482
16954514,986,-0.2393,0.6379,0.4829,-116.7602,-103.2715,60.3027,1,10635,925,1483
16966113,987,-0.2257,0.7245,0.4622,-121.9482,-103.7598,56.7017,1,10649,922,1485
16977710,988,-0.2303,0.7617,0.2933,-116.5161,-104.8584,61.7676,1,10639,930,1486
16989339,989,-0.2738,0.7103,0.2014,-100.2197,-105.7129,73.3032,1,10648,953,1487
17000917,990,-0.3149,0.6761,0.2098,-64.5142,-105.1025,89.3555,1,10600,924,1489
17012521,991,-0.3497,0.6978,0.2687,-64.9414,-105.7739,88.7451,1,10636,941,1490
17024102,992,-0.3612,0.7488,0.2916,-70.3125,-105.6518,85.8765,1,10627,926,1491
17035691,993,-0.3489,0.7936,0.2688,-67.9321,-105.0415,85.2661,1,10652,910,1493
17047267,994,-0.2942,0.8204,0.2740,-54.3823,-105.8350,89.4775,1,10630,918,1494
17058871,995,-0.2937,0.7611,0.3071,-40.8936,-107.8491,98.2056,1,10658,918,1495
17070471,996,-0.3119,0.6898,0.3071,-48.9502,-108.2153,113.2812,1,10647,926,1497
17082072,997,-0.3861,0.6699,0.2563,-58.6548,-105.7129,111.0229,1,10651,922,1498
17093675,998,-0.4642,0.6786,0.1693,-65.1855,-100.6470,102.7222,1,10640,935,1499
17105267,999,-0.4447,0.6539,0.1317,-75.2563,-90.6982,94.6045,1,10651,913,1501
17116842,1000,-0.5017,0.7841,0.2026,-91.9189,-76.2939,89.2944,1,10628,921,1502
17128462,1001,-0.5657,0.9185,0.2299,-105.7739,-61.3403,85.3271,1,10655,938,1503
17140092,1002,-0.5476,0.9746,0.2795,-105.2856,-31.6772,79.8340,1,10627,957,1504
17151654,1003,-0.4362,0.9467,0.3168,-115.4175,-9.3994,85.5713,1,10616,918,1506
17163216,1004,-0.4362,0.9467,0.3168,-115.4175,-9.3994,85.5713,0,10626,908,1507
17166403,1005,-0.4362,0.9467,0.3168,-138.1226,12.5732,103.1494,0,2207,952,1507
17173838,1006,-0.5607,0.9277,0.0273,-150.3906,28.5645,122.3755,1,6424,983,1507
17185462,1007,-0.9283,0.9198,-0.3219,-133.3008,40.7715,129.1504,1,10629,949,1509
17197032,1008,-0.9656,0.8879,-0.3170,-81.4819,51.2085,119.9951,1,10602,940,1510
17208663,1009,-0.9205,0.8531,-0.1925,-11.9019,60.1196,101.8677,1,10599,976,1511
17220207,1010,-0.8483,0.8213,-0.0522,85.2661,69.1528,75.2563,1,10601,915,1512
17231810,1011,-0.7710,0.7538,0.0308,114.1968,65.9790,69.1528,1,10633,943,1514
17243403,1012,-0.7156,0.6411,0.0826,135.1318,61.3403,60.9741,1,10637,927,1515
17255035,1013,-0.6566,0.4897,0.2236,142.8223,60.1196,47.6685,1,10608,951,1516
17266609,1014,-0.6193,0.4714,0.2546,134.8267,61.2793,32.3486,1,10601,945,1518
17278165,1015,-0.6550,0.5211,0.2754,112.9761,55.1147,20.3247,1,10611,918,1519
17289796,1016,-0.8134,0.5828,0.2843,39.0625,12.3291,12.3901,1,10656,947,1520
17301367,1017,-0.9619,0.5496,0.2081,-3.8452,0.4272,3.5400,1,10627,916,1522
17312915,1018,-0.9734,0.4856,0.0854,-35.7056,5.4321,-13.6719,1,10660,862,1523
17324546,1019,-0.7430,0.7213,0.0537,-44.2505,21.7895,-28.8086,1,10663,923,1524
17336140,1020,-0.6425,0.8400,0.0632,-27.8320,42.4805,-31.4331,1,10655,910,1526
17347746,1021,-0.6013,0.8552,0.0535,5.4932,64.9414,-21.1792,1,10659,920,1527
17359315,1022,-0.6141,0.7922,0.0525,93.2617,111.8774,4.4556,1,10655,886,1528
17370907,1023,-0.6533,0.6906,0.0541,133.1177,133.6060,5.6152,1,10634,913,1530
17382480,1024,-0.7086,0.5963,0.0741,160.3394,150.0244,-2.1973,1,10633,912,1531
17394106,1025,-0.6709,0.5358,0.3635,169.7388,157.8369,-13.3667,1,10661,920,1532
17405730,1026,-0.5580,0.5619,0.5713,159.9121,157.4707,-21.9116,1,10653,944,1534
17417334,1027,-0.4773,0.6218,0.7313,137.9395,151.5503,-24.6582,1,10628,948,1535
17428928,1028,-0.4749,0.6991,0.8228,101.9287,127.1973,-18.6768,1,10627,939,1536
17440502,1029,-0.5399,0.7434,0.8323,94.8486,104.4922,-13.3057,1,10627,920,1538
17452141,1030,-0.5913,0.6948,0.7965,89.5996,78.7354,-9.6436,1,10665,946,1539
17463700,1031,-0.5574,0.4622,0.7874,71.7773,61.7065,-12.1460,1,10626,905,1540
17475274,1032,-0.5676,0.4719,0.7759,38.1470,53.1616,-22.4609,1,10641,906,1542
17486914,1033,-0.5778,0.5536,0.7644,7.8735,44.2505,-37.8418,1,10665,947,1543
17498459,1034,-0.5547,0.6398,0.7906,-8.8501,25.9399,-62.3779,1,10631,885,1544
17510078,1035,-0.5129,0.7042,0.8617,-10.0098,22.0337,-64.7583,1,10641,951,1545
17521657,1036,-0.4740,0.7728,0.9485,-19.7754,17.8223,-57.0679,1,10631,894,1547
17533277,1037,-0.4531,0.8856,0.8438,-37.2925,12.0239,-38.5742,1,10640,934,1548
17544916,1038,-0.5214,0.8660,0.6115,-51.0254,7.8735,-14.5874,1,10647,965,1549
17556492,1039,-0.6301,0.8042,0.4319,-49.3774,3.3569,5.8594,1,10613,935,1551
17568056,1040,-0.6877,0.7421,0.3895,-14.2822,-10.9863,19.8364,1,10631,905,1552
17579643,1041,-0.6478,0.7050,0.4014,-11.6577,-7.8125,22.7051,1,10620,938,1553
17591258,1042,-0.5704,0.7025,0.3781,-16.2354,1.0376,28.1372,1,10643,944,1555
17602862,1043,-0.4889,0.7278,0.3142,-13.1226,9.5215,34.7290,1,10657,920,1556
17614424,1044,-0.4661,0.6616,0.3527,0.0610,15.7471,39.7339,1,10646,888,1557
17626044,1045,-0.4664,0.5590,0.4561,15.1978,17.3340,38.8794,1,10676,916,1559
17637658,1046,-0.5027,0.5198,0.5177,-11.1694,32.7759,20.9351,1,10662,925,1560
17649274,1047,-0.5094,0.5691,0.5090,-28.0151,43.6401,9.2773,1,10648,941,1561
17660821,1048,-0.4337,0.6208,0.5350,-24.2920,37.6587,-0.6104,1,10631,889,1563
17672435,1049,-0.3217,0.5920,0.8074,-18.7988,13.5498,-7.3242,1,10665,923,1564
17684032,1050,-0.3563,0.5587,0.8242,-35.2173,-14.3433,-11.4136,1,10651,918,1565
17695672,1051,-0.4091,0.5333,0.6858,-71.8384,-33.0811,-17.2729,1,10662,951,1567
17707211,1052,-0.4463,0.5421,0.5129,-114.2578,-49.3774,-49.1333,1,10626,886,1568
17718839,1053,-0.4603,0.5951,0.4121,-108.7036,-49.4385,-65.9790,1,10647,954,1569
17730471,1054,-0.4491,0.6749,0.3827,-96.3745,-42.8467,-74.6460,1,10638,938,1571
17742090,1055,-0.4564,0.8116,0.3761,-84.7168,-31.0669,-73.3032,1,10647,944,1572
17753682,1056,-0.4924,0.8455,0.3474,-76.3550,-14.2212,-65.8569,1,10632,932,1573
17765299,1057,-0.4934,0.8600,0.3578,-65.2466,3.2349,-59.8144,1,10647,944,1575
17776849,1058,-0.4406,0.8618,0.4246,-35.9497,22.3389,-59.0210,1,10631,891,1576
17788478,1059,-0.3790,0.8547,0.5255,-32.8369,25.6348,-58.5937,1,10643,958,1577
17800110,1060,-0.3414,0.8286,0.6208,-39.1235,24.7803,-58.6548,1,10635,942,1578
17811719,1061,-0.2988,0.7137,0.6625,-50.6592,16.6626,-61.2793,1,10633,947,1580
17823311,1062,-0.3260,0.6836,0.6229,-65.4907,1.5259,-65.4297,1,10631,934,1581
17834903,1063,-0.3822,0.6874,0.5643,-84.8999,-14.1602,-70.2515,1,10644,921,1582
17846480,1064,-0.3839,0.7141,0.4528,-130.8594,-26.0620,-81.1157,1,10645,904,1584
17858103,1065,-0.3187,0.7585,0.2969,-131.4697,-30.2734,-80.0171,1,10628,966,1585
17869748,1066,-0.2517,0.8251,0.1721,-112.1826,-35.0342,-68.6035,1,10659,931,1586
17881305,1067,-0.2593,0.9817,0.0911,-83.2519,-35.5835,-47.6074,1,10615,916,1588
17892869,1068,-0.3435,0.9391,0.0278,-54.1382,-28.6255,-22.7051,1,10636,900,1589
17904490,1069,-0.3907,0.8586,-0.0172,-28.3203,-12.1460,-4.6387,1,10659,916,1590
17916105,1070,-0.3839,0.8209,0.0291,20.7520,38.0249,-3.1128,1,10662,926,1592
17927682,1071,-0.3364,0.8677,0.1392,40.3442,66.3452,-6.5308,1,10657,893,1593
17939303,1072,-0.3085,0.9464,0.1973,67.5049,93.0176,-9.1553,1,10647,918,1594
17950906,1073,-0.4510,0.9198,0.3223,113.2812,111.3892,-20.2026,1,10656,920,1596
17962521,1074,-0.4226,0.8274,0.4955,156.8604,123.9014,-41.8701,1,10637,949,1597
17974110,1075,-0.2941,0.8452,0.6031,136.6577,147.6440,-64.8193,1,10642,921,1598
17985683,1076,-0.0702,0.9465,0.8284,139.4653,93.8110,-56.5186,1,10638,907,1600
17997266,1077,0.1257,0.8993,1.2327,133.1787,-4.3945,-36.1328,1,10619,936,1601
18008891,1078,0.1240,0.7338,1.4473,50.2319,-82.5806,-6.7749,1,10646,925,1602
18020474,1079,-0.1519,0.5660,0.8328,-61.2183,-131.0425,11.2305,1,10650,904,1604
18032092,1080,-0.2562,0.6057,0.4696,-135.8643,-162.6587,7.3242,1,10657,934,1605
18043713,1081,-0.1968,0.7462,0.3556,-170.3491,-204.8340,-19.1040,1,10650,943,1606
18055277,1082,-0.0930,0.9652,0.4240,-174.0723,-225.6470,-3.6011,1,10624,912,1608
18066906,1083,-0.2222,1.0304,0.3950,-182.7392,-214.2334,22.8882,1,10663,938,1609
18078549,1084,-0.5062,0.8877,-0.1022,-216.6748,-116.6382,40.1001,1,10640,976,1610
18090116,1085,-0.6313,0.9053,-0.8439,-188.5986,8.1177,31.0059,1,10598,942,1611
18101688,1086,-0.4818,0.8237,-0.2404,-14.1602,45.2881,-6.6528,1,10620,924,1613
18113265,1087,-0.5226,0.7400,0.1019,141.9067,100.2808,-43.1519,1,10645,905,1614
18124855,1088,-0.6576,0.8625,0.0055,112.2436,169.9219,-44.9219,1,10655,907,1615
18136444,1089,-0.6495,1.0255,-0.0415,148.5596,201.2939,-52.5513,1,10616,945,1617
18148056,1090,-0.5077,1.0800,0.1699,208.8623,208.3740,-52.4292,1,10667,918,1618
18159666,1091,-0.2172,0.8849,0.6736,241.0278,207.9468,-41.2598,1,10655,926,1619
18171270,1092,-0.1904,0.7992,0.8083,239.5019,193.2373,-30.7007,1,10632,945,1621
18182898,1093,-0.1794,0.7172,0.9099,164.3066,127.1362,-34.9731,1,10649,953,1622
18194504,1094,-0.0969,0.5667,0.9642,102.4780,87.2192,-48.4619,1,10628,949,1623
18206093,1095,-0.0969,0.5667,0.9642,102.4780,87.2192,-48.4619,0,10604,930,1625
18210224,1096,0.0306,0.4561,0.9618,37.9639,42.2363,-67.1997,1,2210,938,1625
18221748,1097,0.0111,0.7084,0.8115,-24.1089,4.8218,-81.6040,1,10601,896,1626
18233327,1098,0.0592,1.0903,0.6251,-73.1812,-27.5879,-41.5649,1,10627,925,1627
18244894,1099,0.0636,1.3422,0.5328,-24.7803,-35.0342,15.8081,1,10631,907,1628
18256524,1100,-0.2808,1.1046,0.2738,22.3389,5.6763,51.7578,1,10646,958,1630
18268091,1101,-0.5123,0.5121,0.0168,62.1338,74.3408,29.4800,1,10645,895,1631
18279683,1102,-0.2959,0.5377,0.2688,110.8398,121.6431,-23.3765,1,10630,933,1632
18291352,1103,-0.1738,0.6211,0.5381,140.6250,148.4375,-61.3403,1,10694,949,1634
18302959,1104,-0.0747,0.6741,0.8022,128.4180,149.0479,-80.7495,1,10637,942,1635
18314504,1105,0.0477,0.7222,1.0049,87.6465,123.6572,-69.7632,1,10615,902,1636
18326108,1106,0.1046,0.7742,1.0784,40.4663,85.9985,-50.2319,1,10642,935,1638
18337740,1107,0.1027,0.8939,1.0458,-0.6714,44.9219,-28.6865,1,10664,941,1639
18349317,1108,0.1367,0.9044,0.9991,-36.9873,10.7422,-4.6387,1,10648,900,1640
18360907,1109,0.1206,0.8762,0.8911,-73.8525,-10.8032,23.1934,1,10673,890,1642
18372546,1110,0.0438,0.8405,0.7358,-123.5962,-25.3906,66.4673,1,10646,964,1643
18384110,1111,-0.0334,0.8239,0.5973,-122.9858,-24.4751,72.3877,1,10628,908,1644
18395723,1112,-0.0924,0.8307,0.4896,-111.9995,-15.5640,72.5098,1,10649,937,1646
18407358,1113,-0.2378,0.9202,0.2970,-93.7500,0.6714,71.7773,1,10670,937,1647
18418959,1114,-0.2935,0.8855,0.1422,-65.3076,26.4282,68.6646,1,10651,923,1648
18430569,1115,-0.2893,0.8207,0.1545,-14.5264,55.4810,53.8330,1,10652,932,1650
18442193,1116,-0.2144,0.7947,0.3528,89.7217,89.7827,11.7187,1,10647,949,1651
18453782,1117,-0.1472,0.8156,0.5026,87.8296,112.5488,11.6577,1,10620,941,1652
18465384,1118,-0.1305,0.8169,0.5427,85.5102,123.1079,15.1978,1,10617,929,1654
18476984,1119,-0.0441,0.7202,0.7677,95.2148,109.8633,14.8315,1,10631,943,1655
18488584,1120,-0.0063,0.6843,0.9468,93.3227,79.5898,13.5498,1,10646,927,1656
18500193,1121,-0.0137,0.7373,1.0552,61.4014,43.8232,13.0615,1,10644,937,1657
18511809,1122,-0.0172,0.8455,1.0107,-66.2231,8.1787,30.3955,1,10641,947,1659
18523348,1123,-0.0352,0.9260,0.8341,-113.7695,13.3667,50.1099,1,10619,892,1660
18534969,1124,-0.0873,0.9507,0.6576,-121.3379,12.9395,61.5845,1,10650,942,1661
18546593,1125,-0.1495,0.8602,0.5598,-100.1587,-2.5635,58.2275,1,10658,938,1663
18558212,1126,-0.1230,0.7954,0.5776,-79.3457,-27.8931,46.0205,1,10650,941,1664
18569804,1127,-0.0428,0.7662,0.5281,-79.3457,-51.3916,36.9873,1,10628,937,1665
18581413,1128,-0.0090,0.8103,0.4136,-81.8481,-91.5527,38.0859,1,10641,940,1667
18592987,1129,-0.0651,0.8678,0.3474,-47.3633,-116.7602,33.8745,1,10614,933,1668
18604627,1130,-0.1176,0.8320,0.4023,-16.1743,-136.8408,22.7051,1,10662,950,1669
18616170,1131,-0.1069,0.6356,0.4850,-21.9727,-142.1509,11.7798,1,10616,900,1671
18627759,1132,-0.1117,0.6355,0.3092,-60.1196,-130.1880,8.0566,1,10625,936,1672
18639374,1133,-0.1541,0.6788,0.0969,-93.1396,-106.2622,11.3525,1,10697,890,1673
18651025,1134,-0.2175,0.7131,-0.0121,-39.8560,-64.5752,11.1694,1,10648,975,1675
18662598,1135,-0.2623,0.6860,0.0219,17.8833,-49.3774,0.4272,1,10615,930,1676
18674184,1136,-0.2687,0.6169,0.1770,58.7158,-35.4004,-17.0898,1,10659,900,1677
18685798,1137,-0.2120,0.6418,0.5242,70.3125,-24.5972,-37.7808,1,10661,925,1679
18697392,1138,-0.1917,0.7311,0.6172,60.4858,-19.8975,-55.5420,1,10662,904,1680
18708981,1139,-0.1589,0.7976,0.6694,46.9360,-24.5361,-67.6880,1,10662,899,1681
18720613,1140,-0.1014,0.8606,0.7057,41.0156,-41.6260,-71.1670,1,10680,926,1683
18732197,1141,-0.0706,0.9550,0.7118,47.8516,-32.8979,-57.7393,1,10627,929,1684
18743828,1142,-0.1221,0.9995,0.6793,77.5757,-20.6299,-47.9736,1,10645,940,1685
18755428,1143,-0.1501,0.8317,0.7714,137.3901,-23.1323,-55.6641,1,10637,934,1687
18767054,1144,-0.0938,0.7042,0.8660,201.0498,-35.6445,-72.8760,1,10650,950,1688
18778659,1145,-0.0289,0.5944,0.9205,237.3047,-45.5322,-86.3647,1,10625,953,1689
18790246,1146,-0.0421,0.5165,0.9402,192.5659,-51.8799,-84.1064,1,10629,929,1691
18801832,1147,-0.1525,0.5216,0.9144,113.2202,-48.5840,-65.5518,1,10616,944,1692
18813431,1148,-0.2068,0.5933,0.8477,52.6733,-50.0488,-51.6968,1,10619,925,1693
18824986,1149,-0.1549,0.6562,0.8041,36.0718,-56.2744,-50.7812,1,10619,908,1694
18836595,1150,-0.1749,0.6019,0.7596,40.7104,-58.8379,-59.9365,1,10619,961,1696
18848235,1151,-0.2791,0.4652,0.6300,22.9492,-50.9033,-72.8149,1,10667,945,1697
18859851,1152,-0.4197,0.3828,0.4014,-127.1362,31.3110,-97.9614,1,10643,945,1698
18871442,1153,-0.4272,0.5096,0.1572,-143.1885,86.4258,-115.4175,1,10615,949,1700
18883062,1154,-0.2946,0.7493,0.0913,-93.6890,124.6948,-123.8403,1,10618,957,1701
18894634,1155,-0.0177,0.9053,0.5225,-33.3862,150.3296,-114.5019,1,10621,923,1702
18906270,1156,0.0602,0.8743,0.8195,-5.3711,160.8887,-91.6748,1,10663,946,1704
18917818,1157,0.1577,0.8955,1.1617,-4.2114,131.1646,-70.1294,1,10634,886,1705
18929418,1158,0.2537,0.8962,1.4028,-105.6518,-3.6621,-26.0620,1,10653,919,1706
18941011,1159,0.2855,0.8425,1.3523,-209.4726,-48.2788,9.6436,1,10662,903,1708
18952661,1160,0.2673,0.7833,1.0267,-285.0952,-78.2471,43.0298,1,10659,964,1709
18964261,1161,0.1487,0.7653,0.4077,-301.0254,-104.9805,65.3076,1,10638,934,1710
18975860,1162,0.0023,0.7253,0.3152,-278.4424,-119.8120,75.6226,1,10644,909,1712
18987455,1163,-0.1371,0.6664,0.2817,-245.1782,-77.6978,49.3164,1,10661,906,1713
18999112,1164,-0.1964,0.6788,0.2538,-234.4360,-41.9922,14.8926,1,10659,953,1714
19010705,1165,-0.1700,0.7642,0.2352,-211.4868,-13.8550,-21.2402,1,10616,949,1716
19022299,1166,-0.0894,0.8505,0.2512,-182.0068,4.9438,-51.8799,1,10636,932,1717
19033846,1167,0.0306,0.9050,0.3269,-161.7431,15.0146,-73.1812,1,10623,895,1718
19045438,1168,0.1158,0.9390,0.3795,-151.1230,9.5825,-86.5478,1,10627,938,1720
19057054,1169,0.2572,1.0358,0.4131,-135.5591,-33.3252,-69.7632,1,10689,900,1721
19068649,1170,0.3086,1.1427,0.3666,-117.1265,-54.9316,-38.0249,1,10646,920,1722
19080265,1171,0.2289,1.1501,0.2610,-82.3364,-72.5708,-8.9722,1,10676,913,1724
19091862,1172,0.0992,1.0265,0.1273,-49.2554,-68.6646,9.2163,1,10651,918,1725
19103451,1173,-0.0391,0.8961,-0.0679,-18.3716,-41.3818,17.7612,1,10670,890,1726
19115047,1174,-0.0474,0.8627,-0.0072,30.8838,-16.9678,16.0522,1,10646,923,1727
19126653,1175,-0.0441,0.8198,0.1250,136.0474,-11.4746,-2.8076,1,10690,887,1729
19138292,1176,-0.0465,0.8068,0.2433,152.2217,-16.1133,-12.5732,1,10664,948,1730
19149899,1177,-0.0603,0.8550,0.3048,150.3906,-28.5645,-23.2544,1,10650,929,1731
19161504,1178,-0.0458,0.9249,0.3358,149.9023,-53.8330,-35.2783,1,10645,914,1733
19173108,1179,0.0369,1.0435,0.3315,143.3716,-74.4019,-40.5884,1,10639,938,1734
19184702,1180,0.0129,1.1709,0.1522,113.6475,-64.2090,-26.4893,1,10642,907,1735
19196310,1181,-0.0275,1.2368,-0.0957,89.0503,8.7891,51.9409,1,10643,937,1737
19207913,1182,-0.0991,1.1097,-0.2428,148.6816,19.9585,77.2705,1,10632,943,1738
19219468,1183,-0.0991,1.1097,-0.2428,148.6816,19.9585,77.2705,0,10628,898,1739
19222586,1184,-0.0991,1.1097,-0.2428,223.6328,9.2773,77.3926,0,2192,898,1739
19229953,1185,-0.2014,0.6232,0.0431,262.2070,-3.1738,63.2935,1,6419,922,1739
19241498,1186,-0.1956,0.4753,0.3401,244.7510,-1.4648,47.6074,1,10613,903,1741
19252995,1187,-0.1968,0.5352,0.3508,244.7510,-1.4648,47.6074,0,10601,839,1742
19260411,1188,-0.1968,0.5352,0.3508,244.7510,-1.4648,47.6074,0,6451,936,1743
19265226,1189,-0.1705,0.6117,0.3494,121.6431,30.3955,18.6768,1,2207,922,1743
19276801,1190,-0.1199,0.6415,0.3887,9.4604,59.0210,-8.9111,1,10615,931,1744
19288250,1191,-0.0815,0.6571,0.4486,-47.4853,69.1528,-21.6675,1,10616,807,1745
19299892,1192,-0.0773,0.7386,0.4912,-100.5859,74.7681,-38.0859,1,10655,930,1746
19311510,1193,0.0796,1.0205,0.4690,-135.4980,76.6602,-57.1899,1,10679,912,1748
19323217,1194,0.2974,0.9734,0.5405,-141.5405,71.3501,-71.1670,1,10674,1004,1749
19334764,1195,0.3726,0.9617,0.6194,-153.9307,54.9927,-57.4341,1,10600,920,1750
19346418,1196,0.2140,1.0931,0.5182,-207.6416,-42.5415,20.8130,1,10636,990,1752
19357975,1197,0.1014,1.1428,0.3413,-184.5703,-98.9990,44.3726,1,10600,929,1753
19369602,1198,0.0886,1.0862,0.2417,-155.3345,-116.9434,61.7676,1,10654,946,1754
19381076,1199,-0.3195,1.1282,0.2505,-106.6894,-110.7788,47.5464,1,10611,836,1756
19392821,1200,-0.3519,1.1652,0.3394,-37.0483,-85.8154,-11.4746,1,10712,1005,1757
19404390,1201,-0.1190,1.0673,0.3546,7.6904,-27.0386,-72.3267,1,10599,941,1758
19416028,1202,0.0878,0.8951,0.3229,7.6294,84.4726,-83.1909,1,10640,971,1760
19427473,1203,0.1586,0.7834,0.4061,-0.1831,81.7261,-71.4722,1,10599,818,1761
19439113,1204,0.1875,0.8212,0.5588,-31.3110,59.2651,-59.0210,1,10642,941,1762
19450738,1205,0.1696,1.1678,0.3795,-75.1343,39.4287,-36.9873,1,10678,919,1764
19462443,1206,0.1058,1.2145,0.1715,-90.6982,24.4141,-10.8643,1,10669,1009,1765
19474010,1207,0.0298,1.1099,0.1040,-64.4531,11.1694,7.5684,1,10600,938,1766
19485649,1208,-0.0342,0.9681,0.1473,-10.5591,12.8174,9.7656,1,10642,970,1768
19497154,1209,-0.0466,0.8835,0.1907,-9.7046,25.8179,-1.5259,1,10600,847,1769
19508767,1210,-0.0200,0.8794,0.1910,-11.5967,38.0859,-13.7939,1,10668,917,1770
19520306,1211,0.0918,0.9668,0.1930,-9.0942,48.5840,-22.0337,1,10675,837,1772
19531989,1212,0.1393,1.0018,0.1964,-4.9438,55.9692,-22.8882,1,10692,933,1773
19543597,1213,0.1528,1.0245,0.2081,1.3428,55.8472,-17.9443,1,10655,925,1774
19555178,1214,0.1521,1.0258,0.2419,15.6860,41.2598,-5.1270,1,10647,908,1775
19566771,1215,0.1456,1.0088,0.2650,16.2354,32.4707,2.0752,1,10643,921,1777
19578403,1216,0.1278,0.9830,0.2632,15.6250,23.4985,8.1787,1,10681,923,1778
19589966,1217,0.0807,0.9310,0.2595,15.6860,16.4185,11.1084,1,10664,842,1779
19601571,1218,0.0660,0.9113,0.2780,15.4419,12.6343,10.4370,1,10655,924,1781
19613150,1219,0.0638,0.9059,0.2915,13.1836,11.6577,7.0190,1,10662,858,1782
19624766,1220,0.0756,0.9165,0.2916,6.8359,9.8877,-1.5869,1,10641,947,1783
19636381,1221,0.0881,0.9327,0.2896,5.7373,7.7515,-2.6245,1,10697,890,1785
19648001,1222,0.0886,0.9392,0.3060,3.0518,5.6763,-1.2817,1,10682,912,1786
19659556,1223,0.0856,0.9510,0.3151,-5.8594,5.3711,1.6479,1,10671,855,1787
19671124,1224,0.0819,0.9658,0.2654,-16.9678,6.1035,5.4932,1,10663,877,1789
19682728,1225,0.0564,0.9702,0.2184,-23.1323,6.8359,9.8267,1,10708,868,1790
19694332,1226,0.0200,0.9564,0.1896,-22.3999,11.5967,15.6250,1,10653,922,1791
19705975,1227,-0.0074,0.9161,0.2090,-17.9443,17.3950,12.3291,1,10696,920,1793
19717690,1228,-0.0289,0.8864,0.2526,-22.7661,24.2310,6.6528,1,10676,1012,1794
19729195,1229,0.0591,0.9698,0.1880,-32.7148,28.8086,3.7231,1,10600,848,1795
19740784,1230,0.1483,1.0042,0.1826,-32.4707,28.1982,6.1646,1,10658,904,1797
19752344,1231,0.1981,1.0027,0.2489,-20.2637,22.5830,11.6577,1,10661,841,1798
19763935,1232,0.2025,0.9866,0.3177,-14.8315,6.7139,20.2026,1,10633,931,1799
19775557,1233,0.1902,0.9744,0.3226,-23.4985,0.6104,23.1323,1,10690,904,1801
19787160,1234,0.1644,0.9674,0.2822,-27.0386,-3.4180,26.2451,1,10629,945,1802
19798772,1235,0.0947,0.9729,0.1575,-23.1934,-6.0425,28.7476,1,10678,908,1803
19810379,1236,0.0510,1.0117,0.1171,-13.8550,-6.7749,28.6865,1,10672,907,1805
19821894,1237,0.0271,1.0740,0.1310,-3.1128,-4.1504,24.8413,1,10659,829,1806
19833521,1238,0.0245,1.1277,0.1805,0.9766,4.5166,13.4888,1,10647,924,1807
19845153,1239,0.0244,1.1659,0.2026,-1.8311,3.2959,10.6812,1,10700,904,1808
19856711,1240,0.0255,1.1968,0.1892,4.0283,-0.3052,10.8032,1,10632,852,1810
19868369,1241,-0.0034,1.2932,0.1925,9.8877,-0.1831,14.9536,1,10728,901,1811
19880005,1242,0.0081,1.3406,0.2375,4.6997,4.2725,20.8130,1,10681,927,1812
19891588,1243,0.0416,1.3682,0.2488,-43.8232,10.4980,32.6538,1,10661,895,1814
19903299,1244,0.0382,1.4298,0.1892,-50.4150,4.5776,33.3862,1,10668,1014,1815
19914849,1245,-0.0077,1.5067,0.1702,-31.6162,2.3193,27.8931,1,10600,922,1816
19926503,1246,-0.0348,1.5414,0.2526,-16.1743,8.3618,22.6440,1,10635,991,1818
19937943,1247,0.0189,1.5276,0.3613,-14.7705,14.2822,24.4141,1,10600,814,1819
19949700,1248,0.0330,1.5065,0.3094,-15.1367,16.1743,35.5225,1,10688,1012,1820
19961263,1249,0.0138,1.4877,0.2582,18.5547,19.1040,59.9976,1,10609,926,1822
19972902,1250,-0.0153,1.4620,0.2725,39.1846,24.1699,61.5845,1,10635,976,1823
19984449,1251,-0.0153,1.4620,0.2725,39.1846,24.1699,61.5845,0,10600,920,1824
19987638,1252,-0.0153,1.4620,0.2725,47.1802,28.5034,60.5469,0,2203,960,1824
19995098,1253,-0.0071,1.4065,0.3169,45.3491,27.5269,64.1479,1,6420,1013,1824
20006603,1254,0.0248,1.2841,0.2079,41.0767,21.5454,76.1108,1,10601,847,1826
20018306,1255,0.0238,1.1802,0.1871,43.0298,13.3057,91.9189,1,10676,999,1827
20029769,1256,0.0087,1.0585,0.2168,52.1240,4.6997,103.1494,1,10605,831,1828
20041410,1257,-0.0121,0.9475,0.2760,61.4014,-8.4229,96.4355,1,10672,911,1830
20052922,1258,-0.0306,0.8665,0.3273,54.3213,-13.5498,81.6650,1,10660,824,1831
20064546,1259,-0.0419,0.8112,0.3324,43.6401,-19.2261,65.9180,1,10638,928,1832
20076167,1260,0.0297,0.8018,0.3386,32.6538,-27.5879,56.9458,1,10695,900,1834
20087742,1261,0.0566,0.8069,0.3317,19.5312,-39.9780,60.9741,1,10626,921,1835
20099336,1262,0.0557,0.7627,0.2703,6.7749,-56.0303,76.4771,1,10704,863,1836
20111009,1263,0.0328,0.6674,0.1921,6.1646,-90.0268,115.9668,1,10690,926,1838
20122574,1264,-0.0444,0.5629,0.1287,7.8125,-97.3511,127.6245,1,10657,850,1839
20134203,1265,-0.1459,0.4746,0.0721,7.2021,-94.9097,124.7559,1,10688,914,1840
20145718,1266,-0.2448,0.3403,0.0068,13.6719,-84.2285,107.7881,1,10656,832,1842
20157351,1267,-0.2522,0.2906,0.0111,29.4189,-65.8569,84.0454,1,10648,927,1843
20168968,1268,-0.2507,0.2584,0.0211,47.4243,-39.4287,59.5703,1,10702,888,1844
20180615,1269,-0.2285,0.2299,0.0415,78.9185,23.9258,14.0381,1,10690,930,1846
20192136,1270,-0.1769,0.1846,0.0897,88.0127,50.0488,-2.9297,1,10658,834,1847
20203791,1271,-0.1189,0.1357,0.1512,88.2568,65.7349,-11.9629,1,10693,906,1848
20215414,1272,-0.0398,0.0571,0.2130,83.4961,69.3359,-12.8174,1,10657,938,1850
20227093,1273,-0.0219,0.0150,0.2172,76.2939,64.6362,-6.8970,1,10655,996,1851
20238592,1274,-0.0155,-0.0365,0.2184,65.4297,56.7627,4.0283,1,10614,828,1852
20250200,1275,-0.0223,-0.1123,0.2277,25.1465,40.1001,32.6538,1,10649,930,1853
20261753,1276,-0.0361,-0.2217,0.2286,-10.0098,29.1748,42.9687,1,10650,846,1855
20273474,1277,-0.0326,-0.3489,0.1843,-42.0532,14.8315,44.2505,1,10680,1013,1856
20285057,1278,0.0328,-0.5006,-0.0032,-57.7393,1.2817,37.9028,1,10616,940,1857
20296670,1279,0.1254,-0.6338,-0.1033,-60.1807,-5.0049,32.2266,1,10636,949,1859
20308120,1280,0.2494,-0.9110,-0.1902,-60.1807,-3.2959,32.7148,1,10603,818,1860
20319793,1281,0.4065,-1.3062,-0.2612,-66.7725,-1.7090,35.9497,1,10687,930,1861
20331325,1282,0.6169,-1.6849,-0.3870,-76.7822,-11.2915,33.4473,1,10652,822,1863
20342947,1283,0.8865,-1.9259,-0.6713,-72.9980,-32.5317,24.8413,1,10631,964,1864
20354535,1284,1.2570,-1.6985,-1.2225,-53.1616,-58.5327,1.7700,1,10673,858,1865
20366157,1285,1.2898,-1.2407,-1.3290,-51.1475,-69.7632,-42.7856,1,10636,958,1867
20377738,1286,0.7281,-0.3452,-1.3068,-91.1255,-56.7017,-111.7554,1,10678,846,1868
20389359,1287,-0.7372,1.7694,0.3458,-499.3896,126.6479,-693.3593,1,10620,974,1869
20400946,1288,-0.1384,3.9071,1.2318,-442.1997,477.9052,-773.8647,1,10691,869,1871
20412698,1289,0.7493,3.2319,-0.4585,337.8296,451.2329,-305.1758,1,10693,1001,1872
20424278,1290,-2.2904,-2.0500,1.6333,892.2729,239.4409,62.2559,1,10607,947,1873
20435900,1291,0.3881,-0.3223,0.8569,360.4126,286.4380,2.6245,1,10640,954,1875
20447362,1292,2.6527,0.8486,-0.5660,-226.2573,191.5283,-147.5220,1,10615,819,1876
20459126,1293,1.9656,0.5409,-0.9087,-117.1265,-299.0112,97.6562,1,10688,1017,1877
20470693,1294,0.2098,0.4873,-0.4653,-50.1099,-237.0605,128.4180,1,10599,941,1879
20482330,1295,-0.6532,1.1530,-0.2329,-14.4043,-86.8530,65.0024,1,10639,970,1880
20493924,1296,-0.7100,1.1671,0.1868,55.9692,8.8501,15.3198,1,10603,963,1881
20505525,1297,-0.5640,0.6322,0.3745,89.4165,53.7109,-7.4463,1,10622,950,1883
20517089,1298,-0.1541,0.6372,0.3715,52.6733,86.3037,-33.2642,1,10612,924,1884
20528718,1299,0.2815,0.9393,0.3727,-11.9629,86.3647,-50.3540,1,10641,961,1885
20540289,1300,0.4463,1.1365,0.4460,-21.7285,39.0015,-23.2544,1,10602,940,1887
20551915,1301,0.3462,1.1782,0.4054,-31.0059,-13.8550,7.3242,1,10640,958,1888
20563364,1302,-0.0184,0.9497,-0.0494,-13.9160,-41.3208,25.2075,1,10604,817,1889
20574962,1303,-0.0963,0.8029,0.0664,31.6162,-29.2969,21.4233,1,10611,931,1890
20586566,1304,-0.0740,0.7926,0.3348,66.8945,8.4229,1.9531,1,10636,939,1892
20598157,1305,-0.0017,0.8204,0.4828,40.6494,44.1894,-18.3105,1,10644,920,1893
20609729,1306,0.0365,0.8270,0.4884,10.0708,31.4941,-15.9302,1,10710,834,1894
20621345,1307,0.0448,0.8760,0.4152,-11.1694,20.0806,-15.2588,1,10629,931,1896
20632960,1308,0.0884,0.9785,0.2407,-15.0146,15.3198,-15.6860,1,10675,912,1897
20644554,1309,0.1056,0.9653,0.2261,-9.7046,14.0991,-12.7563,1,10636,931,1898
20656113,1310,0.1115,0.9570,0.2345,-6.7139,13.3667,-7.2632,1,10639,893,1900
20667724,1311,0.1042,0.9573,0.2264,-2.9907,7.5073,-2.6245,1,10651,886,1901
20679352,1312,0.0836,0.9526,0.2164,4.1504,4.8828,-3.2349,1,10727,874,1902
20690871,1313,0.0571,0.9453,0.2288,9.7046,4.2114,-4.1504,1,10620,870,1904
20702476,1314,0.0081,0.9658,0.2773,12.3291,4.7607,-5.0049,1,10675,858,1905
20714066,1315,-0.0052,0.9835,0.3126,13.2446,6.8359,-4.8828,1,10682,880,1906
20725717,1316,-0.0132,1.0055,0.3411,10.3149,10.6201,-2.5635,1,10667,911,1908
20737248,1317,-0.0181,1.0199,0.3228,-13.4277,13.9770,12.2070,1,10637,866,1909
20748932,1318,-0.0160,1.0248,0.2570,-22.1558,13.6719,22.8271,1,10738,917,1910
20760529,1319,-0.0160,1.0105,0.1890,-17.7612,15.1367,30.6396,1,10634,936,1912
20772150,1320,-0.0151,0.8895,0.1460,-5.1270,18.7988,33.3252,1,10660,933,1913
20783743,1321,0.0005,0.8480,0.1094,7.6294,19.8975,29.1138,1,10637,930,1914
20795290,1322,-0.0347,0.8745,0.1670,22.7661,19.2261,14.8926,1,10648,871,1916
20806873,1323,-0.0283,0.9377,0.2640,43.1519,45.5322,-17.1509,1,10642,913,1917
20818453,1324,0.0543,0.9819,0.3461,47.4853,54.3213,-20.5688,1,10617,935,1918
20830064,1325,0.1637,0.9910,0.4177,46.9360,47.9126,-13.5498,1,10615,950,1919
20841620,1326,0.3263,0.9496,0.4834,41.6260,30.2734,1.4038,1,10618,911,1921
20853235,1327,0.2698,0.9076,0.4419,32.0435,9.1553,19.4702,1,10640,947,1922
20864757,1328,0.1298,0.8615,0.3530,24.2920,-11.1084,33.1421,1,10623,872,1923
20876426,1329,-0.0033,0.8582,0.2543,37.7197,-28.8696,20.6299,1,10684,957,1925
20887992,1330,-0.0621,0.8807,0.1870,55.0537,-23.2544,2.5635,1,10640,898,1926
20899620,1331,-0.0458,0.8553,0.2297,66.8945,-11.5967,-11.0474,1,10651,951,1927
20911172,1332,0.0142,0.7620,0.4307,60.7300,-2.1362,-19.5923,1,10618,906,1929
20922805,1333,-0.0039,0.8416,0.3929,38.9404,0.1221,-26.4893,1,10667,939,1930
20934358,1334,-0.0039,0.9940,0.3202,21.1792,0.0610,-34.3018,1,10649,877,1931
20945994,1335,0.0382,1.0875,0.3086,27.7710,7.5073,-42.2974,1,10679,929,1933
20957606,1336,0.0760,1.0883,0.3866,20.3247,7.1411,-39.3066,1,10665,918,1934
20969219,1337,0.0922,1.0734,0.4829,-13.1836,0.2441,-33.8745,1,10643,943,1935
20980760,1338,0.1232,1.1147,0.5454,-62.9272,-11.1694,-23.3765,1,10626,886,1937
20992434,1339,0.1217,1.2085,0.4561,-108.8257,-26.7334,-8.9111,1,10668,979,1938
21003985,1340,0.1008,1.3282,0.3311,-127.1973,-45.0439,4.9438,1,10626,897,1939
21015611,1341,0.0364,1.3995,0.2419,-75.1343,-53.7109,24.8413,1,10641,958,1941
21027241,1342,-0.0312,1.3859,0.2643,-39.9780,-39.5508,22.3389,1,10636,966,1942
21038884,1343,-0.0278,1.3636,0.4232,-25.3906,-25.5127,10.9253,1,10657,960,1943
21050558,1344,0.0533,1.6208,0.6399,-30.8838,-19.5923,-1.4038,1,10685,943,1945
21062076,1345,0.0880,1.7596,0.6104,-32.5317,-21.3623,-6.1646,1,10627,865,1946
21073699,1346,0.1158,1.7882,0.5981,4.5776,-29.2969,12.8174,1,10705,890,1947
21085282,1347,0.1580,1.7039,0.6073,13.5498,-32.2876,23.6816,1,10671,884,1949
21096965,1348,0.1718,1.5845,0.6219,4.0894,-33.6914,28.8696,1,10722,933,1950
21108486,1349,0.1493,1.5210,0.5972,-13.4888,-32.6538,28.9917,1,10623,871,1951
21120137,1350,0.1704,1.4183,0.4148,-17.5171,-32.0435,28.7476,1,10718,905,1952
21131755,1351,0.1658,1.2781,0.3599,-5.6152,-34.1187,32.4097,1,10639,905,1954
21143310,1352,0.1321,1.0994,0.3083,17.9443,-45.7764,44.6167,1,10650,878,1955
21154893,1353,0.0840,0.9193,0.2482,20.9351,-51.0864,45.5322,1,10673,883,1956
21166577,1354,0.0840,0.9193,0.2482,20.9351,-51.0864,45.5322,0,10720,936,1958
21170226,1355,0.0840,0.9193,0.2482,20.9351,-51.0864,45.5322,0,2194,964,1958
21175223,1356,0.0840,0.9193,0.2482,20.9351,-51.0864,45.5322,0,2189,934,1958
21180229,1357,-0.0214,0.5820,0.0853,16.6016,-49.6826,29.2969,1,2209,953,1958
21191804,1358,-0.0128,0.4993,0.0659,21.3623,-41.1377,21.3623,1,10677,841,1959
21203386,1359,-0.0012,0.4244,0.0905,41.3208,-21.1792,20.7520,1,10612,896,1960
21214951,1360,0.0001,0.3595,0.1443,39.3677,-15.0146,22.5220,1,10715,822,1961
21226610,1361,-0.0051,0.3307,0.1766,28.5034,-12.2070,24.2920,1,10651,950,1963
21238222,1362,-0.0109,0.2809,0.1428,20.1416,-11.6577,27.8931,1,10698,857,1964
21249794,1363,-0.0356,0.2024,0.1144,18.7378,-12.5732,32.8979,1,10614,885,1965
21261395,1364,-0.0732,0.1082,0.0916,17.5781,-13.9160,36.9873,1,10643,929,1967
21272928,1365,-0.1031,0.0248,0.0664,7.5073,-11.2915,36.8042,1,10630,875,1968
21284556,1366,-0.1241,-0.0363,0.0409,9.4604,-6.2256,31.0669,1,10716,885,1969
21296176,1367,-0.1473,-0.0682,0.0225,12.9395,2.0752,20.6299,1,10665,910,1971
21307806,1368,-0.1674,-0.0107,-0.0201,11.5356,11.3525,7.8125,1,10687,916,1972
21319426,1369,-0.1147,0.0216,-0.0204,10.6201,18.2495,-2.3804,1,10642,950,1973
21330985,1370,-0.0640,-0.0405,0.0139,15.8691,20.5078,-4.8828,1,10696,835,1975
21342614,1371,-0.0387,-0.2042,0.0515,10.4370,8.0566,11.5356,1,10652,902,1976
21354169,1372,-0.0256,-0.4125,0.0500,-2.3193,-1.7700,20.6299,1,10709,818,1977
21365757,1373,-0.0109,-0.6398,0.0198,-13.4888,-10.1929,25.9399,1,10679,880,1979
21377396,1374,0.0664,-1.1655,-0.0577,-30.4565,-18.6768,28.1982,1,10661,904,1980
21389031,1375,0.1361,-1.4932,-0.1819,-56.2744,-30.7007,28.3203,1,10643,964,1981
21400610,1376,0.2867,-1.9646,-0.4467,-82.4585,-48.0347,27.5879,1,10630,920,1983
21412235,1377,0.5234,-2.5781,-0.8646,-130.0659,-95.8862,33.2031,1,10631,966,1984
21423819,1378,0.7650,-3.1425,-1.4302,-155.1514,-121.1548,25.9399,1,10701,855,1985
21435430,1379,0.9558,-3.3333,-2.1200,-188.0493,-127.5635,-20.9961,1,10610,916,1987
21447016,1380,-0.2051,0.8505,-0.6289,-411.3769,-80.0171,-259.8267,1,10708,850,1988
21458645,1381,0.3933,3.5292,-0.2725,-681.8237,211.6089,-575.6836,1,10619,953,1989
21470258,1382,-0.2878,2.0203,-0.4191,-126.8310,463.0127,-426.9409,1,10627,958,1991
21481853,1383,-1.7297,-0.4778,1.3193,482.7881,154.7241,103.0884,1,10630,937,1992
21493421,1384,-0.2451,0.4570,1.1903,-262.5732,80.1392,22.2778,1,10690,852,1993
21505045,1385,1.6810,1.3247,-0.6173,-397.7661,-190.6738,26.3062,1,10612,955,1994
21516618,1386,-0.0939,-0.4307,-1.7863,-205.7495,-363.5254,49.7436,1,10698,848,1996
21528281,1387,-0.2040,1.1602,-1.3553,-62.0728,-249.2065,13.3667,1,10633,972,1997
21539926,1388,-0.1614,1.7523,-0.3114,103.6987,-32.9590,6.8359,1,10676,942,1998
21551606,1389,-0.4778,1.1001,0.7283,203.9795,107.4219,29.6020,1,10639,1013,2000
21563204,1390,-0.5782,0.6000,0.8871,65.8569,75.5005,-9.3994,1,10603,966,2001
21574848,1391,-0.3025,0.6647,0.4358,-22.5830,48.2788,-39.9780,1,10689,928,2002
21586495,1392,0.3021,1.0240,0.1255,-32.0435,37.0483,-46.0815,1,10686,932,2004
21598132,1393,0.3357,1.1228,0.1985,-24.1699,23.9868,-31.9824,1,10686,924,2005
21609830,1394,0.1552,1.1526,0.0710,-27.0386,-0.4272,-7.9956,1,10694,976,2006
21621357,1395,-0.0204,1.1079,-0.1136,21.3013,-15.6860,3.4180,1,10626,873,2008
21632963,1396,-0.0530,0.9844,-0.0814,69.1528,7.5073,-9.7656,1,10658,921,2009
21644511,1397,-0.0131,0.8313,0.1709,81.3599,30.0903,-18.8599,1,10632,889,2010
21656122,1398,0.0454,0.8119,0.3625,50.1709,36.4380,-19.0430,1,10663,919,2012
21667722,1399,0.0320,0.8846,0.2390,9.4604,27.6489,-13.9160,1,10682,891,2013
21679324,1400,0.0344,0.9424,0.1631,-11.7187,16.4795,-10.7422,1,10649,925,2014
21690925,1401,0.0677,0.9738,0.1530,-12.3291,5.4932,-12.2070,1,10644,900,2016
21702519,1402,0.1035,0.9805,0.1456,-14.7705,1.5259,-7.3242,1,10644,922,2017
21714069,1403,0.1046,0.9680,0.0974,-15.8081,-0.7935,-0.2441,1,10629,893,2018
21725689,1404,0.0850,0.9463,0.0793,-8.0566,-0.0610,2.5024,1,10662,930,2020
21737245,1405,0.0958,0.9229,0.1724,3.7842,1.7090,1.1597,1,10660,870,2021
21748786,1406,0.0808,0.9498,0.2458,5.3711,1.4038,-0.2441,1,10606,908,2022
21760320,1407,0.0306,1.0082,0.2163,-15.2588,-6.1035,3.4180,1,10623,882,2024
21771847,1408,-0.0254,1.0194,0.1313,-12.7563,-6.4697,3.2959,1,10655,844,2025
21783416,1409,-0.0443,1.0020,0.0963,-2.8076,-2.7466,0.0000,1,10650,892,2026
21794981,1410,-0.0161,1.0068,0.1598,5.3101,1.3428,-2.7466,1,10655,836,2027
21806581,1411,-0.0052,0.9873,0.1631,7.9956,2.9907,-2.5635,1,10710,861,2029
21818111,1412,0.0010,0.9668,0.1439,6.7749,2.0752,-1.0376,1,10619,884,2030
21829695,1413,0.0084,0.9734,0.1273,6.4697,0.3052,-3.7842,1,10650,905,2031
21841266,1414,0.0205,1.0007,0.1307,9.7046,1.2817,-5.9814,1,10663,882,2033
21852848,1415,0.0323,1.0321,0.1487,11.4746,2.0752,-5.4321,1,10639,914,2034
21864447,1416,0.0160,1.0751,0.1567,10.3149,2.1973,-2.5024,1,10647,926,2035
21876056,1417,0.0048,1.0936,0.1337,8.3008,1.4038,-0.2441,1,10649,931,2037
21887599,1418,0.0204,1.1052,0.1013,8.8501,0.4883,-1.2207,1,10620,897,2038
21899165,1419,0.0646,1.0942,0.0906,25.7568,2.1973,-3.9673,1,10661,876,2039
21910793,1420,0.1091,1.0721,0.1022,36.6211,1.8311,0.4272,1,10713,888,2041
21922316,1421,0.1311,1.0811,0.0961,46.9971,-3.1128,7.0190,1,10607,889,2042
21933864,1422,0.0782,1.2812,-0.0154,59.8755,-11.7798,13.0005,1,10628,891,2043
21945510,1423,-0.0260,1.4580,-0.0044,75.4395,-19.7754,17.9443,1,10658,962,2045
21957111,1424,-0.1868,1.6449,0.1871,86.4258,-19.3481,22.4609,1,10643,931,2046
21968652,1425,-0.2429,1.7526,0.4508,58.6548,12.7563,15.8691,1,10624,859,2047
21980399,1426,-0.1300,1.7739,0.6313,35.3394,20.3247,4.8218,1,10704,1014,2049
21991974,1427,0.0020,1.7946,0.7008,11.3525,13.1226,1.2817,1,10599,948,2050
22003594,1428,0.1556,1.7709,0.5266,-6.7749,-5.1270,10.2539,1,10636,957,2051
22015169,1429,0.0988,1.7007,0.4473,-7.2021,-24.5361,27.3437,1,10607,939,2052
22026825,1430,0.0032,1.6123,0.4341,8.7891,-33.2642,41.6260,1,10720,908,2054
22038387,1431,-0.0453,1.5221,0.4690,45.2881,-16.4795,33.2642,1,10602,933,2055
22050048,1432,-0.0376,1.4768,0.5234,41.0156,-8.4839,19.1650,1,10725,908,2056
22061691,1433,0.0128,1.4823,0.5378,18.1274,-10.1318,11.5967,1,10697,918,2058
22073328,1434,0.1127,1.3551,0.3411,-5.9204,-21.7895,15.9912,1,10643,966,2059
22084905,1435,0.0896,1.2137,0.2350,-16.3574,-37.0483,29.1748,1,10621,927,2060
22096502,1436,0.0349,1.0743,0.1683,-13.2446,-48.0957,41.7480,1,10622,948,2062
22108121,1437,-0.0127,0.9534,0.1436,4.8218,-49.9878,36.3159,1,10646,945,2063
22119726,1438,-0.0295,0.8759,0.1455,5.4321,-44.7998,21.9727,1,10665,913,2064
22131342,1439,0.0057,0.8130,0.1428,6.1646,-40.8936,11.4136,1,10632,956,2066
22142913,1440,0.1190,0.5912,0.1163,14.2212,-39.9170,10.9253,1,10655,888,2067
22154537,1441,0.1338,0.4509,0.1298,26.8555,-39.7949,20.0195,1,10635,960,2068
22166123,1442,0.1256,0.3494,0.1625,36.4990,-37.0483,33.9966,1,10636,924,2070
22177790,1443,0.0917,0.3070,0.2184,41.5039,-31.0669,55.8472,1,10686,952,2071
22189420,1444,0.0284,0.2892,0.2909,33.5693,-30.3955,55.4810,1,10675,928,2072
22201023,1445,-0.0327,0.2839,0.3295,17.3950,-27.2217,48.0957,1,10618,958,2074
22212570,1446,-0.0498,0.2994,0.2064,3.9673,-23.3154,38.5742,1,10617,902,2075
22224207,1447,-0.0278,0.2374,0.1327,2.6245,-21.3013,32.2876,1,10659,951,2076
22235800,1448,-0.0288,0.1252,0.1151,11.6577,-20.4468,33.2031,1,10647,918,2078
22247422,1449,-0.0485,0.0624,0.1573,20.8740,-16.7236,47.9126,1,10656,938,2079
22259043,1450,-0.0531,0.0806,0.2285,10.6812,-16.8457,54.0161,1,10666,928,2080
22270629,1451,-0.0919,0.1262,0.2375,-5.6763,-15.8691,55.0537,1,10629,930,2082
22282221,1452,-0.1975,0.1780,0.0493,-13.8550,-13.1226,47.3022,1,10635,929,2083
22293827,1453,-0.1722,0.1421,0.0157,-7.6904,-8.8501,34.9731,1,10637,943,2084
22305408,1454,-0.1268,0.0653,0.0637,4.8218,-3.9673,25.2686,1,10655,898,2086
22317001,1455,-0.0936,-0.0111,0.1250,5.5542,-1.0376,18.2495,1,10660,906,2087
22328516,1456,-0.0795,-0.0498,0.1445,-4.6997,-5.1270,15.3809,1,10634,853,2088
22340163,1457,-0.0732,-0.0602,0.1279,-13.1836,-10.1929,12.5732,1,10685,934,2089
22351773,1458,-0.0839,-0.1136,0.0968,-18.0054,-12.9395,10.4980,1,10644,909,2091
22363362,1459,-0.0829,-0.1952,0.0898,-21.4844,-12.0850,8.9722,1,10635,927,2092
22374912,1460,-0.0609,-0.3492,0.0760,-24.7803,-10.6812,7.4463,1,10619,903,2093
22386577,1461,-0.0243,-0.5894,0.0509,-43.8232,-24.7192,7.6904,1,10691,946,2095
22398190,1462,0.0223,-0.8843,0.0018,-68.2373,-35.1562,11.2305,1,10664,920,2096
22409864,1463,0.0950,-1.2117,-0.0796,-94.7876,-38.8184,17.1509,1,10689,958,2097
22421442,1464,0.3625,-1.7833,-0.3580,-109.9853,-33.2642,25.6348,1,10635,917,2099
22433057,1465,0.6471,-2.0914,-0.5322,-101.8066,-22.0947,33.6914,1,10642,945,2100
22444697,1466,1.0609,-2.4882,-0.6843,-54.1382,-10.6201,41.2598,1,10651,961,2101
22456339,1467,1.4792,-2.7998,-0.8374,-68.4814,-22.9492,30.6396,1,10644,970,2103
22468023,1468,1.6351,-2.5974,-1.1063,-131.0425,-52.1240,-21.1792,1,10708,949,2104
22479569,1469,1.0311,-1.4581,-1.2948,-368.6523,-134.9487,-258.4229,1,10620,899,2105
22491221,1470,-0.3416,3.7205,0.5703,-935.6078,-50.4761,-695.2514,1,10719,905,2107
22502853,1471,-0.5796,3.3673,-1.1155,-1029.5410,259.9487,-722.7783,1,10638,966,2108
22514531,1472,-2.0771,1.3691,-0.2197,931.4575,91.4307,180.3589,1,10698,952,2109
22526219,1473,-2.0315,0.3322,0.9640,735.5956,247.3144,238.1592,1,10648,1012,2111
22537836,1474,0.3848,-0.5228,0.0637,346.9848,163.3301,84.8999,1,10632,957,2112
22549511,1475,0.5032,-1.7460,0.0674,132.0190,-76.0498,-13.9160,1,10730,918,2113
22561135,1476,-0.3656,0.2904,0.0819,132.0190,-76.0498,-13.9160,0,10639,957,2115
22568592,1477,-0.3656,0.2904,0.0819,132.0190,-76.0498,-13.9160,0,6414,1016,2115
22571796,1478,-0.4880,2.3472,-0.3888,-213.0737,-43.9453,-86.0596,1,2218,959,2115
22583439,1479,-0.2957,2.6901,-0.6039,-106.3843,19.5923,-101.9897,1,10641,976,2116
22594996,1480,-0.1407,1.4390,-0.1531,195.8008,74.0967,-13.6719,1,10622,907,2117
22606685,1481,-0.1172,0.2313,0.5460,123.2910,76.0498,-29.9683,1,10749,913,2119
22618318,1482,0.0941,0.1622,0.7322,-23.3154,49.3164,-60.7300,1,10682,924,2120
22629900,1483,0.3928,1.4144,-0.0524,-105.1636,-1.7090,-46.0205,1,10630,923,2121
22641525,1484,0.0211,1.4319,-0.3254,-93.2007,-43.2739,4.9438,1,10646,905,2123
22653082,1485,-0.2595,1.2043,-0.3716,-35.0342,-46.5698,36.8652,1,10622,907,2124
22664723,1486,-0.2476,0.9463,-0.2382,98.3887,20.4468,-12.6343,1,10681,933,2125
22676275,1487,-0.1021,0.7308,0.0403,129.2725,53.7720,-47.6074,1,10636,889,2127
22687914,1488,0.0500,0.6509,0.3292,111.6943,74.0967,-64.5142,1,10682,929,2128
22699469,1489,0.2615,0.9097,0.5073,67.9321,67.8711,-59.8144,1,10646,880,2129
22711102,1490,0.2086,1.0071,0.4365,23.9868,37.4756,-37.7197,1,10729,877,2131
22722677,1491,0.0784,1.0138,0.2645,-13.7939,4.9438,-10.4980,1,10639,907,2132
22734303,1492,-0.0267,0.9919,0.0303,-43.7622,-15.5029,7.4463,1,10656,926,2133
22745867,1493,-0.0587,0.9932,-0.1412,-17.3340,-8.4229,-4.5166,1,10633,903,2135
22757473,1494,-0.0121,0.9906,-0.1582,21.9116,2.0142,-18.6157,1,10675,903,2136
22769046,1495,0.1188,0.9423,0.1112,49.8047,10.5591,-26.4893,1,10651,894,2137
22780701,1496,0.1240,0.9546,0.2075,53.5889,13.6108,-25.0854,1,10694,934,2139
22792278,1497,0.0771,0.9950,0.2125,18.7988,2.9907,-4.9438,1,10629,920,2140
22803884,1498,0.0072,1.0287,0.1356,12.9395,-3.1738,0.4883,1,10659,874,2141
22815440,1499,-0.0474,1.0503,0.0397,27.2827,-2.6855,-2.1362,1,10645,884,2143
22827043,1500,-0.0608,1.0624,0.0004,55.0537,5.3101,-9.0942,1,10700,875,2144
22838617,1501,0.0095,1.0062,0.0879,82.1533,17.0898,-14.0381,1,10680,867,2145
22850188,1502,0.0499,0.9821,0.1476,101.1352,25.7568,-14.9536,1,10621,923,2146
22861821,1503,0.1006,0.9689,0.2180,114.8682,28.8696,-14.1602,1,10659,946,2148
22873380,1504,0.1350,0.9681,0.2889,133.9722,32.7148,-12.6953,1,10622,909,2149
22885069,1505,0.1543,0.9890,0.3252,145.8130,27.6489,-11.9019,1,10740,922,2150
22896701,1506,0.1715,1.0077,0.3521,162.1094,17.6392,-8.3008,1,10668,935,2152
22908267,1507,0.1440,1.0276,0.3989,177.9175,8.6060,0.4272,1,10648,889,2153
22919870,1508,0.1045,1.0294,0.3828,194.6411,0.1221,12.3901,1,10668,909,2154
22931503,1509,0.0862,1.0366,0.3640,253.1128,-11.9629,33.1421,1,10657,930,2156
22943115,1510,0.1749,1.0969,0.2906,335.8154,-13.3057,22.3999,1,10669,915,2157
22954753,1511,0.2714,1.1023,0.2725,449.8901,-10.1318,3.5400,1,10636,973,2158
22966402,1512,0.2300,0.9767,0.4512,510.4370,12.0239,2.9907,1,10699,922,2160
22978022,1513,-0.0312,0.5900,0.8739,478.1494,41.5039,15.8081,1,10679,913,2161
22989681,1514,-0.0369,0.4431,0.9508,382.5073,49.2554,20.3857,1,10635,997,2162
23001379,1515,0.0503,0.3912,0.9366,166.9311,-2.0752,-12.5732,1,10714,956,2164
23013014,1516,0.1219,0.4408,0.8575,91.8579,-35.7056,-27.7100,1,10650,958,2165
23024587,1517,0.1520,0.5122,0.7286,40.8936,-61.2793,-28.6865,1,10653,892,2166
23036198,1518,0.0874,0.4691,0.4587,11.4746,-78.6133,-19.3481,1,10641,942,2168
23047823,1519,0.0144,0.4194,0.3845,3.7231,-89.1113,-11.0474,1,10646,951,2169
23059453,1520,-0.0840,0.4001,0.3669,14.5874,-89.5386,-11.7187,1,10645,957,2170
23071054,1521,-0.1433,0.3677,0.3781,38.6353,-59.0210,-26.0010,1,10634,940,2172
23082719,1522,-0.1232,0.3147,0.3573,39.3066,-42.1143,-33.0200,1,10686,952,2173
23094337,1523,-0.0767,0.2906,0.3281,49.3774,-30.8838,-43.3960,1,10642,949,2174
23105954,1524,0.0055,0.3713,0.4431,67.3218,-21.4233,-59.6924,1,10650,939,2176
23117532,1525,-0.0333,0.4844,0.8252,71.9604,-4.4556,-83.0688,1,10646,903,2177
23129136,1526,-0.0338,0.5693,1.2939,22.2168,51.1475,-114.0747,1,10635,915,2178
23140766,1527,0.0704,0.6444,1.3359,-108.3984,168.2739,-169.2505,1,10655,948,2180
23152402,1528,0.1508,0.7096,1.1174,-36.5601,124.9390,-177.1240,1,10650,958,2181
23163943,1529,0.1737,0.6780,0.9664,35.3394,68.3594,-153.6255,1,10604,908,2182
23175563,1530,0.3064,0.6066,0.8140,57.9834,23.4375,-104.8584,1,10667,926,2184
23187155,1531,0.2931,0.6799,0.6926,71.8994,-12.5732,-57.9834,1,10657,906,2185
23198773,1532,0.1429,0.7566,0.5179,124.5727,-36.3770,-37.1094,1,10652,940,2186
23210356,1533,0.0328,0.6400,0.4263,286.9263,-25.4517,-65.3687,1,10651,905,2188
23221999,1534,0.0339,0.3512,0.5802,304.6875,15.0146,-77.2095,1,10658,957,2189
23233611,1535,0.1252,0.1597,0.9342,273.5596,60.7910,-79.1626,1,10638,948,2190
23245211,1536,0.4904,0.2101,1.5074,225.4639,78.9795,-71.2891,1,10639,934,2191
23256786,1537,0.5072,0.2556,1.3617,179.5044,59.6313,-52.0630,1,10625,921,2193
23268456,1538,0.3909,0.3402,0.9137,156.5552,16.2354,-30.7007,1,10717,927,2194
23280100,1539,0.2498,0.4225,0.4606,274.2920,-95.0317,-30.2734,1,10695,920,2195
23291726,1540,0.1180,0.3212,0.4657,357.1167,-105.4687,-36.3770,1,10635,963,2197
23303299,1541,0.0432,-0.0518,1.1260,334.4726,-31.3721,-26.5503,1,10660,856,2198
23314885,1542,0.2700,-0.3444,1.7798,186.2182,63.2935,-15.2588,1,10637,922,2199
23326524,1543,0.3867,0.0459,1.2783,18.9819,84.4726,-13.6108,1,10656,956,2201
23338079,1544,0.3541,0.2429,0.9261,-44.9829,33.6304,-11.5967,1,10636,891,2202
23349703,1545,0.2449,0.1538,0.9021,18.9209,-45.2270,-3.8452,1,10674,921,2203
23361256,1546,0.1528,0.0341,0.9181,24.2310,-27.5269,-6.2256,1,10631,896,2205
23372886,1547,0.1414,0.0127,0.9008,19.5312,3.8452,-10.1318,1,10687,915,2206
23384521,1548,0.2615,0.0486,0.9979,18.4326,23.0713,-11.9629,1,10635,955,2207
23396094,1549,0.2898,0.0706,1.0206,21.2402,21.5454,-11.9629,1,10663,852,2209
23407691,1550,0.2839,0.0984,1.0104,32.7148,6.5308,-12.2681,1,10625,946,2210
23419274,1551,0.2677,0.1022,1.0100,98.8159,-23.9868,-18.1885,1,10657,880,2211
23430917,1552,0.2419,0.0312,1.0308,117.9199,-31.9214,-19.0430,1,10654,944,2213
23442458,1553,0.2092,-0.0623,1.0414,108.5815,-33.2642,-18.7378,1,10658,855,2214
23454102,1554,0.1860,-0.0808,0.9633,113.7085,-35.0342,-22.6440,1,10650,937,2215
23465682,1555,0.1301,-0.1589,0.9707,131.7139,-41.3818,-25.2686,1,10668,836,2217
23477310,1556,0.0831,-0.2528,0.9486,112.0605,-38.6963,-23.2544,1,10648,951,2218
23488917,1557,0.0293,-0.2943,0.9263,29.5410,2.3193,-23.0713,1,10669,863,2219
23500473,1558,0.0818,-0.2231,0.9263,4.8828,20.3247,-17.5171,1,10626,903,2221
23512100,1559,0.2621,-0.0465,0.9463,-11.9019,24.4751,-11.6577,1,10685,913,2222
23523738,1560,0.3121,0.1418,1.0563,-10.1929,15.8081,-9.7046,1,10648,946,2223
23535243,1561,0.2271,0.0173,1.0707,13.6719,2.1362,-7.0190,1,10661,817,2225
23546836,1562,0.1830,-0.1160,1.0419,41.9922,-8.9111,-1.9531,1,10653,882,2226
23558500,1563,0.1934,-0.1818,1.0000,52.0630,-10.9863,3.0518,1,10719,917,2227
23570087,1564,0.2179,-0.1896,0.9727,44.6167,-5.9204,-0.7324,1,10640,920,2228
23581709,1565,0.2310,-0.1825,0.9750,41.4429,-0.9766,-7.3242,1,10690,903,2230
23593279,1566,0.2476,-0.1970,0.9706,40.4663,0.4272,-14.9536,1,10632,911,2231
23604892,1567,0.2134,-0.1973,0.9396,34.2407,-3.0518,-21.2402,1,10664,922,2232
23616471,1568,0.1738,-0.1672,0.9220,18.7988,-6.2256,-22.7661,1,10626,924,2234
23628097,1569,0.1656,-0.1169,0.9591,-8.6670,0.4272,-9.9487,1,10695,904,2235
23639638,1570,0.1837,-0.1044,1.0031,-3.8452,0.7324,-2.5024,1,10635,879,2236
23651233,1571,0.1930,-0.1323,1.0071,4.1504,-0.9766,1.7700,1,10711,855,2238
23662840,1572,0.1884,-0.1456,0.9865,9.2773,-0.9766,4.2114,1,10693,886,2239
23674432,1573,0.2004,-0.1481,0.9865,13.4888,-0.7324,6.7139,1,10705,860,2240
23686049,1574,0.2148,-0.1625,0.9844,17.5781,-1.8921,8.4839,1,10662,927,2242
23697669,1575,0.2123,-0.1711,0.9780,14.5264,-5.7983,5.1880,1,10724,867,2243
23709301,1576,0.2007,-0.1704,0.9738,10.0708,-6.0425,3.2959,1,10687,918,2244
23720886,1577,0.1925,-0.1796,0.9741,4.8828,-5.1270,2.6245,1,10667,890,2246
23732481,1578,0.1759,-0.2211,0.9679,-3.5400,-3.2959,2.6855,1,10662,905,2247
23744056,1579,0.1716,-0.2106,0.9742,-15.0146,-0.1221,2.6245,1,10688,858,2248
23755634,1580,0.1722,-0.1830,0.9934,-24.9023,3.7231,2.4414,1,10649,885,2250
23767314,1581,0.1785,-0.1614,1.0151,-24.7192,6.8970,2.7466,1,10738,913,2251
23778902,1582,0.1886,-0.1537,1.0203,-16.7847,5.3711,2.7466,1,10644,917,2252
23790489,1583,0.1995,-0.1584,1.0004,-10.8643,3.3569,2.1362,1,10669,891,2254
23802087,1584,0.2086,-0.1710,0.9679,-10.1929,1.9531,0.3662,1,10656,915,2255
23813696,1585,0.2064,-0.1624,0.9810,-12.8174,1.2207,-1.5869,1,10680,901,2256
23825294,1586,0.2026,-0.1522,0.9940,-14.7095,0.6104,-2.8076,1,10657,914,2258
23836913,1587,0.1985,-0.1451,1.0027,-12.2070,-0.7324,-3.5400,1,10690,901,2259
23848490,1588,0.1973,-0.1415,1.0129,-9.7046,-0.7324,-3.2349,1,10664,886,2260
23860100,1589,0.2040,-0.1399,1.0232,-7.2021,-0.9155,-2.3193,1,10696,886,2261
23871668,1590,0.2369,-0.1498,1.0421,-6.4087,-1.2207,-1.4038,1,10671,869,2263
23883287,1591,0.2546,-0.1439,1.0635,-7.4463,-1.5869,-1.8311,1,10731,860,2264
23894858,1592,0.2787,-0.1100,1.1178,-9.0942,-1.8311,-4.2114,1,10654,890,2265
23906394,1593,0.3079,-0.0925,1.2485,-20.9961,-3.6011,-8.7891,1,10651,857,2267
23917944,1594,0.2782,-0.1243,1.4720,-24.3530,-5.1880,-6.1035,1,10599,896,2268
23929530,1595,0.2511,-0.2036,1.5861,-19.1650,-8.1787,-1.4648,1,10634,897,2269
23941102,1596,0.2189,-0.2679,1.4069,-15.3809,-14.3433,-1.0986,1,10645,899,2271
23952710,1597,0.1808,-0.2109,1.4305,-17.6392,-16.0522,-3.6011,1,10670,911,2272
23964343,1598,0.1658,-0.1597,1.5217,-24.2920,-11.2305,-3.9673,1,10673,933,2273
23975926,1599,0.1737,-0.1276,1.6156,-51.6357,-3.6621,5.0049,1,10673,883,2275
23987569,1600,0.2140,-0.1140,1.6406,-73.9746,-5.1270,12.3291,1,10676,940,2276
23999140,1601,0.2512,-0.1245,1.5831,-84.2895,-11.0474,17.3340,1,10660,883,2277
24010768,1602,0.2775,-0.2438,1.4834,-71.1670,-14.1602,16.1743,1,10659,940,2279
24022343,1603,0.2916,-0.2343,1.4894,-45.5933,-9.7046,9.0332,1,10633,915,2280
24033975,1604,0.2997,-0.1588,1.4889,-25.0244,-2.2583,0.2441,1,10669,935,2281
24045579,1605,0.2990,-0.1050,1.4266,-22.1558,-3.1128,-8.9722,1,10678,898,2283
24057163,1606,0.2850,-0.1050,1.2817,-22.2778,-12.6953,-10.6201,1,10652,906,2284
24068815,1607,0.2661,-0.1442,1.1473,-9.3384,-16.7236,-14.0381,1,10662,962,2285
24080384,1608,0.3040,-0.1689,1.0449,12.2070,-9.4604,-21.9116,1,10623,918,2287
24091926,1609,0.3292,-0.0991,1.0616,34.2407,4.3335,-33.7524,1,10638,846,2288
24103472,1610,0.3583,-0.0519,1.1112,50.9644,10.8643,-42.5415,1,10603,915,2289
24115173,1611,0.3389,-0.0857,1.1222,55.9692,-64.8804,-41.9311,1,10737,935,2290
24126787,1612,0.2977,-0.1570,1.0676,50.4761,-127.7466,-42.9687,1,10654,933,2292
24138457,1613,0.2167,-0.2213,0.9312,55.0537,-162.1704,-48.2178,1,10679,963,2293
24150049,1614,-0.0178,-0.0985,0.6260,64.1479,-147.8271,-54.5654,1,10622,942,2294
24161632,1615,-0.0784,0.0726,0.5585,65.4907,-99.4873,-53.4058,1,10628,927,2296
24173272,1616,-0.0779,0.1788,0.5194,57.1289,-49.0112,-43.3960,1,10656,958,2297
24184851,1617,-0.0431,0.1407,0.4504,41.8701,-4.3945,-23.6206,1,10647,905,2298
24196475,1618,-0.0172,0.0226,0.3982,39.7949,-7.5073,-21.0571,1,10647,950,2300
24208029,1619,-0.0038,-0.0975,0.4301,32.7759,-14.0991,-21.6675,1,10650,876,2301
24219628,1620,-0.0023,-0.0750,0.5259,18.7988,-20.7520,-21.4233,1,10649,922,2302
24231179,1621,-0.0314,0.0105,0.5198,8.1177,-27.5879,-18.4937,1,10652,841,2304
24242772,1622,-0.0327,0.0251,0.4008,8.9111,-49.2554,-2.0142,1,10661,906,2305
24254334,1623,-0.0359,0.0249,0.2487,5.1880,-63.2935,5.6152,1,10741,792,2306
24265896,1624,-0.0792,0.0508,0.1724,5.6152,-69.2749,11.5356,1,10632,903,2308
24277612,1625,-0.1105,0.0420,0.1368,12.0850,-65.0635,17.4561,1,10732,955,2309
24289237,1626,-0.1022,0.0594,0.1241,15.3198,-55.2368,21.6064,1,10681,918,2310
24300777,1627,-0.1006,0.1727,0.2712,6.8970,-41.9922,23.0103,1,10626,856,2312
24312318,1628,-0.0562,0.2000,0.3534,-37.5366,-18.2495,26.8555,1,10599,914,2313
24324027,1629,0.0027,0.1152,0.2418,-57.9224,-27.2827,26.7944,1,10728,953,2314
24335712,1630,0.0065,0.0447,0.0476,-65.1855,-48.5229,27.0386,1,10687,970,2316
24347285,1631,0.0022,0.0000,-0.1567,-55.8472,-67.7490,29.6631,1,10631,914,2317
24358841,1632,-0.0266,0.0488,-0.6991,-40.4663,-77.8809,33.4473,1,10617,911,2318
24370420,1633,-0.0309,0.1111,-1.0573,-27.0386,-79.2847,39.5508,1,10632,919,2320
24382070,1634,0.0284,0.1304,-1.5654,-28.8696,-85.8154,45.1660,1,10680,942,2321
24393693,1635,0.1047,0.1770,-2.1672,-59.0210,-106.2622,47.8516,1,10661,934,2322
24405300,1636,0.3280,0.2412,-2.7319,-96.2524,-130.0659,55.5420,1,10634,944,2324
24416904,1637,0.8417,0.2985,-3.2264,-117.1875,-153.1982,58.2886,1,10640,935,2325
24428536,1638,1.8549,0.9666,-3.3375,-127.1362,-168.0908,51.5137,1,10627,978,2326
24440136,1639,0.9235,1.3729,-1.5116,-152.2827,-107.4829,46.3867,1,10619,953,2327
24451714,1640,0.3226,0.7253,1.8174,160.8887,802.9785,142.0898,1,10597,953,2329
24463297,1641,0.5315,-0.5547,3.8569,278.5034,516.7236,37.0483,1,10621,935,2330
24474923,1642,0.5315,-0.5547,3.8569,278.5034,516.7236,37.0483,0,10606,966,2331
24478099,1643,0.5315,-0.5547,3.8569,213.1348,-79.6509,-39.2456,0,2203,946,2331
24485495,1644,-1.6217,-1.9860,1.6611,-0.7935,-167.9687,-12.0850,1,6445,924,2332
24497089,1645,0.7992,0.5509,0.9183,-149.4141,0.0000,0.7935,1,10606,933,2333
24508607,1646,1.0640,1.4020,-0.6874,-102.7832,24.4751,-33.9966,1,10642,848,2334
24520244,1647,0.5100,0.7915,-0.9359,2.3193,-39.4287,-41.8701,1,10679,932,2336
24531779,1648,0.1896,-0.0741,0.5128,-4.5776,18.7378,22.2168,1,10670,806,2337
24543317,1649,0.0356,-0.3275,1.7460,-13.6108,24.7192,19.3481,1,10601,911,2338
24555017,1650,-0.1782,-0.3712,1.7279,-16.6626,32.6538,8.7891,1,10734,938,2339
24566671,1651,0.0955,-0.0935,1.0178,-25.9399,54.3823,1.4648,1,10681,944,2341
24578244,1652,0.2191,-0.0129,0.9181,-21.8506,44.1284,2.5635,1,10633,886,2342
24589865,1653,0.2220,-0.0277,0.9181,-7.3242,8.9722,7.6294,1,10645,948,2343
24601424,1654,0.1813,-0.1003,0.9987,-0.8545,-11.4746,6.8359,1,10647,884,2345
24613050,1655,0.1530,-0.1653,1.0399,-4.2114,2.9907,3.1738,1,10667,932,2346
24624609,1656,0.1963,-0.1908,1.0037,-4.6387,13.6719,3.7842,1,10668,863,2347
24636210,1657,0.2682,-0.1495,0.9681,-2.4414,11.7187,6.9580,1,10676,898,2349
24647814,1658,0.1971,-0.1230,0.9523,-0.4272,1.8311,9.2163,1,10668,908,2350
24659425,1659,0.1246,-0.1139,0.9358,-0.6714,-4.8828,9.1553,1,10664,918,2351
24671015,1660,0.1097,-0.1174,0.9636,-3.5400,2.5635,5.9814,1,10678,885,2353
