t_us,seq,ax,ay,az,gx,gy,gz,t_imu_us,t_serial_us,missed
13821739,10,0.8247,0.2310,-0.3052,-143.0664,78.3081,94.2383,482,913,0
13826737,11,0.8301,0.2256,-0.2866,-135.2539,79.1016,95.7031,491,910,0
13831756,12,0.8228,0.2290,-0.2891,-127.3804,80.8716,98.9380,465,907,0
13836741,13,0.8042,0.2441,-0.3154,-118.6523,82.3364,101.3184,465,946,0
13841733,14,0.8359,0.3354,-0.3096,-101.9897,79.6509,99.4873,482,937,0
13846742,15,0.7827,0.2153,-0.3540,-69.9463,64.0869,88.9282,479,917,0
13851733,16,0.6992,0.2388,-0.4189,-64.8193,49.9268,89.5386,482,935,0
13856736,17,0.6909,0.2842,-0.4785,-62.5610,45.7153,93.7500,481,938,0
13861740,18,0.7192,0.3247,-0.5293,-63.7207,46.7529,95.2148,481,952,0
13866735,19,0.7266,0.3477,-0.5527,-61.8896,46.1426,92.9565,481,995,0
13871736,20,0.7061,0.3472,-0.5576,-52.4292,36.4990,86.9751,466,952,0
13876737,21,0.6846,0.3491,-0.5435,-43.0908,25.5737,81.1157,467,861,0
13881748,22,0.6572,0.3472,-0.5483,-34.1797,18.8599,76.2329,464,907,0
13886738,23,0.6475,0.3442,-0.5654,-27.7710,15.9302,72.6318,482,916,0
13891737,24,0.6523,0.3481,-0.5884,-20.1416,14.2212,69.2749,509,898,0
13896737,25,0.5547,0.3081,-0.6191,-11.8408,14.4653,63.4155,472,945,0
13901741,26,0.3813,0.2803,-0.5767,-21.1792,57.3730,54.9316,492,926,0
13906740,27,0.4707,0.3188,-0.5068,-36.0107,120.8496,50.2319,484,921,0
13911738,28,0.6680,0.3320,-0.5142,-29.2358,119.1406,50.4761,471,919,0
13916736,29,0.7036,0.3462,-0.5308,-22.2778,81.2378,45.8984,471,897,0
13921734,30,0.6382,0.3892,-0.5078,-27.4658,64.0869,36.8042,481,922,0
13926742,31,0.6079,0.4077,-0.5195,-31.6162,72.6318,29.1748,489,907,0
13931740,32,0.6323,0.4048,-0.5688,-29.6631,81.1768,26.0620,485,922,0
13936739,33,0.6509,0.4019,-0.6162,-23.2544,77.4536,25.8179,492,916,0
13941752,34,0.6445,0.3931,-0.6201,-16.3574,71.2891,26.2451,464,911,0
13946736,35,0.6436,0.3789,-0.6021,-11.9629,69.9463,26.4282,465,936,0
13951735,36,0.6421,0.3672,-0.5781,-9.1553,70.3125,27.2827,482,943,0
13956739,37,0.6343,0.3677,-0.5483,-7.3242,69.8853,30.7007,471,922,0
13961736,38,0.6104,0.3726,-0.5366,-6.5918,70.0073,34.7290,483,884,0
13966739,39,0.6006,0.3882,-0.5454,-7.7515,72.2046,38.9404,478,914,0
13971742,40,0.6108,0.3711,-0.5542,-8.6060,75.2563,41.7480,478,952,0
13976742,41,0.6167,0.3232,-0.5625,-9.1553,76.9043,45.2270,476,885,0
13981734,42,0.6084,0.2930,-0.5688,-10.5591,78.1860,51.6357,477,886,0
13986733,43,0.5889,0.2944,-0.5869,-12.3901,80.3223,59.0210,468,866,0
13991752,44,0.5796,0.2866,-0.6113,-13.7939,82.6416,65.9790,467,929,0
13996741,45,0.5625,0.2959,-0.6396,-16.1743,84.1064,82.3364,482,903,0
14001737,46,0.5312,0.3618,-0.6802,-13.6108,83.7402,88.6230,510,900,0
14006738,47,0.4956,0.4375,-0.7583,-4.7607,82.7026,90.2100,482,1027,0
14011738,48,0.4746,0.4878,-0.8340,8.1177,79.9561,87.2803,463,905,0
14016739,49,0.4551,0.5093,-0.8789,22.1558,75.1953,82.7637,466,826,0
14021733,50,0.4351,0.5117,-0.8960,35.7056,67.9932,78.4302,474,892,0
14026733,51,0.4219,0.5142,-0.8774,45.5933,59.6313,74.9512,487,868,0
14031741,52,0.4243,0.5435,-0.8530,52.2461,52.1851,71.9604,471,915,0
14036733,53,0.4556,0.5757,-0.8452,58.4717,46.0815,68.8477,474,883,0
14041734,54,0.4727,0.5962,-0.8643,65.2466,40.7104,65.0635,484,914,0
14046738,55,0.4531,0.5962,-0.8740,72.3267,34.4238,60.7910,491,903,0
14051733,56,0.4380,0.5801,-0.8652,79.5898,26.7334,57.3730,465,937,0
14056738,57,0.4448,0.5391,-0.8525,87.0972,19.6533,55.2978,482,940,0
14061739,58,0.4580,0.5112,-0.8398,94.8486,13.4888,54.0161,464,917,0
14066734,59,0.4683,0.4883,-0.8237,104.2480,7.2632,52.8564,483,957,0
14071739,60,0.4399,0.4785,-0.7910,114.8071,0.9155,52.2461,464,930,0
14076740,61,0.4458,0.4795,-0.7456,125.4272,-5.1880,51.3306,474,909,0
14081735,62,0.4722,0.4951,-0.6953,133.4839,-9.3384,50.6592,474,975,0
14086741,63,0.4868,0.5220,-0.6401,139.7705,-11.0474,51.1475,481,899,0
14091740,64,0.4873,0.5312,-0.5747,142.8223,-11.9629,51.0254,480,908,0
14096737,65,0.4878,0.5220,-0.5015,141.6016,-11.5967,51.1475,464,904,0
14101733,66,0.4790,0.5005,-0.4424,136.1694,-9.0942,52.0019,483,894,0
14106741,67,0.4702,0.4839,-0.4365,126.5259,-5.2490,55.7861,508,880,0
14111741,68,0.4609,0.4937,-0.4761,114.4409,-1.4038,63.2324,464,912,0
14116739,69,0.4365,0.5522,-0.5454,104.3701,1.5869,71.8384,470,936,0
14121741,70,0.4204,0.6079,-0.6172,100.4639,1.2817,78.3081,492,906,0
14126739,71,0.4004,0.6514,-0.6670,100.8911,-2.8076,81.0547,489,896,0
14131736,72,0.3872,0.7007,-0.6997,105.2856,-8.6060,79.9561,477,871,0
14136738,73,0.3857,0.7339,-0.7104,114.8071,-13.7939,77.1484,490,899,0
14141736,74,0.4023,0.7656,-0.6812,124.4507,-18.6768,72.2046,477,919,0
14146733,75,0.4199,0.7988,-0.6450,132.8735,-22.8882,65.7349,486,880,0
14151737,76,0.4263,0.8135,-0.6191,139.2822,-26.1841,59.5093,486,917,0
14156755,77,0.4126,0.8140,-0.5884,140.8081,-28.6865,53.8940,465,889,0
14161742,78,0.3901,0.8037,-0.5547,139.0381,-30.5176,49.3774,464,920,0
14166741,79,0.3867,0.7798,-0.5273,137.6343,-32.2266,47.7905,482,943,0
14171734,80,0.3823,0.7617,-0.5146,136.1694,-34.6680,47.7295,472,946,0
14176740,81,0.3647,0.7651,-0.4946,134.3994,-36.6821,46.5698,464,940,0
14181735,82,0.3599,0.7617,-0.4673,134.3384,-38.3911,44.2505,481,916,0
14186741,83,0.3809,0.7817,-0.4307,134.7046,-39.7339,41.9922,466,975,0
14191736,84,0.4087,0.7959,-0.3838,136.5967,-39.9170,39.4287,464,924,0
14196741,85,0.4272,0.8140,-0.3267,139.8315,-38.7573,35.7056,472,932,0
14201734,86,0.4531,0.8579,-0.2983,144.5312,-35.7666,31.0669,473,864,0
14206733,87,0.4561,0.8867,-0.3184,152.5879,-31.3721,24.8413,477,910,0
14211733,88,0.4434,0.9033,-0.3359,159.4238,-27.3437,16.6626,482,899,0
14216736,89,0.4321,0.9126,-0.3125,163.3301,-25.9399,9.8267,492,916,0
14221735,90,0.4209,0.9058,-0.2568,164.6118,-26.6113,6.0425,472,936,0
14226737,91,0.4180,0.9028,-0.2056,162.8418,-28.6865,5.4321,492,935,0
14231740,92,0.4160,0.9287,-0.1890,156.8604,-30.6396,7.1411,490,842,0
14236738,93,0.4082,0.9771,-0.1968,146.4233,-31.1890,7.2632,474,875,0
14241740,94,0.4077,1.0190,-0.2256,133.9722,-30.7007,5.9814,483,900,0
14246739,95,0.4072,1.0386,-0.2607,121.8262,-29.9072,4.5776,489,890,0
14251733,96,0.4023,1.0205,-0.2876,110.4736,-30.3345,4.1504,491,910,0
14256735,97,0.4077,0.9775,-0.3013,101.3184,-32.7148,6.4697,480,874,0
14261744,98,0.4082,0.9194,-0.3154,93.7500,-35.1562,11.4136,492,874,0
14266737,99,0.4004,0.8599,-0.3379,87.5244,-37.4756,18.4937,464,954,0
14271739,100,0.3833,0.8325,-0.3530,82.2143,-39.6729,27.7100,482,902,0
14276735,101,0.3774,0.8403,-0.3472,80.0171,-42.5415,36.0718,464,948,0
14281738,102,0.3730,0.8848,-0.3467,82.7637,-46.0205,40.6494,482,892,0
14286738,103,0.3677,0.9355,-0.3525,91.2476,-49.0112,39.8560,470,937,0
14291741,104,0.3770,0.9619,-0.3257,103.3325,-51.6357,33.3862,474,946,0
14296739,105,0.3931,0.9741,-0.2524,114.3799,-52.9785,24.0478,474,996,0
14301733,106,0.4180,1.0010,-0.1802,122.6196,-52.1851,15.3198,477,948,0
14306740,107,0.4248,1.0151,-0.1602,130.0049,-49.4385,7.6294,466,939,0
14311756,108,0.3896,1.0332,-0.1382,133.8501,-48.2178,1.5869,465,878,0
14316737,109,0.4634,1.0264,-0.1387,140.9912,-66.8945,4.7607,482,913,0
14321739,110,0.5308,0.9663,-0.1611,139.9536,-89.1724,11.0474,491,879,0
14326741,111,0.4512,0.9160,-0.1045,121.7041,-87.2192,7.5073,465,951,0
14331733,112,0.3354,0.8730,-0.0498,108.0933,-79.5898,6.5308,492,933,0
14336735,113,0.3447,0.8374,-0.0991,103.7598,-78.3691,16.2354,477,844,0
14341739,114,0.3828,0.8491,-0.2061,100.8301,-82.3364,30.0903,484,839,0
14346736,115,0.4058,0.9087,-0.2471,100.5249,-87.7075,38.8794,487,897,0
14351733,116,0.3999,0.9575,-0.2144,108.5815,-98.5107,40.5273,490,880,0
14356737,117,0.4126,0.9546,-0.1934,118.8965,-114.6240,42.6025,481,932,0
14361735,118,0.3687,0.9775,-0.1646,117.3096,-117.6147,40.5884,487,901,0
14366739,119,0.3115,1.0332,-0.1245,114.0137,-111.2060,33.7524,492,902,0
14371741,120,0.3276,1.0625,-0.1123,117.1875,-104.8584,28.0762,465,930,0
14376733,121,0.3765,1.0698,-0.1016,121.2768,-101.8066,24.1699,482,930,0
14381741,122,0.4199,1.0474,-0.0581,124.4507,-101.5625,20.8740,464,933,0
14386734,123,0.4521,1.0049,0.0122,125.8545,-100.8301,17.3950,483,927,0
14391741,124,0.4341,0.9756,0.0859,124.3286,-98.3887,14.5874,464,849,0
14396740,125,0.3877,0.9722,0.1372,122.0703,-95.8252,13.5498,481,925,0
14401741,126,0.3945,0.9731,0.1431,120.2393,-92.2851,13.6719,467,997,0
14406736,127,0.4131,0.9736,0.1392,116.8823,-85.7544,11.8408,469,916,0
14411742,128,0.4180,0.9551,0.1406,113.9526,-77.5757,9.0942,478,954,0
14416737,129,0.4097,0.9243,0.1196,112.1826,-71.2280,8.1177,472,885,0
14421738,130,0.3882,0.9043,0.0845,111.3281,-67.3218,9.2163,482,918,0
14426735,131,0.3760,0.8955,0.0557,112.9150,-65.9790,10.6201,483,910,0
14431741,132,0.3726,0.9028,0.0317,117.1875,-67.9321,10.9863,464,949,0
14436741,133,0.3730,0.9282,0.0122,123.6572,-72.1436,10.3760,492,923,0
14441736,134,0.3691,0.9429,0.0005,132.0801,-77.2095,7.7515,465,847,0
14446742,135,0.3594,0.9546,-0.0015,141.7847,-82.2754,3.9062,479,859,0
14451735,136,0.3442,0.9585,-0.0029,152.0996,-87.4634,-0.6104,470,865,0
14456737,137,0.3340,0.9321,0.0078,162.4756,-92.8345,-5.1880,486,894,0
14461737,138,0.3408,0.8857,0.0576,170.5932,-98.5107,-8.8501,471,907,0
14466735,139,0.3604,0.8604,0.1274,175.4150,-103.5767,-9.8877,480,880,0
14471739,140,0.3804,0.8735,0.1953,178.8940,-107.2388,-8.7891,492,883,0
14476740,141,0.3936,0.8965,0.2529,182.4341,-109.3750,-7.9346,465,909,0
14481740,142,0.3960,0.9072,0.3086,186.0351,-109.9853,-7.8125,465,939,0
14486738,143,0.3936,0.8975,0.3667,188.0493,-108.6426,-7.4463,464,914,0
14491738,144,0.3828,0.8833,0.4106,186.3403,-105.4687,-6.1035,481,911,0
14496740,145,0.3594,0.8496,0.4272,181.7016,-100.4028,-4.2725,464,937,0
14501736,146,0.3403,0.8130,0.4277,173.3398,-95.2759,-0.7324,464,912,0
14506736,147,0.3369,0.8184,0.4155,161.9873,-92.3462,5.0659,469,976,0
14511740,148,0.3423,0.8438,0.3833,152.8931,-90.4541,9.7046,475,928,0
14516738,149,0.3354,0.8394,0.3423,148.3765,-89.8437,12.0239,472,943,0
14521739,150,0.3267,0.8164,0.3184,146.4844,-90.4541,12.9395,476,941,0
14526750,151,0.3198,0.8164,0.3179,147.8882,-91.7358,12.6343,474,924,0
14531733,152,0.3145,0.8213,0.3208,153.1982,-93.4448,10.8643,482,933,0
14536741,153,0.3140,0.8276,0.3203,161.8042,-95.0928,7.3853,492,949,0
14541741,154,0.3091,0.8228,0.3130,172.8515,-96.4355,2.3804,472,933,0
14546738,155,0.2930,0.8027,0.3140,186.4014,-98.0835,-3.1128,492,905,0
14551741,156,0.2832,0.7695,0.3340,201.9043,-100.7080,-8.9111,465,800,0
14556739,157,0.2827,0.7520,0.3740,216.8579,-104.7363,-13.6719,485,910,0
14561737,158,0.2783,0.7559,0.4194,230.6518,-109.4971,-17.0288,472,906,0
14566742,159,0.2588,0.7646,0.4673,243.7134,-114.1357,-20.2637,479,895,0
14571736,160,0.2642,0.7681,0.5117,254.4556,-117.2485,-25.1465,482,905,0
14576733,161,0.2964,0.7646,0.5552,261.5967,-118.5303,-29.1748,470,953,0
14581733,162,0.2886,0.7368,0.6099,265.3809,-117.9809,-30.2124,491,897,0
14586737,163,0.2861,0.6943,0.6523,264.4653,-115.6616,-31.0059,464,924,0
14591733,164,0.2866,0.6802,0.6768,259.6436,-111.5723,-30.1514,482,931,0
14596738,165,0.2822,0.6904,0.6958,254.3945,-108.3984,-26.4282,464,920,0
14601735,166,0.2729,0.6997,0.7100,249.5727,-108.7646,-20.7520,483,940,0
14606735,167,0.2607,0.7017,0.7153,243.2861,-111.1450,-14.8315,464,952,0
14611737,168,0.2451,0.7031,0.7056,235.3515,-112.2436,-10.3760,464,936,0
14616738,169,0.2446,0.7056,0.6851,228.6377,-112.3657,-7.7515,466,998,0
14621735,170,0.2510,0.6953,0.6777,224.4263,-111.5112,-5.6152,471,942,0
14626737,171,0.2236,0.6704,0.6870,221.8628,-110.1074,-5.4932,481,947,0
14631739,172,0.2056,0.6367,0.6929,221.2524,-109.5581,-8.8501,464,926,0
14636735,173,0.1963,0.6104,0.6895,222.6562,-108.2764,-12.2070,483,918,0
14641739,174,0.1924,0.5933,0.6943,224.8535,-107.3608,-15.7471,491,910,0
14646741,175,0.1924,0.5928,0.7158,228.5156,-106.8115,-19.2871,465,961,0
14651741,176,0.1924,0.5830,0.7466,232.0556,-106.1401,-23.4375,493,931,0
14656737,177,0.1890,0.5615,0.7812,234.9853,-105.5908,-26.4893,463,861,0
14661733,178,0.1709,0.5474,0.8154,236.6943,-104.9194,-28.4424,490,949,0
14666734,179,0.1572,0.5298,0.8496,237.0605,-103.6987,-29.2969,483,906,0
14671741,180,0.1616,0.5156,0.8770,237.1826,-101.5015,-28.9307,489,935,0
14676734,181,0.1748,0.5098,0.8862,237.2436,-99.2432,-28.5645,490,903,0
14681735,182,0.1680,0.5103,0.8989,237.9761,-97.4121,-29.6020,479,952,0
14686734,183,0.1680,0.5000,0.9175,238.8306,-95.0317,-32.1045,492,925,0
14691736,184,0.1621,0.4717,0.9458,239.7461,-91.5527,-34.6680,465,908,0
14696734,185,0.1499,0.4526,0.9678,239.5019,-87.4023,-36.4990,482,952,0
14701739,186,0.1479,0.4424,0.9639,240.7226,-84.9609,-37.7808,465,923,0
14706741,187,0.1450,0.4150,0.9453,243.0420,-84.3506,-38.5742,482,950,0
14711733,188,0.1343,0.3955,0.9448,243.6523,-84.1675,-38.7573,464,911,0
14716735,189,0.1221,0.3892,0.9546,244.6289,-83.6182,-39.1846,471,957,0
14721735,190,0.1216,0.3794,0.9688,246.2158,-81.9092,-41.0156,476,997,0
14726736,191,0.1162,0.3633,0.9888,247.4975,-79.6509,-43.3960,476,943,0
14731738,192,0.0947,0.3462,1.0210,248.2300,-79.3457,-44.9219,481,948,0
14736737,193,0.1001,0.3403,1.0366,249.4507,-80.5664,-46.2646,481,898,0
14741735,194,0.1235,0.3193,1.0308,251.9531,-82.4585,-48.1567,482,929,0
14746734,195,0.1279,0.3042,1.0488,252.1973,-85.0830,-49.2554,508,942,0
14751740,196,0.1147,0.3071,1.0928,249.0845,-85.9375,-50.2930,467,926,0
14756735,197,0.1074,0.3027,1.1387,244.2016,-83.8623,-52.9785,485,953,0
14761737,198,0.0952,0.2812,1.1777,237.0605,-78.6743,-56.7017,463,862,0
14766735,199,0.0991,0.2354,1.1973,227.9663,-70.6177,-59.3262,485,880,0
14771739,200,0.1069,0.1885,1.1953,216.8579,-61.0352,-60.9131,474,918,0
14776734,201,0.1021,0.1587,1.1670,205.0171,-51.8799,-60.9741,480,894,0
14781736,202,0.0845,0.1255,1.1333,194.9463,-43.7622,-60.9131,473,917,0
14786739,203,0.0806,0.0986,1.1021,186.8286,-37.6587,-61.4014,488,945,0
14791739,204,0.0752,0.0742,1.0859,181.7627,-33.9966,-62.1338,490,910,0
14796733,205,0.0649,0.0347,1.0889,179.3213,-30.0903,-64.1479,465,918,0
14801740,206,0.0615,0.0000,1.1030,176.8188,-23.8037,-66.5894,482,914,0
14806738,207,0.0459,-0.0132,1.1050,175.1098,-17.6392,-68.2983,464,906,0
14811734,208,0.0576,-0.0132,1.0854,175.5371,-11.1084,-70.9229,482,939,0
14816734,209,0.0767,-0.0312,1.0615,179.1992,-7.3242,-74.5850,464,829,0
14821733,210,0.0889,-0.0522,1.0659,183.1055,-5.6152,-78.3081,469,957,0
14826739,211,0.0952,-0.0684,1.0967,185.8520,-4.4556,-81.2378,474,891,0
14831741,212,0.0854,-0.1128,1.1216,188.4765,-2.7466,-83.4351,469,931,0
14836734,213,0.0815,-0.1558,1.1260,190.6128,-2.0142,-83.6792,469,861,0
14841739,214,0.0986,-0.1221,1.1216,199.2187,-6.4697,-80.2002,479,886,0
14846734,215,0.1113,-0.0952,1.1265,203.6743,-8.3008,-79.8340,482,909,0
14851741,216,0.1279,-0.0547,1.1367,204.1015,-9.5215,-81.2378,509,912,0
14856734,217,0.1255,-0.0229,1.1582,201.4160,-9.0332,-84.2285,491,938,0
14861739,218,0.1055,-0.0020,1.1733,197.1435,-5.5542,-88.5010,477,944,0
14866734,219,0.0684,-0.0210,1.1631,193.4204,0.7324,-94.4214,491,929,0
14871741,220,0.0322,-0.1060,1.1279,190.4907,8.1177,-100.2808,478,879,0
14876741,221,0.0176,-0.2354,1.1196,185.4858,14.8926,-102.3559,480,881,0
14881742,222,0.0283,-0.3345,1.1318,177.0630,20.3247,-99.9145,491,935,0
14886733,223,0.0425,-0.3579,1.1191,166.6870,24.7803,-95.0317,487,930,0
14891735,224,0.0483,-0.3418,1.1021,156.7993,26.9775,-89.5386,485,925,0
14896739,225,0.0581,-0.3311,1.1074,147.7661,29.1748,-84.6558,486,892,0
14901736,226,0.0522,-0.2866,1.1055,138.1226,31.4941,-80.5664,492,894,0
14906734,227,0.0493,-0.2202,1.0972,128.6621,33.1421,-78.5522,482,952,0
14911738,228,0.0537,-0.1821,1.1030,123.4131,34.1187,-78.9795,464,939,0
14916739,229,0.0571,-0.1768,1.1377,119.6899,37.1094,-81.4819,484,944,0
14921734,230,0.0752,-0.1660,1.1826,113.2812,43.2739,-85.1440,464,911,0
14926733,231,0.0874,-0.1328,1.1963,103.9429,51.3306,-89.1724,466,931,0
14931737,232,0.1099,-0.1025,1.2041,95.5200,59.6924,-94.3603,471,997,0
14936736,233,0.1318,-0.0942,1.2339,89.7827,68.2373,-101.3184,470,918,0
14941735,234,0.1274,-0.1064,1.2720,85.6323,78.1250,-108.2153,475,951,0
14946737,235,0.0693,-0.1348,1.3071,80.7495,89.0503,-115.9668,477,905,0
14951756,236,0.0010,-0.2188,1.3169,74.5850,100.8911,-127.3804,482,906,0
14956739,237,0.0332,-0.3247,1.2788,66.5894,115.2954,-138.6719,464,954,0
14961733,238,0.0483,-0.3872,1.2720,55.2368,134.2163,-141.9067,492,954,0
14966734,239,0.0396,-0.4048,1.2900,43.3350,151.9775,-141.7847,487,957,0
14971737,240,0.0278,-0.4199,1.2783,34.9121,165.8935,-141.6626,463,848,0
14976742,241,0.0088,-0.3853,1.2246,27.8931,176.5137,-142.6392,479,823,0
14981734,242,-0.0103,-0.3369,1.1582,24.5972,184.8755,-145.8740,482,917,0
14986733,243,-0.0342,-0.3125,1.0879,24.8413,191.2231,-151.4282,489,926,0
14991733,244,-0.0498,-0.2900,1.0132,26.4282,195.7397,-156.0059,477,930,0
14996738,245,-0.0610,-0.3125,0.9424,28.9917,196.5942,-157.4707,487,920,0
15001738,246,-0.0640,-0.3936,0.8750,31.4941,192.6880,-156.2500,484,896,0
15006741,247,-0.0659,-0.4736,0.8247,33.3862,185.6079,-153.2593,464,891,0
15011737,248,-0.0547,-0.5303,0.8057,36.0107,176.8188,-149.8413,465,923,0
15016734,249,-0.0244,-0.5327,0.8110,39.0625,168.8232,-146.5454,464,913,0
15021733,250,0.0029,-0.4741,0.8398,41.9311,161.8042,-144.0430,483,924,0
15026733,251,0.0669,-0.4097,0.9102,44.1894,156.1279,-143.4937,464,910,0
15031734,252,0.1406,-0.4219,1.0049,45.4102,153.6865,-142.9443,482,913,0
15036740,253,0.1523,-0.5107,1.0771,45.4102,154.4189,-140.1978,464,997,0
15041733,254,0.1367,-0.6167,1.0933,42.6636,156.6162,-134.0332,481,938,0
15046734,255,0.1265,-0.7002,1.0527,36.7432,160.0342,-125.5493,471,948,0
15051734,256,0.1035,-0.7373,0.9863,28.3813,162.9639,-115.1733,471,894,0
15056741,257,0.0830,-0.7383,0.9170,21.4844,163.3301,-103.5767,483,922,0
15061737,258,0.0815,-0.7266,0.8589,17.2729,161.0107,-92.5903,464,903,0
15066738,259,0.0835,-0.7046,0.8374,17.4561,155.4565,-83.9233,492,917,0
15071741,260,0.0903,-0.6865,0.8345,20.5078,147.9492,-78.3691,472,941,0
15076733,261,0.1284,-0.6719,0.8530,22.6440,139.8315,-74.5850,492,942,0
15081741,262,0.1826,-0.6401,0.8848,22.3389,132.9956,-71.1670,474,822,0
15086734,263,0.2163,-0.6309,0.9248,20.5078,129.0283,-68.4814,475,916,0
15091734,264,0.2349,-0.6587,0.9463,16.3574,127.9297,-65.4297,481,915,0
15096737,265,0.2397,-0.6831,0.9297,9.8267,127.6855,-62.0728,470,885,0
15101740,266,0.2466,-0.6982,0.8931,2.3804,127.1362,-58.7769,477,934,0
15106737,267,0.2588,-0.6943,0.8599,-6.2866,125.6103,-54.5044,477,910,0
15111733,268,0.2637,-0.6670,0.8276,-14.8926,123.3520,-49.4995,492,883,0
15116737,269,0.2798,-0.6245,0.8223,-19.7754,119.6899,-45.1050,465,961,0
15121741,270,0.2920,-0.6011,0.8760,-18.7988,114.1357,-44.4946,464,950,0
15126735,271,0.2949,-0.6025,0.9609,-13.6108,109.9243,-46.0815,478,952,0
15131740,272,0.3149,-0.6240,1.0239,-6.8359,109.6191,-46.8140,464,921,0
15136739,273,0.3184,-0.6411,1.0322,-1.8311,111.4502,-45.5933,464,915,0
15141739,274,0.2988,-0.6494,1.0073,-3.2349,116.0278,-42.5415,469,976,0
15146736,275,0.2676,-0.6597,0.9756,-9.7656,122.8027,-37.7808,474,934,0
15151739,276,0.2661,-0.6880,0.9473,-18.7988,132.3853,-32.2266,481,930,0
15156739,277,0.2788,-0.6855,0.9111,-30.2124,142.9443,-26.1841,481,862,0
15161741,278,0.2842,-0.6572,0.8657,-39.3677,148.6206,-20.1416,481,937,0
15166735,279,0.2939,-0.6450,0.8188,-44.3115,146.8506,-15.7471,465,927,0
15171735,280,0.3184,-0.6138,0.7637,-45.1660,140.2588,-12.8784,492,950,0
15176736,281,0.3301,-0.5767,0.7139,-43.2129,133.4229,-12.4512,476,949,0
15181733,282,0.3384,-0.5610,0.7119,-40.3442,128.4180,-12.7563,492,942,0
15186735,283,0.3618,-0.5449,0.7539,-38.6353,125.8545,-12.6343,476,822,0
15191734,284,0.3877,-0.5220,0.7979,-34.4849,122.5586,-13.2446,473,852,0
15196733,285,0.4121,-0.5078,0.8223,-29.2358,119.2627,-14.7095,483,923,0
15201735,286,0.4272,-0.4800,0.8579,-26.6113,117.1265,-15.9302,470,930,0
15206739,287,0.4224,-0.4199,0.9141,-24.7803,117.0654,-17.0288,477,903,0
15211741,288,0.4336,-0.3599,0.9976,-22.4609,119.8120,-19.5923,480,887,0
15216759,289,0.4688,-0.3550,1.1157,-23.0713,124.6338,-23.7427,492,889,0
15221738,290,0.5010,-0.3931,1.2271,-27.9541,133.4229,-26.1230,465,958,0
15226741,291,0.5034,-0.4614,1.2656,-36.9873,147.3389,-26.4893,464,910,0
15231736,292,0.4746,-0.5488,1.2065,-49.9878,163.6963,-25.8179,483,951,0
15236733,293,0.4517,-0.5879,1.0542,-65.2466,177.4902,-21.0571,464,951,0
15241742,294,0.4458,-0.6074,0.9033,-78.4302,184.5703,-14.1602,481,917,0
15246741,295,0.4258,-0.6152,0.8223,-87.9517,184.4482,-8.4839,477,977,0
15251734,296,0.4199,-0.6001,0.7588,-90.2100,180.9692,-4.3945,465,937,0
15256739,297,0.4365,-0.5928,0.6978,-85.9375,177.3681,-1.8921,474,920,0
15261734,298,0.4448,-0.5947,0.6694,-79.8340,173.5229,-1.7090,473,891,0
15266756,299,0.4526,-0.5938,0.6475,-73.9136,169.8608,-1.2817,483,919,0
15271739,300,0.4756,-0.5791,0.6470,-67.7490,162.5366,0.4272,482,946,0
15276733,301,0.5249,-0.6006,0.7036,-61.4624,152.7100,2.3193,492,908,0
15281740,302,0.5581,-0.6255,0.7622,-59.8755,146.1792,4.8218,485,899,0
15286739,303,0.5635,-0.6270,0.8218,-63.2324,145.6909,8.9722,463,933,0
15291735,304,0.5581,-0.5781,0.8960,-66.5894,148.7427,13.2446,468,800,0
15296739,305,0.5693,-0.5181,0.9736,-65.6128,153.4424,14.1602,483,901,0
15301740,306,0.5781,-0.5063,1.0068,-58.3496,160.6445,12.0239,487,912,0
15306739,307,0.5820,-0.5425,0.9604,-50.8423,169.0063,10.0708,473,933,0
15311742,308,0.5903,-0.5898,0.8994,-49.4995,174.7436,10.1318,486,916,0
15316740,309,0.5869,-0.6177,0.8662,-53.4058,179.2602,14.8315,486,958,0
15321739,310,0.5977,-0.6367,0.8320,-61.0352,184.3872,22.8271,492,942,0
15326740,311,0.6094,-0.6348,0.7842,-70.7397,187.9272,32.0435,464,927,0
15331735,312,0.6074,-0.6157,0.7329,-80.5054,189.5752,41.6260,464,911,0
15336736,313,0.6099,-0.6016,0.6929,-88.4399,189.2090,50.7202,483,954,0
15341737,314,0.5986,-0.5879,0.6758,-94.1162,187.8052,59.2041,464,908,0
15346734,315,0.6055,-0.5718,0.6851,-97.5342,186.9507,67.1997,474,922,0
15351737,316,0.6323,-0.5493,0.7119,-99.9145,185.8520,74.5239,481,976,0
15356733,317,0.6509,-0.5293,0.7417,-103.2715,186.5234,80.6885,464,950,0
15361739,318,0.6479,-0.5146,0.7568,-106.8115,190.9180,86.4258,470,953,0
15366736,319,0.6650,-0.5483,0.7563,-109.9243,195.0073,93.6279,469,889,0
15371750,320,0.6685,-0.5918,0.7358,-116.5771,196.7163,102.3559,482,948,0
15376738,321,0.6377,-0.5869,0.7129,-129.3945,200.5615,112.3657,465,950,0
15381741,322,0.6323,-0.5166,0.7056,-142.8223,205.6885,122.4365,492,963,0
15386741,323,0.6484,-0.4731,0.7085,-148.6206,207.2143,129.3335,483,932,0
15391736,324,0.6597,-0.4712,0.7109,-147.7051,209.2895,132.6904,492,956,0
15396739,325,0.6523,-0.4561,0.6880,-146.3013,214.8437,134.7656,479,842,0
15401738,326,0.6357,-0.4292,0.6484,-145.5688,221.4966,135.3149,485,849,0
15406736,327,0.6235,-0.4209,0.6099,-144.6533,226.9897,134.7046,473,932,0
15411736,328,0.6118,-0.4214,0.5742,-146.4233,229.8584,134.0332,483,924,0
15416735,329,0.6167,-0.4028,0.5278,-151.9775,229.7363,134.6436,471,930,0
15421735,330,0.6294,-0.3906,0.4834,-159.3628,227.6611,136.0474,470,930,0
15426738,331,0.6353,-0.3706,0.4702,-167.6636,225.7080,137.8174,492,923,0
15431738,332,0.6797,-0.3408,0.4565,-173.7060,222.9614,139.1602,482,954,0
15436740,333,0.7046,-0.3438,0.4536,-177.9175,220.6421,138.9160,464,958,0
15441733,334,0.7168,-0.3384,0.4644,-182.4341,222.3511,138.9160,482,984,0
15446739,335,0.7212,-0.3286,0.4546,-185.1806,225.5859,139.0991,464,913,0
15451741,336,0.7432,-0.3018,0.4224,-187.0727,227.1728,138.0005,476,925,0
15456735,337,0.7397,-0.2847,0.3916,-185.4248,227.7832,133.3008,476,964,0
15461735,338,0.7539,-0.2920,0.3511,-178.8330,226.8066,127.0752,464,916,0
15466736,339,0.7559,-0.2925,0.2856,-171.0205,223.9990,121.4600,467,923,0
15471736,340,0.7319,-0.2666,0.2227,-163.6352,222.5342,116.5161,469,887,0
15476748,341,0.7324,-0.2402,0.1851,-154.1138,221.1304,112.9150,482,927,0
15481742,342,0.7578,-0.2163,0.1558,-144.6533,218.2007,110.5957,483,910,0
15486735,343,0.7383,-0.1733,0.1616,-138.5498,215.3320,108.6426,491,929,0
15491738,344,0.7578,-0.1504,0.1758,-133.1787,211.9751,107.6050,465,962,0
15496733,345,0.7539,-0.1479,0.1851,-130.8594,208.3130,106.3232,493,954,0
15501736,346,0.7534,-0.1362,0.1890,-133.7280,207.2143,104.4922,480,852,0
15506740,347,0.7817,-0.1519,0.1948,-137.5122,206.4819,104.3091,490,839,0
15511741,348,0.7969,-0.1689,0.2021,-143.2495,206.4819,105.3467,473,902,0
15516734,349,0.7920,-0.1631,0.1826,-149.2310,207.5806,107.4829,480,905,0
15521738,350,0.7905,-0.1587,0.1343,-155.0903,208.3740,110.0464,476,925,0
15526739,351,0.7778,-0.1440,0.0845,-161.2549,208.0078,111.9385,470,895,0
15531734,352,0.7715,-0.1235,0.0542,-165.4663,207.6416,112.3657,492,901,0
15536733,353,0.7832,-0.1157,0.0176,-166.1987,207.1533,111.1450,481,963,0
15541741,354,0.8174,-0.0996,-0.0537,-164.0625,204.8950,109.0088,465,971,0
15546739,355,0.8379,-0.0923,-0.1523,-154.6631,199.5849,106.9336,483,926,0
15551739,356,0.8535,-0.0977,-0.2373,-140.5029,191.9556,106.3232,464,916,0
15556733,357,0.8452,-0.0791,-0.2520,-125.3052,182.3120,106.9336,464,957,0
15561737,358,0.8438,-0.0459,-0.2080,-110.2905,172.3022,105.8350,469,999,0
15566736,359,0.8320,-0.0254,-0.1343,-98.0225,164.5508,101.9897,469,1040,0
15571737,360,0.8281,-0.0254,-0.0645,-90.0879,159.3628,97.9614,469,953,0
15576735,361,0.8379,-0.0327,-0.0371,-87.7685,156.6772,94.6655,467,896,0
15581740,362,0.8286,-0.0249,-0.0342,-89.1724,157.0435,92.8345,483,938,0
15586734,363,0.8315,0.0024,-0.0601,-90.6372,158.1421,93.3227,465,898,0
15591739,364,0.8232,0.0278,-0.0967,-92.4072,158.7524,92.4683,492,937,0
15596739,365,0.8208,0.0200,-0.1035,-94.1772,158.5693,90.6982,492,951,0
15601733,366,0.7959,0.0288,-0.1001,-95.6421,158.2642,90.6372,489,920,0
15606740,367,0.8062,0.0361,-0.1626,-95.0928,158.8135,90.4541,465,830,0
15611741,368,0.7881,0.0396,-0.2456,-94.1162,160.4614,89.5386,482,823,0
15616736,369,0.8115,0.0405,-0.2891,-89.9048,158.7524,89.1724,488,871,0
15621740,370,0.8516,0.0298,-0.2930,-84.8389,154.5410,90.0268,480,888,0
15626740,371,0.8643,0.0249,-0.2456,-82.5806,149.5972,91.9189,475,914,0
15631736,372,0.8564,0.0210,-0.1797,-83.0688,146.4233,95.8862,486,919,0
15636743,373,0.8701,0.0254,-0.1724,-88.6230,147.2168,100.4028,488,923,0
15641734,374,0.8521,0.0508,-0.2148,-97.2290,150.0854,103.9429,492,890,0
15646734,375,0.8213,0.0767,-0.2759,-104.3701,151.0010,107.5439,482,945,0
15651739,376,0.7949,0.0854,-0.3057,-110.0464,149.1699,111.0840,464,949,0
15656740,377,0.7905,0.0859,-0.3052,-113.5254,146.9116,115.0513,483,955,0
15661735,378,0.8003,0.1069,-0.3271,-114.2578,146.3013,117.1875,467,918,0
15666735,379,0.7656,0.1592,-0.3950,-110.6567,145.9351,114.9902,480,957,0
15671734,380,0.7393,0.1934,-0.4751,-101.1352,142.5781,108.7646,481,1000,0
15676736,381,0.7207,0.2095,-0.5039,-89.1724,137.3901,101.1352,464,956,0
15681737,382,0.7104,0.2407,-0.4951,-77.5146,131.6528,94.5434,466,943,0
15686738,383,0.7222,0.2393,-0.4805,-66.2842,126.7700,87.1582,465,934,0
15691741,384,0.7212,0.2197,-0.4814,-58.8989,123.9014,80.5054,482,926,0
15696742,385,0.7217,0.2261,-0.5337,-52.6733,118.6523,73.4253,465,926,0
15701741,386,0.7339,0.2148,-0.5820,-48.7671,115.2344,70.6787,491,951,0
15706734,387,0.7529,0.1846,-0.6045,-43.3350,110.5347,69.5190,472,921,0
15711734,388,0.7490,0.1562,-0.5913,-37.1704,104.7974,69.7021,463,907,0
15716736,389,0.7334,0.1602,-0.5708,-31.6772,98.9380,71.2280,476,842,0
15721738,390,0.7280,0.1880,-0.5713,-27.1606,94.0552,69.8242,482,909,0
15726734,391,0.7266,0.2056,-0.5830,-23.1323,90.7593,65.7959,480,914,0
15731737,392,0.7036,0.2031,-0.5815,-19.1650,87.1582,62.6831,471,913,0
15736735,393,0.7129,0.1890,-0.6025,-14.8926,81.7261,61.2793,477,938,0
15741741,394,0.6909,0.1890,-0.6582,-12.3291,77.4536,59.5093,483,917,0
15746736,395,0.6851,0.1987,-0.7437,-7.9346,72.2656,56.7017,492,921,0
15751733,396,0.7041,0.2153,-0.8140,-0.5493,64.0259,52.9785,482,924,0
15756737,397,0.7012,0.2285,-0.8408,8.4229,54.1992,47.6685,465,901,0
15761734,398,0.6802,0.2393,-0.8242,18.6768,42.1753,40.1611,482,895,0
15766740,399,0.6499,0.2451,-0.7749,31.8603,31.2500,37.0483,464,826,0
15771739,400,0.6670,0.2505,-0.7300,44.7388,22.8271,34.5459,481,921,0
15776740,401,0.6826,0.2812,-0.6899,54.9927,16.9067,29.9683,465,995,0
15781734,402,0.7261,0.3193,-0.6245,64.7583,11.2915,24.6582,465,937,0
15786734,403,0.7622,0.3154,-0.5366,74.5239,8.2397,20.0195,478,950,0
15791736,404,0.7793,0.2891,-0.4673,81.3599,7.7515,16.8457,480,881,0
15796734,405,0.7837,0.2749,-0.4502,83.8623,9.5825,14.7705,482,876,0
15801737,406,0.7803,0.2822,-0.4536,83.2519,11.8408,13.7939,465,935,0
15806741,407,0.8008,0.2769,-0.4644,83.0078,12.8174,14.1602,491,956,0
15811740,408,0.7979,0.2783,-0.4648,81.5430,14.3433,15.6250,465,940,0
15816733,409,0.8081,0.2710,-0.4609,79.8340,15.2588,18.2495,493,953,0
15821738,410,0.8169,0.2622,-0.4595,77.3315,16.7236,22.0337,491,893,0
15826735,411,0.7974,0.2422,-0.4673,73.7305,18.4937,26.8555,485,825,0
15831733,412,0.7881,0.2358,-0.4897,69.0308,20.5078,32.0435,477,875,0
15836742,413,0.7578,0.2993,-0.5483,64.3311,22.0337,37.9639,486,874,0
15841738,414,0.7520,0.3628,-0.5908,65.6128,19.8975,43.1519,490,908,0
15846734,415,0.7324,0.3940,-0.5723,69.9463,16.5405,43.6401,480,916,0
15851735,416,0.7573,0.4604,-0.5156,70.3735,15.3809,42.2974,465,881,0
15856733,417,0.7427,0.5293,-0.4365,67.1997,19.1650,40.4663,482,890,0
15861736,418,0.7139,0.5542,-0.3853,63.9038,23.6816,38.2690,464,910,0
15866735,419,0.7349,0.5615,-0.4150,56.9458,29.8462,37.2314,483,934,0
15871739,420,0.7119,0.5952,-0.4590,44.6167,37.6587,36.1938,474,938,0
15876735,421,0.6611,0.6064,-0.4883,36.9263,41.0156,35.0952,476,942,0
15881734,422,0.6699,0.6045,-0.5562,33.5083,41.7480,33.3862,481,899,0
15886737,423,0.6592,0.6060,-0.6416,29.7852,44.0674,29.7241,464,929,0
15891738,424,0.6523,0.5918,-0.7129,30.5176,42.8467,25.5127,466,937,0
15896736,425,0.6509,0.5649,-0.7588,34.6069,36.8652,22.0337,465,930,0
15901748,426,0.6899,0.5376,-0.7866,38.2080,30.0903,16.7847,482,890,0
15906740,427,0.6709,0.5166,-0.7979,42.2974,24.2920,12.8174,465,934,0
15911736,428,0.6772,0.4819,-0.8130,48.3398,15.5029,8.7891,492,918,0
15916735,429,0.6475,0.4707,-0.7935,54.4434,6.2866,6.1035,479,935,0
15921742,430,0.6851,0.4854,-0.7734,61.0962,-1.8921,2.9907,465,874,0
15926736,431,0.7144,0.4971,-0.7383,65.6128,-6.5918,-0.4883,465,803,0
15931735,432,0.7339,0.4829,-0.6641,69.0918,-12.8174,-3.0518,477,874,0
15936740,433,0.7427,0.4570,-0.5903,70.8618,-17.7002,-3.4790,483,864,0
15941737,434,0.7397,0.4585,-0.5273,69.0308,-18.3716,-2.0752,488,880,0
15946741,435,0.7373,0.4956,-0.4741,65.9180,-16.5405,-0.7935,479,889,0
15951740,436,0.7642,0.5259,-0.4185,64.9414,-13.8550,0.5493,478,866,0
15956735,437,0.7808,0.5293,-0.3696,63.6597,-8.7891,1.0376,492,896,0
15961734,438,0.7109,0.5283,-0.3091,60.7910,-2.6245,1.5259,482,879,0
15966738,439,0.7261,0.4907,-0.3018,59.8755,2.0752,2.5635,464,884,0
15971733,440,0.7344,0.4839,-0.3301,52.4902,11.1084,4.0894,482,897,0
15976740,441,0.7188,0.4912,-0.3633,44.1284,19.1040,4.9438,468,892,0
15981736,442,0.7075,0.5063,-0.4243,37.9028,22.7051,6.1646,466,929,0
15986734,443,0.6826,0.5298,-0.5068,32.7759,24.1089,7.2021,474,913,0
15991738,444,0.6606,0.5400,-0.5747,30.3955,23.3765,7.3242,479,887,0
15996733,445,0.6558,0.5493,-0.6245,30.4565,20.5688,6.4697,479,861,0
16001740,446,0.6562,0.5493,-0.6499,32.3486,16.7236,4.8828,464,922,0
16006745,447,0.6875,0.5356,-0.6514,35.0952,11.9629,2.9907,482,942,0
16011733,448,0.6987,0.5269,-0.6235,37.2925,7.6904,2.0752,464,930,0
16016738,449,0.6748,0.5151,-0.5449,38.8794,3.6011,3.4790,491,910,0
16021737,450,0.6821,0.4927,-0.4722,38.7573,0.7935,5.9814,474,912,0
16026734,451,0.6978,0.4980,-0.4321,34.1797,3.8452,8.6670,492,911,0
16031739,452,0.6963,0.5186,-0.4185,28.1372,8.1787,10.1318,463,835,0
16036741,453,0.6802,0.5254,-0.4185,24.0478,9.6436,11.1694,489,857,0
16041737,454,0.6714,0.5068,-0.4390,23.0713,10.8643,11.2915,473,901,0
16046734,455,0.6787,0.4893,-0.4707,23.1934,14.2822,10.3149,488,920,0
16051739,456,0.7280,0.4756,-0.5078,24.8413,16.5405,9.3994,480,924,0
16056741,457,0.7046,0.4761,-0.5205,26.8555,16.4795,8.4839,482,915,0
16061733,458,0.6504,0.4800,-0.5020,31.9214,14.0381,9.4604,491,890,0
16066737,459,0.6421,0.4707,-0.4873,36.2549,13.0005,10.5591,482,893,0
16071735,460,0.6445,0.4639,-0.4771,36.4990,13.6719,11.1694,464,905,0
16076735,461,0.6479,0.4717,-0.4673,35.7666,13.4888,13.3667,482,907,0
16081733,462,0.6724,0.4824,-0.4629,33.1421,13.7939,15.9302,472,938,0
16086736,463,0.6870,0.4922,-0.4468,27.7710,15.8081,17.7612,481,942,0
16091739,464,0.6836,0.4873,-0.4321,21.9727,17.1509,19.8975,481,998,0
16096735,465,0.6729,0.4712,-0.4414,15.3809,18.3105,23.0103,464,934,0
16101737,466,0.6553,0.4526,-0.4731,8.1787,20.2026,26.9165,476,860,0
16106733,467,0.6465,0.4487,-0.5176,2.1362,21.1792,30.4565,475,920,0
16111762,468,0.6372,0.4639,-0.5654,-0.6714,20.0195,32.6538,465,916,0
16116739,469,0.6265,0.4902,-0.6006,1.3428,17.9443,32.9590,465,891,0
16121741,470,0.6167,0.5161,-0.6040,7.8125,14.9536,30.8838,464,916,0
16126733,471,0.6143,0.5225,-0.5933,16.9067,10.9253,27.5879,493,933,0
16131733,472,0.6201,0.5122,-0.5762,26.0620,7.3853,24.4141,463,804,0
16136739,473,0.6270,0.5127,-0.5542,33.2031,4.5166,21.6675,478,826,0
16141736,474,0.6294,0.5166,-0.5278,37.9639,1.7700,19.1040,481,895,0
16146737,475,0.6538,0.5107,-0.5176,39.7949,-0.4272,16.6626,473,882,0
16151733,476,0.6304,0.5137,-0.5103,40.1611,-1.7090,15.1367,484,884,0
16156741,477,0.6206,0.4995,-0.5098,43.4570,-4.0894,14.2822,473,899,0
16161742,478,0.6597,0.4565,-0.5039,47.3633,-6.6528,13.5498,487,876,0
16166735,479,0.6865,0.4185,-0.4634,48.5229,-7.5073,15.4419,492,911,0
16171741,480,0.6978,0.3975,-0.4048,48.2178,-8.1177,19.8975,464,936,0
16176735,481,0.7061,0.3911,-0.3643,45.2270,-7.2021,24.9634,483,910,0
16181738,482,0.7368,0.3882,-0.3486,39.1235,-3.4790,30.9448,464,824,0
16186738,483,0.7173,0.3892,-0.3457,31.9214,0.9766,37.6587,464,944,0
16191734,484,0.6821,0.3784,-0.3589,25.5737,3.2959,45.2270,466,912,0
16196733,485,0.6597,0.3682,-0.3687,18.3105,4.8218,52.9175,472,936,0
16201742,486,0.6567,0.3745,-0.3721,10.9863,7.0801,60.4858,478,920,0
16206737,487,0.6519,0.3896,-0.3882,5.4321,9.5825,67.3828,474,882,0
16211738,488,0.6465,0.4243,-0.4053,1.4648,11.3525,73.3643,482,898,0
16216734,489,0.6406,0.4653,-0.4355,-0.6104,12.5122,77.9419,464,927,0
16221737,490,0.6255,0.4971,-0.4521,-0.9155,13.1226,80.8716,491,900,0
16226741,491,0.6030,0.5337,-0.4517,0.3052,13.1836,82.0312,472,930,0
16231738,492,0.5859,0.5747,-0.4473,2.3804,13.2446,81.8481,490,894,0
16236736,493,0.5806,0.6055,-0.4541,4.5776,13.3057,80.0781,465,860,0
16241737,494,0.5708,0.6157,-0.4570,5.8594,13.9770,78.1860,474,893,0
16246740,495,0.5488,0.6255,-0.4419,6.5918,14.9536,77.8809,481,873,0
16251735,496,0.5396,0.6182,-0.4287,6.4697,16.3574,77.6978,487,898,0
16256737,497,0.5371,0.6108,-0.4419,3.5400,19.1040,76.7212,484,867,0
16261737,498,0.5337,0.6191,-0.4639,-0.5493,22.0947,74.2188,483,888,0
16266734,499,0.5308,0.6284,-0.4790,-4.6387,22.9492,71.5942,491,933,0
16271735,500,0.5361,0.6436,-0.4897,-6.5918,21.9116,72.8149,482,900,0
16276734,501,0.5293,0.6392,-0.4873,-7.8125,20.3857,73.9136,466,932,0
16281739,502,0.5288,0.6172,-0.4800,-8.9722,19.4702,74.1577,464,888,0
16286736,503,0.5142,0.5952,-0.4775,-11.7187,19.6533,76.2329,477,892,0
16291733,504,0.5000,0.5840,-0.4692,-15.0146,19.2261,78.8574,464,972,0
16296742,505,0.4946,0.5771,-0.4829,-17.7002,19.0430,80.5054,469,893,0
16301736,506,0.5049,0.5776,-0.5449,-18.2495,19.1650,81.2378,464,930,0
16306739,507,0.4878,0.5688,-0.6133,-15.8691,18.5547,82.5806,474,864,0
16311735,508,0.4810,0.5518,-0.6479,-10.8643,14.8926,83.3740,469,896,0
16316755,509,0.4688,0.5728,-0.6562,-3.9062,10.0098,84.0454,482,902,0
16321736,510,0.4604,0.6128,-0.6523,5.7983,6.0425,83.8623,465,980,0
16326737,511,0.5049,0.6348,-0.6411,17.5171,2.9297,81.4209,492,916,0
16331738,512,0.5430,0.6436,-0.6216,28.2593,2.2583,79.9561,464,917,0
16336738,513,0.4619,0.6621,-0.5747,37.5366,1.6479,79.6509,493,895,0
16341737,514,0.4023,0.6616,-0.5581,48.3398,-2.0752,76.3550,467,794,0
16346737,515,0.3926,0.6455,-0.5820,56.4575,-3.9673,71.6553,477,912,0
16351734,516,0.4170,0.6514,-0.6260,61.7065,-5.4321,67.2607,485,873,0
16356736,517,0.4243,0.6592,-0.6553,68.2983,-9.7656,63.9038,477,871,0
16361736,518,0.4292,0.6509,-0.6577,75.9277,-16.6016,60.8520,477,927,0
16366733,519,0.4312,0.6494,-0.6543,81.5430,-22.9492,58.8379,483,905,0
16371739,520,0.4399,0.6416,-0.6353,86.7920,-28.5645,58.7158,491,895,0
16376735,521,0.4355,0.6348,-0.5947,91.1865,-34.1187,59.8144,482,927,0
16381740,522,0.4253,0.6152,-0.5439,93.8110,-38.8794,61.9507,464,923,0
16386740,523,0.4355,0.6274,-0.5044,93.1396,-42.4194,65.3076,483,944,0
16391740,524,0.4199,0.6494,-0.4717,91.5527,-44.3115,68.5425,467,941,0
16396741,525,0.4102,0.6719,-0.4331,91.2476,-45.6543,70.9839,471,949,0
16401733,526,0.4175,0.7173,-0.3965,90.0268,-45.2270,72.8760,473,928,0
16406737,527,0.4180,0.7676,-0.3579,89.2944,-42.7856,73.5474,464,940,0
16411738,528,0.4204,0.7881,-0.3096,91.9189,-40.4663,72.6929,466,938,0
16416738,529,0.4375,0.8130,-0.2637,94.6655,-36.5601,70.0684,465,922,0
16421752,530,0.4521,0.8330,-0.2461,96.7407,-30.6396,65.7959,482,883,0
16426737,531,0.4468,0.8501,-0.2373,98.9990,-25.2686,61.8896,465,944,0
16431738,532,0.4312,0.8623,-0.2358,101.5015,-21.4233,58.1665,465,919,0
16436735,533,0.4116,0.8491,-0.2358,103.0273,-17.6392,54.5044,465,930,0
16441741,534,0.3955,0.8560,-0.2378,102.7832,-14.5264,52.1240,492,950,0
16446741,535,0.3994,0.8652,-0.2427,102.7222,-11.8408,50.9033,470,821,0
16451736,536,0.4224,0.8721,-0.2568,101.6235,-9.2163,49.6216,480,879,0
16456739,537,0.4438,0.8823,-0.2842,96.6186,-7.5073,49.3774,473,910,0
16461734,538,0.4326,0.8774,-0.2988,88.2568,-7.0190,51.0254,481,913,0
16466738,539,0.4009,0.8643,-0.2944,78.3691,-7.6904,53.7109,487,907,0
16471743,540,0.3706,0.8560,-0.2930,68.1152,-8.7280,57.0679,490,897,0
16476740,541,0.3628,0.8364,-0.3145,58.2275,-8.6060,60.0586,492,868,0
16481733,542,0.3687,0.8213,-0.3545,48.4619,-8.7891,63.7207,483,901,0
16486736,543,0.3701,0.8179,-0.3970,39.7949,-10.5591,68.2373,474,930,0
16491733,544,0.3599,0.8267,-0.4238,34.0576,-14.0991,71.9604,464,899,0
16496736,545,0.3545,0.8491,-0.4229,32.0435,-18.7378,75.4395,466,909,0
16501737,546,0.3452,0.8809,-0.3984,32.3486,-22.8882,78.1860,466,889,0
16506736,547,0.3203,0.9136,-0.3516,35.3394,-26.1841,79.5288,470,929,0
16511736,548,0.3276,0.9492,-0.2939,40.8325,-29.2358,78.0029,474,935,0
16516738,549,0.3740,0.9873,-0.2300,47.7295,-28.3203,73.9746,479,940,0
16521740,550,0.3911,1.0166,-0.1484,54.6875,-23.0713,67.9932,477,931,0
16526761,551,0.3862,1.0342,-0.0845,61.0962,-16.7847,61.2793,482,900,0
16531740,552,0.3975,1.0518,-0.0684,66.2842,-10.1318,54.4434,464,938,0
16536741,553,0.3965,1.0771,-0.0815,69.3359,-2.9297,48.8892,491,910,0
16541734,554,0.3643,1.0723,-0.0957,72.0825,2.7466,44.7388,465,925,0
16546737,555,0.3423,1.0396,-0.1177,71.6553,6.5308,41.3208,491,895,0
16551735,556,0.3267,1.0283,-0.1548,65.6738,10.5591,40.6494,489,804,0
16556741,557,0.3267,1.0386,-0.1968,57.9224,13.5498,40.8936,479,859,0
16561734,558,0.3071,1.0278,-0.2314,52.3071,13.5498,40.6494,482,891,0
16566733,559,0.2876,1.0103,-0.2583,47.0581,11.6577,39.4287,486,929,0
16571735,560,0.2935,0.9966,-0.2847,41.9922,10.4980,39.8560,477,889,0
16576752,561,0.3198,0.9824,-0.3423,34.9731,7.0190,42.4194,480,910,0
16581737,562,0.3071,0.9849,-0.3628,33.8745,3.4790,43.9453,492,874,0
16586739,563,0.3013,1.0034,-0.3901,35.4614,-1.5869,44.7388,483,929,0
16591735,564,0.3003,1.0234,-0.3984,40.9546,-7.3853,44.3115,473,926,0
16596739,565,0.2817,1.0215,-0.3599,48.2178,-13.5498,42.6025,464,893,0
16601736,566,0.2715,1.0083,-0.2725,56.0303,-19.2261,39.8560,464,923,0
16606735,567,0.2622,1.0068,-0.1826,62.8662,-21.4844,36.8652,469,976,0
16611740,568,0.2744,1.0034,-0.1191,67.1387,-19.9585,32.9590,475,913,0
16616740,569,0.3018,1.0112,-0.0776,68.2983,-15.6250,29.1138,471,932,0
16621742,570,0.3135,1.0146,-0.0557,67.5659,-10.2539,26.9775,474,944,0
16626734,571,0.3145,1.0137,-0.0459,66.2842,-5.9204,26.0010,472,930,0
16631734,572,0.2988,1.0039,-0.0518,65.6738,-2.0752,24.5361,465,896,0
16636733,573,0.2886,0.9888,-0.0698,64.8193,1.1597,23.1934,465,898,0
16641733,574,0.2700,0.9839,-0.0820,63.1103,3.2959,22.0947,492,924,0
16646735,575,0.2627,0.9731,-0.0938,62.1338,3.8452,20.8740,476,896,0
16651737,576,0.2583,0.9580,-0.1147,61.4624,4.5166,19.8364,465,953,0
16656734,577,0.2202,0.9360,-0.1279,60.4858,4.5776,19.4702,474,857,0
16661741,578,0.2412,0.9185,-0.1396,59.2041,1.8921,19.5923,485,883,0
16666740,579,0.2642,0.9141,-0.1333,57.2510,-0.0610,19.5312,477,866,0
16671735,580,0.2534,0.9360,-0.1108,54.7485,-1.7090,20.9351,486,926,0
16676736,581,0.2183,0.9233,-0.0942,52.8564,-5.4321,20.3857,482,901,0
16681757,582,0.1865,0.8813,-0.0732,50.8423,-10.0098,19.0430,485,909,0
16686736,583,0.1411,0.8774,-0.0322,44.7388,-11.2915,18.9209,492,901,0
16691737,584,0.1367,0.8813,-0.0190,39.9780,-9.7656,20.8130,464,945,0
16696736,585,0.2251,0.9326,-0.0420,33.3862,-5.3101,23.6206,479,901,0
16701737,586,0.2231,0.9927,-0.0737,28.8086,-0.8545,26.9165,464,828,0
16706741,587,0.2095,1.0405,-0.0952,28.4424,-2.2583,27.0386,464,930,0
16711736,588,0.2236,1.0127,-0.1011,30.2734,-5.6763,23.3765,464,971,0
16716733,589,0.2056,0.9805,-0.0640,31.0059,-7.8125,21.5454,469,918,0
16721736,590,0.2095,0.9712,-0.0156,31.4941,-7.3242,21.8506,475,892,0
16726737,591,0.1895,0.9746,-0.0117,32.2266,-2.5635,23.3154,474,927,0
16731737,592,0.2070,0.9795,-0.0605,32.1045,2.3804,24.1089,473,908,0
16736740,593,0.2207,0.9849,-0.1265,29.8462,4.5166,24.9634,482,865,0
16741735,594,0.2686,0.9937,-0.1572,28.2593,2.2583,26.6724,464,903,0
16746733,595,0.2925,1.0005,-0.1528,27.5879,-0.5493,29.7852,491,904,0
16751740,596,0.2539,0.9922,-0.1250,27.5879,-2.9297,34.4238,470,896,0
16756741,597,0.2310,0.9287,-0.1143,27.5269,-5.0049,37.5366,492,926,0
16761735,598,0.2529,0.8857,-0.1318,24.3530,-6.2866,42.2363,483,790,0
16766735,599,0.2354,0.8911,-0.1440,21.6064,-7.3853,48.8892,491,850,0
16771739,600,0.2231,0.8911,-0.1533,24.4751,-10.1318,52.0630,479,905,0
16776742,601,0.2153,0.9072,-0.1733,30.7617,-12.8174,51.5137,487,925,0
16781735,602,0.2261,0.9463,-0.1953,39.0015,-15.3809,50.5981,490,897,0
16786734,603,0.2676,1.0088,-0.2139,49.1333,-18.7378,49.6826,485,908,0
16791735,604,0.2148,1.0674,-0.1880,60.6689,-22.5220,48.2178,492,883,0
16796740,605,0.1411,1.0933,-0.1260,71.4722,-26.9775,44.9219,464,949,0
16801738,606,0.1562,1.1094,-0.0625,76.5991,-29.1138,39.6118,481,917,0
16806736,607,0.2207,1.1450,-0.0347,75.8057,-26.9165,35.0342,465,928,0
16811737,608,0.1895,1.1812,-0.0396,73.4253,-24.1699,33.2031,475,934,0
16816733,609,0.1396,1.1816,-0.0181,73.5474,-25.8789,32.7148,479,975,0
16821741,610,0.1719,1.1841,-0.0103,71.6553,-26.6724,28.2593,466,932,0
16826737,611,0.2139,1.2100,-0.0200,67.7490,-23.5596,24.9023,464,925,0
16831739,612,0.1582,1.1997,-0.0205,67.1387,-22.6440,23.5596,469,894,0
16836739,613,0.1489,1.1597,-0.0454,67.6880,-26.0010,20.5688,483,899,0
16841753,614,0.1572,1.1069,-0.0815,67.5049,-28.9307,18.7378,465,911,0
16846734,615,0.1094,1.0967,-0.0728,68.4204,-31.1279,19.7754,464,906,0
16851742,616,0.0840,1.1021,-0.0713,74.4629,-33.5693,17.6392,492,904,0
16856741,617,0.0933,1.0806,-0.0991,81.6040,-34.4238,11.2915,477,892,0
16861738,618,0.1123,1.0581,-0.1211,88.8672,-36.0718,6.1035,464,939,0
16866733,619,0.2012,1.0562,-0.1279,96.5576,-39.9170,4.0283,469,820,0
16871734,620,0.2012,1.0786,-0.1030,104.4311,-44.4336,5.3101,481,899,0
16876736,621,0.1328,1.0815,-0.0552,112.2436,-50.3540,6.2256,489,903,0
16881738,622,0.1323,1.0645,-0.0010,116.6992,-54.9927,5.3711,474,912,0
16886737,623,0.1377,1.0654,0.0469,116.0889,-55.6641,5.2490,480,902,0
16891736,624,0.1670,1.0679,0.0835,113.3423,-55.3589,5.1270,484,904,0
16896739,625,0.1611,1.0620,0.0986,110.7788,-55.0537,5.6763,492,877,0
16901733,626,0.1074,1.0693,0.0884,108.7036,-55.4810,6.0425,464,910,0
16906733,627,0.0840,1.1001,0.0464,108.8257,-56.3965,4.0283,483,930,0
16911740,628,0.0571,1.0586,0.0132,110.9009,-58.1055,-0.0610,464,818,0
16916738,629,0.0703,1.0498,0.0371,112.8540,-62.3169,-2.3193,470,923,0
16921741,630,0.0840,1.0806,0.0801,115.2954,-64.1479,-3.9673,476,976,0
16926735,631,0.1016,1.0962,0.0781,116.7602,-61.8896,-5.3711,480,914,0
16931735,632,0.0923,1.0854,0.0532,115.7226,-60.9131,-6.5308,468,923,0
16936739,633,0.0732,1.0581,0.0674,114.1357,-64.2700,-7.3853,473,931,0
16941739,634,0.0923,1.0449,0.1104,112.6709,-68.5425,-8.9111,482,916,0
16946752,635,0.1294,1.0591,0.1421,112.0605,-70.6177,-11.1084,465,927,0
16951740,636,0.1138,1.0054,0.1382,114.0747,-72.5098,-14.7095,465,939,0
16956738,637,0.1035,0.9692,0.1514,116.9434,-76.9043,-14.9536,492,941,0
16961736,638,0.1025,1.0010,0.1929,120.9717,-77.7588,-12.5732,485,950,0
16966738,639,0.0728,0.9888,0.2236,129.2114,-72.9370,-14.2212,465,944,0
16971736,640,0.0532,0.9595,0.2144,135.9863,-68.1763,-19.5923,470,849,0
16976735,641,0.0732,0.9863,0.2012,139.7095,-66.7725,-24.9634,482,888,0
16981735,642,0.0923,1.0498,0.1934,145.0195,-67.4438,-29.4189,489,910,0
16986736,643,0.1055,1.0591,0.1865,153.8696,-69.2749,-33.2031,475,916,0
16991739,644,0.1182,0.9888,0.2090,160.6445,-71.2280,-35.4004,480,908,0
16996754,645,0.1255,0.9390,0.2524,160.9497,-72.8149,-34.7290,483,877,0
17001739,646,0.1333,0.9185,0.2759,159.8511,-74.4019,-33.2642,486,917,0
17006734,647,0.1353,0.8921,0.2910,159.5459,-75.2563,-32.6538,482,904,0
17011734,648,0.1421,0.8813,0.3188,157.5928,-75.1343,-32.2876,479,938,0
17016741,649,0.1499,0.8721,0.3315,154.7241,-74.9512,-32.5317,464,897,0
17021741,650,0.1333,0.8364,0.3335,151.4282,-75.8667,-31.9214,480,902,0
17026733,651,0.1162,0.8643,0.3403,145.9351,-76.2939,-28.1372,464,973,0
17031737,652,0.1030,0.8828,0.3291,141.1133,-75.2563,-24.5361,476,908,0
17036741,653,0.0903,0.8677,0.3169,135.3760,-75.2563,-23.1934,474,911,0
17041741,654,0.0806,0.8423,0.3130,128.9673,-77.6367,-22.3999,474,910,0
17046737,655,0.0757,0.8408,0.2964,124.0234,-81.1157,-21.1182,472,894,0
17051739,656,0.0615,0.8413,0.2705,122.3144,-84.4726,-21.6675,482,936,0
17056741,657,0.0508,0.8135,0.2725,125.7934,-88.9282,-22.4609,464,963,0
17061742,658,0.0586,0.8208,0.3110,132.2632,-92.5903,-22.8271,491,953,0
17066739,659,0.0640,0.8364,0.3306,140.1978,-93.2617,-24.9634,465,948,0
17071735,660,0.0674,0.8574,0.3271,148.9868,-92.6514,-28.1372,485,947,0
17076736,661,0.0723,0.8613,0.3286,160.4614,-93.0176,-32.7148,463,917,0
17081740,662,0.0806,0.8706,0.3643,170.7764,-94.5434,-38.3301,483,819,0
17086735,663,0.0811,0.8931,0.4238,179.1992,-95.9473,-43.2739,487,910,0
17091737,664,0.0737,0.8970,0.4995,185.4248,-96.5576,-47.9126,477,925,0
17096735,665,0.0854,0.8613,0.5825,186.1572,-95.0928,-52.3071,486,931,0
17101739,666,0.1016,0.8325,0.6514,179.3213,-91.4307,-53.3447,485,930,0
17106733,667,0.1113,0.8325,0.6909,166.5039,-86.1816,-50.9033,487,924,0
17111734,668,0.1084,0.8345,0.6914,151.7944,-80.0781,-46.7529,509,929,0
17116741,669,0.1001,0.8350,0.6621,137.3291,-74.3408,-41.7480,466,913,0
17121734,670,0.1079,0.8096,0.6289,125.1831,-70.9229,-36.3159,483,930,0
17126739,671,0.0825,0.8145,0.5972,113.7085,-71.8384,-30.0293,478,852,0
17131733,672,0.0679,0.8418,0.5625,105.1025,-76.6602,-27.0386,481,940,0
17136736,673,0.0698,0.8530,0.5444,100.9521,-81.8481,-28.1372,469,927,0
17141737,674,0.0708,0.8472,0.5649,99.3652,-85.3271,-30.5176,472,951,0
17146737,675,0.0718,0.8315,0.6108,99.0601,-86.1816,-32.2266,477,941,0
17151734,676,0.0732,0.8086,0.6465,101.0132,-84.5947,-32.6538,477,890,0
17156746,677,0.0737,0.8081,0.6694,105.3467,-82.1533,-33.3862,464,928,0
17161740,678,0.0674,0.8101,0.6733,111.4502,-80.0171,-35.6445,465,954,0
17166741,679,0.0635,0.8286,0.6670,119.2627,-78.4302,-38.8794,491,929,0
17171737,680,0.0645,0.8276,0.6772,128.4180,-77.5757,-43.5181,465,941,0
17176734,681,0.0737,0.7837,0.7261,136.4136,-76.2329,-48.8892,493,912,0
17181739,682,0.0781,0.7471,0.7788,140.0146,-73.7305,-53.7720,470,846,0
17186734,683,0.0615,0.7246,0.7944,140.9912,-70.8618,-56.3354,477,890,0
17191738,684,0.0537,0.7334,0.7891,140.3198,-68.6646,-56.4575,490,894,0
17196735,685,0.0566,0.7524,0.7783,138.1226,-66.6504,-56.5796,473,914,0
17201739,686,0.0562,0.7583,0.7568,135.7422,-65.3687,-57.6782,479,889,0
17206738,687,0.0620,0.7427,0.7363,133.7891,-65.1855,-58.7769,485,889,0
17211740,688,0.0615,0.7300,0.7271,131.2256,-65.9180,-59.5703,491,883,0
17216734,689,0.0552,0.7310,0.7188,128.3569,-67.6270,-59.9976,464,939,0
17221741,690,0.0610,0.7402,0.7188,126.8310,-70.6177,-60.6689,483,970,0
17226734,691,0.0747,0.7363,0.7510,125.3662,-73.4253,-64.2090,464,966,0
17231738,692,0.0659,0.7310,0.8076,120.3613,-75.1343,-69.5190,464,941,0
17236741,693,0.0547,0.7397,0.8696,112.3657,-75.1343,-74.0356,464,904,0
17241734,694,0.0625,0.7441,0.9170,103.6377,-72.7539,-76.7822,465,938,0
17246737,695,0.0737,0.7271,0.9517,94.0552,-68.0542,-77.0264,479,914,0
17251738,696,0.0928,0.6948,0.9688,82.3364,-62.1338,-76.1719,481,909,0
17256738,697,0.0981,0.6641,0.9663,68.6035,-56.2744,-73.8525,482,954,0
17261737,698,0.0913,0.6328,0.9604,55.9692,-52.3682,-70.1904,465,942,0
17266738,699,0.0747,0.6001,0.9458,45.3491,-50.3540,-66.2231,465,916,0
17271739,700,0.0537,0.5737,0.9053,36.6821,-49.3774,-62.6831,492,944,0
17276737,701,0.0356,0.5532,0.8628,30.5786,-49.2554,-60.4858,466,951,0
17281737,702,0.0249,0.5469,0.8311,29.3579,-49.3774,-59.5093,492,953,0
17286739,703,0.0303,0.5469,0.8032,33.2642,-48.8892,-60.4248,483,818,0
17291741,704,0.0376,0.5557,0.7817,41.0767,-47.9126,-62.6831,489,921,0
17296741,705,0.0303,0.5723,0.7700,52.4292,-47.9126,-64.9414,490,903,0
17301737,706,0.0342,0.5786,0.7793,65.3687,-46.9971,-67.6880,477,909,0
17306741,707,0.0361,0.5850,0.8140,76.1108,-46.1426,-69.8242,479,906,0
17311734,708,0.0396,0.5923,0.8564,84.5947,-46.8750,-71.8994,482,912,0
17316734,709,0.0620,0.5757,0.9038,91.4307,-47.7295,-74.4019,491,890,0
17321735,710,0.0752,0.5635,0.9365,95.0317,-49.1333,-77.4536,464,937,0
17326741,711,0.0801,0.5542,0.9438,96.3135,-51.0254,-80.7495,481,916,0
17331736,712,0.0840,0.5469,0.9404,95.8252,-51.7578,-82.6416,464,931,0
17336736,713,0.0840,0.5376,0.9395,94.3603,-52.1240,-82.7637,466,920,0
17341734,714,0.0815,0.5225,0.9287,92.4683,-52.3071,-82.1533,467,976,0
17346742,715,0.0610,0.5020,0.9102,91.3696,-52.6733,-81.2378,472,945,0
17351737,716,0.0498,0.4883,0.8853,90.5762,-54.1382,-80.1392,467,910,0
17356737,717,0.0420,0.4834,0.8574,90.2100,-56.3965,-78.9185,475,908,0
17361734,718,0.0381,0.4917,0.8389,90.5762,-58.7769,-77.6978,474,921,0
17366735,719,0.0444,0.5098,0.8301,93.5669,-60.9131,-77.0264,482,917,0
17371758,720,0.0571,0.5020,0.8379,98.7549,-63.0493,-78.0029,465,929,0
17376735,721,0.0605,0.4834,0.8740,102.1728,-66.2842,-78.7964,465,910,0
17381733,722,0.0254,0.4756,0.9272,103.6987,-70.5566,-78.6743,492,912,0
17386733,723,0.0308,0.4707,0.9683,103.5767,-71.6553,-79.2236,485,916,0
17391734,724,0.0420,0.4707,1.0029,101.3794,-69.3359,-80.1392,463,909,0
17396733,725,0.0527,0.4648,1.0376,97.5342,-64.7583,-80.4443,478,833,0
17401734,726,0.0654,0.4639,1.0635,92.2851,-59.3262,-79.8950,487,841,0
17406736,727,0.0596,0.4658,1.0845,85.6934,-54.6875,-78.9795,485,889,0
17411736,728,0.0405,0.4678,1.0894,76.9653,-50.9033,-78.3081,489,914,0
17416740,729,0.0498,0.4727,1.0728,66.8945,-46.6919,-77.6978,479,907,0
17421738,730,0.0347,0.4741,1.0332,58.4717,-42.2363,-76.7212,478,910,0
17426738,731,0.0288,0.4570,0.9912,52.0630,-36.6211,-75.9888,510,918,0
17431740,732,0.0200,0.4409,0.9653,46.6309,-33.2642,-74.5239,464,933,0
17436739,733,0.0181,0.4258,0.9282,39.3677,-34.4849,-71.4722,482,907,0
17441739,734,0.0215,0.4258,0.9082,38.8794,-36.6821,-71.0449,465,821,0
17446742,735,0.0117,0.4185,0.8984,40.8936,-39.6729,-72.2656,476,927,0
17451735,736,0.0005,0.4180,0.9038,43.8843,-43.0298,-74.7070,476,976,0
17456734,737,0.0073,0.4175,0.9155,46.9360,-44.9219,-77.3315,464,889,0
17461737,738,0.0093,0.4106,0.9214,48.7061,-43.7012,-79.1016,471,914,0
17466736,739,-0.0171,0.4004,0.9194,49.5605,-41.8701,-79.3457,471,909,0
17471740,740,-0.0171,0.3857,0.9121,50.4150,-39.6729,-79.0405,482,920,0
17476741,741,-0.0151,0.3813,0.9146,51.4526,-40.3442,-79.2236,464,934,0
17481740,742,-0.0093,0.3740,0.9302,53.1006,-41.7480,-80.3833,465,950,0
17486741,743,-0.0010,0.3677,0.9663,55.4199,-40.7104,-82.3975,491,907,0
17491740,744,0.0049,0.3726,1.0083,57.9224,-38.6963,-84.0454,464,913,0
17496739,745,0.0000,0.3706,1.0361,61.7676,-36.2549,-85.6934,492,907,0
17501735,746,0.0005,0.3462,1.0474,65.5518,-32.1655,-86.9751,484,793,0
17506737,747,0.0088,0.3486,1.0415,67.9932,-28.1982,-88.2568,487,877,0
17511742,748,0.0186,0.3467,1.0361,70.1904,-25.0854,-91.3086,472,889,0
17516739,749,0.0229,0.3184,1.0420,71.4111,-21.4844,-94.6045,477,901,0
17521735,750,0.0137,0.2783,1.0396,69.6411,-16.9067,-96.3135,487,883,0
17526737,751,0.0186,0.2705,1.0176,63.2324,-13.6108,-96.1914,475,880,0
17531738,752,0.0215,0.2822,0.9941,56.5796,-13.8550,-96.6797,491,893,0
17536742,753,0.0283,0.2993,0.9736,50.5371,-14.7705,-97.3511,464,948,0
17541736,754,0.0322,0.2993,0.9814,47.6685,-18.0054,-98.2056,481,953,0
17546738,755,0.0327,0.2861,1.0117,46.9360,-20.6299,-99.1821,464,902,0
17551737,756,0.0239,0.2715,1.0396,45.7764,-20.6299,-99.1821,474,924,0
17556738,757,0.0156,0.2524,1.0410,44.4336,-18.6768,-98.3887,481,975,0
17561734,758,0.0190,0.2290,1.0454,43.0908,-15.9912,-97.7173,464,932,0
17566736,759,0.0259,0.2207,1.0615,41.3208,-12.6953,-96.6797,473,948,0
17571741,760,0.0449,0.2266,1.0791,40.2222,-9.3994,-95.3979,473,948,0
17576734,761,0.0532,0.2334,1.0820,41.0156,-7.6294,-95.0928,482,918,0
17581739,762,0.0493,0.2437,1.0767,42.4805,-5.6152,-95.9473,464,930,0
17586736,763,0.0557,0.2607,1.0659,44.2505,-2.8687,-97.3511,465,902,0
17591739,764,0.0508,0.2910,1.0610,46.6919,-0.8545,-99.4873,491,927,0
17596739,765,0.0522,0.3096,1.0820,50.0488,3.8452,-101.9287,468,893,0
17601735,766,0.0688,0.3135,1.1089,53.8940,10.5591,-105.0415,492,937,0
17606741,767,0.0708,0.2881,1.1265,58.7158,16.2354,-109.0088,463,814,0
17611737,768,0.0635,0.2246,1.1519,62.9883,21.2402,-111.9385,486,854,0
17616740,769,0.0547,0.1509,1.1870,64.2700,25.5737,-111.6333,475,926,0
17621735,770,0.0488,0.0830,1.2251,61.0962,32.9590,-107.7881,476,917,0
17626741,771,0.0449,0.0508,1.2417,53.7720,42.3584,-101.0742,490,879,0
17631758,772,0.0459,0.0508,1.2280,44.1284,48.8892,-94.5434,491,891,0
17636735,773,0.0635,0.0659,1.1870,34.3018,53.5278,-89.7827,470,890,0
17641741,774,0.0718,0.0928,1.1191,25.6958,56.8848,-86.7920,464,914,0
17646741,775,0.0737,0.1260,1.0542,20.0806,61.0962,-83.8623,476,944,0
17651736,776,0.0796,0.1582,1.0171,17.2119,63.8428,-81.6040,464,902,0
17656737,777,0.0933,0.1914,1.0298,17.0288,62.3779,-81.5430,466,908,0
17661741,778,0.1143,0.2192,1.1016,19.8975,59.9365,-83.9233,465,975,0
17666735,779,0.1450,0.2349,1.2002,24.2920,61.2183,-87.8906,466,937,0
17671735,780,0.1538,0.2246,1.2866,27.4048,67.9321,-91.9189,477,907,0
17676739,781,0.1899,0.2021,1.3340,26.3062,80.8716,-96.5576,464,952,0
17681741,782,0.1860,0.2217,1.3374,14.9536,99.1211,-103.3325,478,932,0
17686739,783,0.1699,0.2734,1.3096,3.2959,113.8916,-104.2480,465,913,0
17691740,784,0.1689,0.2285,1.2603,-6.8359,125.1221,-110.0464,464,944,0
17696736,785,0.1494,0.1035,1.1846,-17.8833,135.9253,-117.6758,464,915,0
17701736,786,0.1328,-0.0298,1.1392,-26.9165,141.4795,-118.2251,465,951,0
17706736,787,0.1367,-0.1289,1.1523,-35.0342,144.6533,-109.5581,481,927,0
17711735,788,0.1484,-0.1484,1.1797,-43.0298,148.7427,-94.9707,463,836,0
17716740,789,0.1758,-0.0762,1.1650,-50.2930,152.4658,-80.7495,481,865,0
17721741,790,0.2026,0.0303,1.0859,-55.1758,153.5034,-71.2891,482,891,0
17726737,791,0.2168,0.1172,0.9990,-55.9692,150.8789,-67.3218,490,879,0
17731741,792,0.2100,0.1870,0.9463,-53.1006,145.3247,-68.2983,481,913,0
17736758,793,0.1968,0.2119,0.9209,-49.6216,143.6768,-70.7397,486,912,0
17741738,794,0.1978,0.2065,0.9146,-46.6919,143.2495,-73.1201,468,912,0
17746736,795,0.2202,0.2041,0.9302,-43.2739,139.4043,-75.0732,464,915,0
17751740,796,0.2593,0.2114,0.9741,-40.0391,135.6201,-76.7822,483,912,0
17756736,797,0.2930,0.1948,1.0327,-39.0015,137.0850,-77.8198,464,896,0
17761735,798,0.3052,0.1655,1.0869,-37.6587,140.0757,-77.8809,475,934,0
17766733,799,0.3262,0.1035,1.1274,-32.9590,142.7612,-79.2847,481,891,0
17771736,800,0.3394,0.0229,1.1548,-30.3345,145.2026,-83.4351,466,932,0
17776740,801,0.3086,-0.0737,1.1724,-30.9448,146.4844,-88.7451,471,869,0
17781735,802,0.2573,-0.2368,1.1904,-31.0669,148.6206,-91.1865,474,901,0
17786735,803,0.2686,-0.3174,1.1709,-32.3486,156.8604,-83.7402,482,907,0
17791749,804,0.3071,-0.2651,1.1357,-28.5034,162.1704,-75.0122,464,939,0
17796737,805,0.3589,-0.1660,1.1299,-18.0054,159.1797,-72.8149,465,923,0
17801737,806,0.4497,-0.0278,1.1655,-7.4463,156.6772,-76.8433,492,934,0
17806742,807,0.5190,0.0366,1.2036,-0.3052,157.3486,-87.0361,482,933,0
17811736,808,0.5151,0.0098,1.1978,-1.4038,156.9214,-98.8769,493,899,0
17816736,809,0.4834,-0.0083,1.1533,-10.7422,156.5552,-102.7222,473,852,0
17821739,810,0.4712,0.0117,1.1226,-22.5830,155.7007,-98.3276,484,900,0
17826735,811,0.4785,0.0464,1.1270,-31.6162,153.1982,-91.6748,489,888,0
17831733,812,0.4829,0.0757,1.1514,-35.0952,150.6958,-87.2803,478,895,0
17836736,813,0.4985,0.0601,1.1719,-33.6304,151.1230,-85.9985,470,933,0
17841736,814,0.5376,0.0132,1.1812,-32.8369,155.0293,-84.4726,490,882,0
17846736,815,0.5688,-0.0293,1.1763,-37.1704,158.8745,-80.1392,508,914,0
17851735,816,0.5488,-0.0361,1.1470,-44.6777,159.4849,-72.5708,464,907,0
17856734,817,0.5435,-0.0303,1.0923,-49.8657,161.5600,-64.5752,483,911,0
17861738,818,0.5664,0.0015,1.0415,-53.7720,166.3208,-58.0444,477,830,0
17866736,819,0.5791,-0.0010,1.0254,-53.2227,167.1142,-55.4199,479,947,0
17871739,820,0.5781,-0.0342,1.0342,-50.1099,167.6636,-54.5654,481,913,0
17876733,821,0.5640,-0.0215,1.0425,-46.6309,169.3115,-51.8799,464,921,0
17881735,822,0.5518,0.0225,1.0205,-42.9077,172.3633,-48.7671,470,941,0
17886734,823,0.5454,0.0581,0.9727,-40.1611,176.2695,-46.5088,467,931,0
17891735,824,0.5381,0.1099,0.9141,-39.8560,179.4433,-45.6543,482,937,0
17896757,825,0.5264,0.1455,0.8594,-39.9780,180.7861,-45.5933,465,944,0
17901737,826,0.5171,0.1201,0.8081,-40.0391,178.8940,-44.8608,464,923,0
17906741,827,0.5181,0.0479,0.7661,-40.0391,173.0957,-41.8701,492,940,0
17911733,828,0.5059,-0.0430,0.7461,-40.8936,166.2598,-37.7808,464,908,0
17916735,829,0.4995,-0.0903,0.7544,-44.7388,161.0718,-32.7759,493,936,0
17921734,830,0.5112,-0.0654,0.7974,-49.8047,155.6396,-28.0151,475,917,0
17926735,831,0.5503,-0.0562,0.8584,-52.4902,149.8413,-25.8179,484,901,0
17931734,832,0.5991,-0.0435,0.9160,-55.7251,145.9351,-22.8271,491,917,0
17936739,833,0.6553,0.0249,0.9541,-60.4858,144.2261,-18.1274,476,918,0
17941737,834,0.7075,0.0776,1.0005,-62.6221,146.0571,-14.4043,473,944,0
17946741,835,0.7168,0.0625,1.0444,-62.8052,150.3906,-14.8315,482,883,0
17951739,836,0.6782,0.0439,1.0571,-64.4531,156.1890,-15.9912,504,886,0
17956741,837,0.6206,0.0708,0.9922,-67.9321,161.3159,-15.3198,464,920,0
17961737,838,0.5571,0.1084,0.8584,-72.7539,164.1235,-14.5264,483,922,0
17966733,839,0.4951,0.1162,0.6982,-78.1860,164.6118,-15.0757,464,913,0
17971742,840,0.4741,0.1157,0.5459,-82.5195,163.6963,-15.8691,464,954,0
17976735,841,0.4688,0.1201,0.4204,-83.8623,159.0576,-15.6860,477,963,0
17981741,842,0.4805,0.1016,0.3442,-81.2988,152.0996,-15.4419,464,970,0
17986740,843,0.5391,0.0527,0.3062,-73.7915,146.0571,-14.0991,464,917,0
17991738,844,0.6157,-0.0034,0.3037,-64.0869,141.1133,-11.2305,465,893,0
17996734,845,0.6685,-0.0063,0.3423,-55.7251,134.2773,-8.2397,482,892,0
18001737,846,0.7212,0.0742,0.3872,-47.6685,127.5635,-6.2866,464,929,0
18006761,847,0.7837,0.1616,0.4155,-38.0249,122.1313,-6.0425,465,939,0
18011734,848,0.8330,0.2041,0.4653,-31.9824,118.8965,-6.8359,465,906,0
18016733,849,0.8354,0.2036,0.5532,-30.5176,117.8589,-9.7656,464,916,0
18021739,850,0.8071,0.1514,0.6372,-30.3345,120.6055,-13.5498,492,912,0
18026735,851,0.7661,0.1431,0.6709,-32.3486,125.2441,-15.5640,463,840,0
18031737,852,0.7349,0.1875,0.6548,-34.0576,130.1880,-17.6392,475,917,0
18036739,853,0.7354,0.2222,0.5786,-32.4097,135.8643,-21.3623,482,903,0
18041735,854,0.7456,0.2495,0.4561,-30.6396,140.3198,-25.2686,480,915,0
18046738,855,0.7417,0.2598,0.3423,-31.0669,141.3574,-30.0903,490,922,0
18051735,856,0.7627,0.2246,0.2534,-30.9448,139.7095,-35.2173,475,913,0
18056734,857,0.8081,0.1860,0.1733,-29.1138,134.5825,-39.8560,487,886,0
18061734,858,0.8350,0.1934,0.1094,-25.2075,123.4131,-43.7012,464,917,0
18066735,859,0.8599,0.2236,0.1060,-19.1040,109.9243,-46.4478,483,946,0
18071736,860,0.8936,0.2363,0.1455,-10.5591,98.3276,-47.9736,464,832,0
18076742,861,0.9131,0.2222,0.1870,-2.4414,89.4775,-49.1333,479,871,0
18081737,862,0.8633,0.1851,0.2573,1.5259,87.1582,-49.4995,479,975,0
18086739,863,0.7993,0.1172,0.3765,-2.5635,112.6099,-46.6919,466,892,0
18091733,864,0.8755,0.0229,0.4644,-11.9019,145.8130,-41.3208,469,925,0
18096734,865,1.0010,0.0166,0.4453,-18.7988,148.6816,-37.4146,480,896,0
18101735,866,1.0322,0.0552,0.3892,-20.9351,132.0190,-36.5601,483,889,0
18106739,867,0.9771,0.0645,0.3887,-20.8740,119.4458,-38.1470,465,901,0
18111734,868,0.9380,0.0684,0.4321,-18.1274,114.1968,-39.6729,465,912,0
18116733,869,0.9526,0.0698,0.4282,-11.8408,106.2012,-38.5742,465,915,0
18121738,870,0.9536,0.0703,0.3950,-10.1318,108.8867,-35.7666,464,952,0
18126737,871,0.9561,0.0503,0.3491,-11.9629,120.1172,-37.8418,493,924,0
18131733,872,1.0010,0.0259,0.2847,-12.8784,125.6714,-38.8794,471,808,0
18136738,873,1.0430,0.0342,0.2539,-15.2588,122.4976,-36.4380,485,848,0
18141737,874,1.0039,0.0557,0.2520,-16.5405,117.8589,-32.8979,476,922,0
18146736,875,0.9541,0.0635,0.2202,-15.6860,113.2812,-31.3110,487,884,0
18151741,876,0.9551,0.0767,0.1338,-15.5029,108.9477,-31.6772,473,923,0
18156737,877,0.9653,0.1196,0.0649,-17.0288,106.1401,-33.4473,477,895,0
18161738,878,0.9795,0.1514,0.0698,-15.5029,103.5156,-36.4380,505,914,0
18166736,879,0.9932,0.1768,0.1411,-10.5591,100.8301,-39.5508,464,918,0
18171740,880,1.0151,0.1807,0.2690,-3.6011,99.9145,-43.6401,482,923,0
18176739,881,1.0186,0.1685,0.3804,5.1270,101.7456,-48.5229,464,824,0
18181738,882,1.0195,0.1934,0.4116,12.1460,106.0791,-53.8330,464,944,0
18186736,883,1.0337,0.2202,0.3823,16.3574,112.4268,-60.6079,466,997,0
18191734,884,1.0176,0.2051,0.3164,18.1274,118.2861,-67.0776,471,940,0
18196737,885,1.0029,0.1533,0.2109,16.7236,121.8262,-72.2656,478,867,0
18201741,886,1.0010,0.0752,0.0889,13.1226,120.9717,-75.5615,476,900,0
18206735,887,1.0039,0.0039,0.0117,6.6528,115.6616,-75.3174,483,920,0
18211737,888,0.9829,-0.0405,0.0171,-0.7935,108.3984,-70.3125,464,928,0
18216734,889,0.9761,-0.0664,0.0576,-4.3945,102.4780,-64.2700,464,893,0
18221737,890,1.0010,-0.0801,0.0679,-4.3945,98.9380,-60.4248,491,901,0
18226740,891,1.0039,-0.0903,0.0576,-3.1128,95.6421,-57.8613,465,892,0
18231735,892,0.9956,-0.1011,0.0645,-1.4648,92.8345,-55.1147,493,929,0
18236741,893,0.9814,-0.0879,0.0864,-0.7935,92.5903,-52.3071,475,847,0
18241733,894,0.9814,-0.0562,0.1021,-0.2441,93.5669,-49.5605,479,823,0
18246740,895,0.9951,-0.0444,0.1157,2.8076,94.2993,-47.6685,489,899,0
18251740,896,1.0068,-0.0303,0.1465,7.2021,95.3979,-46.8140,470,912,0
18256733,897,1.0366,-0.0234,0.1636,13.0615,97.5342,-47.9126,480,922,0
18261734,898,1.0713,-0.0225,0.1426,18.8599,99.7925,-49.5605,471,921,0
18266740,899,0.9873,-0.0039,0.1074,22.0947,99.9756,-48.7671,509,910,0
18271740,900,0.9380,0.0137,0.0645,21.8506,100.2197,-50.4150,464,945,0
18276737,901,0.9746,0.0337,0.0166,20.8740,100.0976,-52.3071,482,942,0
18281738,902,0.9956,0.0381,-0.0117,20.4468,98.0835,-52.9785,471,940,0
18286738,903,0.9795,0.0186,-0.0195,18.7378,95.4590,-53.4668,478,941,0
18291738,904,0.9575,0.0093,-0.0376,15.6860,93.5059,-53.5278,464,927,0
18296736,905,0.9468,-0.0034,-0.0679,13.9160,91.0644,-53.4668,467,906,0
18301737,906,0.9399,-0.0166,-0.0967,13.9160,87.1582,-53.7720,476,943,0
18306737,907,0.9404,-0.0586,-0.1313,19.0430,78.4302,-55.7251,477,932,0
18311733,908,0.9551,-0.1030,-0.1367,24.2310,75.1953,-57.0679,482,913,0
18316746,909,0.9448,-0.1372,-0.1348,28.6865,71.0449,-56.2744,465,913,0
18321739,910,0.9326,-0.1313,-0.1382,31.0669,66.5894,-54.5654,465,954,0
18326734,911,0.9351,-0.1040,-0.1304,32.9590,63.2324,-52.4902,492,920,0
18331737,912,0.9307,-0.0762,-0.1094,35.7666,60.9741,-51.2695,477,942,0
18336741,913,0.9355,-0.0405,-0.0718,39.7949,59.7534,-52.4292,492,912,0
18341739,914,0.9468,-0.0415,-0.0293,45.6543,60.1196,-55.1147,489,943,0
18346741,915,0.9399,-0.0781,-0.0088,49.8047,62.1338,-57.4951,490,827,0
18351733,916,0.9224,-0.1104,-0.0337,48.0957,65.0635,-58.8989,473,918,0
18356733,917,0.9058,-0.1104,-0.1201,42.3584,67.5659,-58.5327,488,912,0
18361742,918,0.9409,-0.1167,-0.2329,36.4990,67.3828,-57.4951,475,889,0
18366741,919,0.8892,-0.1348,-0.3062,31.9214,62.0728,-55.3589,473,917,0
18371738,920,0.8521,-0.1748,-0.3413,29.8462,53.1006,-54.3213,509,917,0
18376740,921,0.8794,-0.1992,-0.3745,29.0527,45.2881,-53.8330,465,918,0
18381735,922,0.8896,-0.2075,-0.3955,28.9917,38.6353,-51.3916,482,923,0
18386740,923,0.8784,-0.2192,-0.3931,29.6631,30.6396,-49.3164,478,937,0
18391736,924,0.8774,-0.2437,-0.3711,30.6396,22.1558,-47.1802,476,952,0
18396741,925,0.8779,-0.2632,-0.3647,31.1890,15.7471,-42.8467,481,998,0
18401739,926,0.8682,-0.2881,-0.3667,30.5176,11.5967,-39.0015,479,920,0
18406737,927,0.8584,-0.3042,-0.3804,29.5410,7.5073,-35.0952,466,857,0
18411736,928,0.8594,-0.2920,-0.4062,29.7241,2.8687,-29.5410,465,905,0
18416734,929,0.8486,-0.2559,-0.4185,31.9824,-0.3662,-25.6958,483,914,0
18421736,930,0.8599,-0.2368,-0.3960,39.1235,-5.0049,-23.4985,465,908,0
18426741,931,0.8677,-0.2373,-0.3306,46.6919,-8.9722,-22.8882,464,930,0
18431737,932,0.8667,-0.2310,-0.2607,52.6123,-8.9722,-23.8647,465,903,0
18436738,933,0.8721,-0.2090,-0.2354,57.2510,-6.7749,-24.5361,465,935,0
18441736,934,0.8882,-0.1782,-0.2495,57.5561,-3.5400,-24.2920,492,932,0
18446739,935,0.8936,-0.1660,-0.2612,54.1992,-1.2207,-23.6206,465,837,0
18451733,936,0.8936,-0.1670,-0.2793,49.0112,-0.8545,-22.3999,490,804,0
18456737,937,0.8984,-0.1626,-0.3096,42.1753,-1.8311,-20.4468,482,903,0
18461734,938,0.8989,-0.1543,-0.3501,35.3394,-3.6011,-20.0195,485,869,0
18466733,939,0.8940,-0.1636,-0.3887,30.7007,-6.0425,-20.6909,490,883,0
18471757,940,0.8853,-0.1880,-0.4175,28.1372,-8.7891,-21.1182,477,894,0
18476739,941,0.8872,-0.2012,-0.4390,27.5269,-12.1460,-21.8506,471,902,0
18481740,942,0.8794,-0.2095,-0.4556,29.7852,-16.4185,-22.6440,510,918,0
18486739,943,0.8521,-0.1987,-0.4780,35.5225,-23.4985,-22.7661,468,911,0
18491736,944,0.8901,-0.1851,-0.4878,44.9219,-32.5928,-22.1558,483,937,0
18496741,945,0.9521,-0.1821,-0.4307,51.8188,-40.4663,-24.6582,475,902,0
18501735,946,0.9468,-0.1855,-0.3164,57.4951,-45.8374,-26.3672,474,956,0
18506734,947,0.9233,-0.1973,-0.2202,60.8520,-46.8750,-26.0010,481,999,0
18511735,948,0.9243,-0.2046,-0.1689,60.2417,-44.1284,-25.1465,464,908,0
18516734,949,0.9355,-0.1978,-0.1465,56.4575,-40.0391,-23.9258,466,943,0
18521734,950,0.9390,-0.1836,-0.1499,52.4902,-36.3770,-22.8882,466,924,0
18526735,951,0.9419,-0.1826,-0.1768,48.7671,-33.7524,-22.2168,483,928,0
18531738,952,0.9438,-0.1626,-0.2017,45.0439,-33.2031,-21.3623,464,946,0
18536740,953,0.9556,-0.1411,-0.1992,42.7246,-34.3018,-20.3857,464,918,0
18541734,954,0.9570,-0.1514,-0.1865,40.7104,-34.5459,-19.7144,491,950,0
18546735,955,0.9395,-0.1729,-0.1719,37.4146,-32.2876,-18.7988,493,907,0
18551737,956,0.9321,-0.1836,-0.1772,33.5693,-29.2969,-18.4937,491,901,0
18556736,957,0.9419,-0.1973,-0.2163,31.6772,-27.0386,-18.3105,463,818,0
18561740,958,0.9424,-0.2168,-0.2344,31.4941,-26.0010,-18.1885,483,821,0
18566734,959,0.9419,-0.2202,-0.2236,33.6304,-27.0386,-17.0898,485,882,0
18571734,960,0.9341,-0.2212,-0.2251,38.7573,-28.1982,-15.0757,476,907,0
18576741,961,0.9282,-0.2280,-0.2368,42.6025,-28.3813,-12.8784,476,916,0
18581740,962,0.9214,-0.2197,-0.2427,42.7856,-28.0151,-10.6812,474,934,0
18586737,963,0.9194,-0.2065,-0.2598,40.1611,-27.8931,-8.5449,485,896,0
18591734,964,0.9170,-0.1934,-0.2749,35.4614,-28.3813,-6.2866,492,878,0
18596740,965,0.9087,-0.1670,-0.2720,31.0669,-29.4189,-4.5166,481,907,0
18601735,966,0.8965,-0.1396,-0.2627,29.0527,-30.4565,-3.4180,464,895,0
18606734,967,0.9062,-0.1270,-0.2480,29.4800,-31.1890,-3.1738,464,936,0
18611735,968,0.9121,-0.1069,-0.2339,30.7007,-31.9214,-2.9297,468,963,0
18616734,969,0.9141,-0.0850,-0.2051,32.6538,-33.2642,-3.4180,470,897,0
18621736,970,0.9233,-0.0840,-0.1797,34.8511,-33.6304,-5.3711,471,903,0
18626736,971,0.9136,-0.0957,-0.1460,34.7290,-32.4097,-6.6528,476,867,0
18631737,972,0.9229,-0.0991,-0.1323,32.1045,-30.0293,-7.0190,477,905,0
18636740,973,0.9219,-0.0869,-0.1548,28.6255,-27.6489,-6.9580,483,873,0
18641739,974,0.9189,-0.0918,-0.1885,27.7710,-26.9165,-7.7515,465,906,0
18646736,975,0.8843,-0.1079,-0.2031,28.3203,-27.0996,-8.1787,465,931,0
18651736,976,0.9292,-0.1406,-0.2051,28.2593,-26.4282,-7.1411,465,934,0
18656735,977,0.9536,-0.1509,-0.2090,26.4893,-27.2827,-7.8735,465,933,0
18661735,978,0.9419,-0.1641,-0.2236,25.4517,-28.3203,-6.6528,492,907,0
18666739,979,0.9185,-0.1660,-0.2310,22.4609,-28.1982,-5.9204,473,831,0
18671741,980,0.9150,-0.1514,-0.2319,20.1416,-28.3813,-5.2490,482,810,0
18676736,981,0.9326,-0.1475,-0.2339,19.4702,-28.0762,-5.5542,488,879,0
18681741,982,0.9395,-0.1396,-0.2212,19.4702,-28.1372,-6.7749,472,896,0
18686747,983,0.9155,-0.1162,-0.1978,21.3013,-27.8931,-7.8125,475,905,0
18691738,984,0.9087,-0.1099,-0.1606,24.2920,-26.5503,-9.3384,477,875,0
18696740,985,0.9302,-0.1260,-0.1196,25.0854,-23.5596,-10.3760,509,868,0
18701733,986,0.9375,-0.1348,-0.1016,22.8882,-20.0806,-10.5591,464,948,0
18706741,987,0.9209,-0.1362,-0.1143,19.5312,-17.2119,-10.0708,483,898,0
18711736,988,0.9204,-0.1372,-0.1470,16.1743,-14.4653,-9.4604,473,855,0
18716733,989,0.9312,-0.1426,-0.1875,13.4277,-12.9395,-8.6060,464,974,0
18721739,990,0.9302,-0.1538,-0.2075,12.1460,-13.6719,-7.7515,471,901,0
18726733,991,0.9189,-0.1636,-0.2021,11.8408,-14.7705,-6.5308,471,933,0
18731734,992,0.9277,-0.1753,-0.1909,11.7798,-15.0757,-5.4932,464,888,0
18736737,993,0.9287,-0.1855,-0.1860,10.9253,-15.3198,-4.3945,481,887,0
18741733,994,0.9268,-0.1855,-0.1890,10.0708,-15.5640,-3.8452,465,922,0
18746739,995,0.9326,-0.1772,-0.1953,9.8877,-15.8081,-3.5400,465,904,0
18751738,996,0.9321,-0.1675,-0.1963,11.0474,-16.9678,-3.4790,464,923,0
18756738,997,0.9272,-0.1631,-0.1851,13.3667,-18.9819,-3.2349,491,899,0
18761739,998,0.9360,-0.1597,-0.1587,14.8315,-20.5078,-2.6245,466,896,0
18766741,999,0.9473,-0.1641,-0.1323,14.4653,-21.0571,-1.7700,492,937,0
18771738,1000,0.9399,-0.1665,-0.1152,12.0850,-20.5078,-1.0376,487,894,0
18776739,1001,0.8608,-0.1523,-0.0986,9.1553,-19.8975,-0.1221,476,887,0
18781738,1002,0.9326,-0.1758,-0.0957,7.0190,-18.5547,1.3428,477,849,0
18786738,1003,1.0205,-0.1841,-0.1050,1.4038,-16.1133,1.7090,487,849,0
18791739,1004,1.0059,-0.1816,-0.1338,-0.3052,-16.4185,3.8452,478,872,0
18796741,1005,0.9727,-0.1875,-0.1592,0.9766,-19.2871,4.5776,490,848,0
18801736,1006,0.9434,-0.1934,-0.1660,2.8076,-22.2168,5.3101,492,878,0
18806736,1007,0.9390,-0.1987,-0.1567,4.3335,-23.6816,6.1646,483,871,0
18811738,1008,0.9224,-0.2007,-0.1460,5.6763,-25.0854,6.8359,464,891,0
18816733,1009,0.8843,-0.2002,-0.1353,7.4463,-26.4893,7.9346,480,925,0
18821737,1010,0.9497,-0.2090,-0.1455,8.0566,-26.6113,8.1787,469,870,0
18826739,1011,0.9873,-0.2012,-0.1616,5.8594,-27.5879,8.2397,470,886,0
18831736,1012,0.9878,-0.1899,-0.1685,3.7842,-29.5410,8.4229,475,843,0
18836738,1013,0.9907,-0.1821,-0.1465,2.9297,-31.5552,7.0801,481,900,0
18841740,1014,0.9834,-0.1851,-0.1050,4.3945,-32.6538,5.1270,482,894,0
18846742,1015,0.9707,-0.1973,-0.0615,7.3242,-32.8979,4.2114,465,908,0
18851760,1016,0.9678,-0.2070,-0.0327,9.2163,-32.0435,3.7231,464,916,0
18856736,1017,0.9707,-0.2046,-0.0366,9.3384,-30.0293,3.2349,465,883,0
18861739,1018,0.9585,-0.2036,-0.0522,8.9722,-28.1982,2.8076,492,909,0
18866734,1019,0.9116,-0.2007,-0.0610,8.6670,-27.1606,2.8076,489,890,0
18871733,1020,0.9731,-0.2275,-0.0791,8.1177,-26.4282,3.1738,463,837,0
18876736,1021,1.0176,-0.2383,-0.1045,4.9438,-26.9165,2.3804,472,819,0
18881736,1022,1.0073,-0.2412,-0.1313,3.6011,-29.4189,3.0518,490,858,0
18886738,1023,0.9917,-0.2397,-0.1621,2.1973,-32.2876,4.2725,475,889,0
18891736,1024,0.9766,-0.2324,-0.1768,0.3052,-36.8042,5.3711,480,882,0
18896734,1025,0.9561,-0.2319,-0.1724,-1.7700,-42.2974,5.6763,491,872,0
18901740,1026,0.9438,-0.2393,-0.1680,-4.2114,-46.8750,6.1646,497,885,0
18906735,1027,0.9077,-0.2354,-0.1582,-7.3853,-50.5981,7.2632,464,864,0
18911741,1028,0.9053,-0.2261,-0.1475,-10.1318,-53.8940,8.4229,482,879,0
18916734,1029,0.9893,-0.2061,-0.1401,-13.1226,-56.6406,9.2773,464,817,0
18921741,1030,1.0132,-0.1841,-0.1040,-15.7471,-60.0586,11.7187,464,944,0
18926739,1031,0.9961,-0.1851,-0.0488,-17.0288,-63.4766,13.6108,480,976,0
18931739,1032,0.9541,-0.1875,0.0000,-17.7002,-65.2466,14.8315,464,937,0
18936741,1033,0.9395,-0.1997,0.0303,-17.3950,-64.9414,15.5029,468,844,0
18941736,1034,0.9580,-0.2070,0.0352,-16.9067,-63.9648,16.1133,466,892,0
18946737,1035,0.9678,-0.2056,0.0176,-15.9912,-63.5986,17.1509,482,918,0
18951741,1036,0.9668,-0.1953,0.0034,-12.5122,-65.3687,18.5547,465,893,0
18956735,1037,0.9785,-0.1719,0.0093,-5.7983,-69.3359,18.6157,465,938,0
18961734,1038,0.9673,-0.1694,0.0410,2.5024,-72.1436,19.5923,465,921,0
18966736,1039,0.9575,-0.1768,0.0728,6.8970,-71.8994,20.6299,491,918,0
18971736,1040,0.9727,-0.1455,0.0957,7.8735,-69.7632,20.7520,466,896,0
18976734,1041,1.0015,-0.1182,0.1094,8.7280,-66.7725,19.1040,492,927,0
18981742,1042,0.9932,-0.1104,0.1289,8.3618,-63.9648,17.3340,463,787,0
18986733,1043,0.9829,-0.1099,0.1387,7.4463,-60.4248,15.5640,477,826,0
18991734,1044,0.9893,-0.1162,0.1304,7.5684,-57.5561,13.6719,490,877,0
18996741,1045,0.9995,-0.1089,0.1309,9.0942,-56.0303,12.9395,475,877,0
19001742,1046,1.0229,-0.0918,0.1372,11.5356,-54.8706,11.7187,476,916,0
19006733,1047,1.0171,-0.0791,0.1514,14.5874,-53.9551,9.8267,481,927,0
19011740,1048,1.0073,-0.0903,0.1611,16.9067,-52.6733,7.6294,488,874,0
19016739,1049,1.0132,-0.0972,0.1694,16.6016,-51.1475,6.2256,492,899,0
19021735,1050,1.0088,-0.1079,0.1626,15.5029,-50.5981,6.2866,483,879,0
19026735,1051,1.0015,-0.1172,0.1440,14.2212,-50.1709,6.5918,469,827,0
19031739,1052,0.9966,-0.1133,0.1357,14.5264,-49.1943,5.9204,475,951,0
19036737,1053,1.0244,-0.1138,0.1392,16.6626,-48.7671,4.3335,473,898,0
19041736,1054,1.0288,-0.1211,0.1509,18.5547,-49.0112,3.2959,476,886,0
19046736,1055,1.0112,-0.1304,0.1699,19.2871,-49.1943,3.4180,481,846,0
19051733,1056,1.0083,-0.1338,0.1875,18.1885,-48.3398,3.6011,464,886,0
19056736,1057,1.0103,-0.1235,0.1934,15.8081,-46.6919,3.7842,482,905,0
19061742,1058,1.0073,-0.1177,0.1885,13.1836,-44.8608,3.7231,465,903,0
19066739,1059,1.0000,-0.1157,0.1733,10.6201,-43.1519,3.2959,464,934,0
19071741,1060,0.9902,-0.1235,0.1592,9.2773,-41.6260,2.8687,464,930,0
19076735,1061,0.9824,-0.1377,0.1504,8.8501,-40.4053,2.4414,464,920,0
19081738,1062,0.9907,-0.1426,0.1396,8.9722,-40.8936,1.9531,484,910,0
19086739,1063,0.9932,-0.1362,0.1406,10.0098,-43.0908,1.6479,463,783,0
19091734,1064,0.9854,-0.1274,0.1509,10.9863,-44.5557,1.8921,483,902,0
19096740,1065,0.9790,-0.1216,0.1670,11.5356,-45.5322,1.8311,481,874,0
19101740,1066,0.9941,-0.1230,0.1855,13.1836,-47.4853,1.0376,487,905,0
19106734,1067,1.0083,-0.1284,0.1948,15.9912,-50.2319,0.0610,479,907,0
19111740,1068,0.9946,-0.1343,0.2383,18.1274,-51.7578,0.8545,471,908,0
19116737,1069,0.9844,-0.1348,0.3008,18.8599,-50.3540,1.8311,491,901,0
19121739,1070,0.9907,-0.1284,0.3340,18.6768,-46.6309,2.0752,482,903,0
19126742,1071,0.9917,-0.1309,0.3296,17.1509,-41.6870,1.9531,464,816,0
19131733,1072,0.9854,-0.1450,0.2969,14.0381,-37.0483,2.1973,474,921,0
19136737,1073,0.9766,-0.1475,0.2476,10.9863,-34.7290,2.9297,466,911,0
19141738,1074,0.9707,-0.1348,0.2021,10.2539,-34.7900,3.2959,468,889,0
19146741,1075,0.9614,-0.1333,0.1709,11.6577,-36.0107,3.1128,470,915,0
19151733,1076,0.9663,-0.1338,0.1592,13.4888,-37.8418,2.5635,471,885,0
19156733,1077,0.9370,-0.1353,0.1426,16.7847,-42.6636,0.7935,483,880,0
19161740,1078,0.9199,-0.1396,0.1450,17.2119,-44.7998,-0.0610,464,895,0
19166755,1079,0.9097,-0.1406,0.1460,17.3950,-46.9360,-0.9766,464,904,0
19171734,1080,0.8989,-0.1357,0.1465,18.3105,-48.4009,-2.1973,465,923,0
19176736,1081,0.8989,-0.1274,0.1445,19.7754,-50.2930,-3.6621,493,899,0
19181741,1082,0.8872,-0.1147,0.1455,21.3623,-52.3071,-5.2490,487,935,0
19186741,1083,0.8672,-0.1260,0.1582,23.6206,-53.4058,-7.4463,493,944,0
19191736,1084,0.8486,-0.1377,0.1504,26.7944,-54.6265,-10.2539,470,857,0
19196736,1085,0.8374,-0.1367,0.1328,29.6631,-56.2744,-12.8784,484,877,0
19201741,1086,0.8179,-0.1221,0.1216,32.6538,-58.2275,-15.5029,490,934,0
19206740,1087,0.8237,-0.1035,0.1133,37.9028,-60.8520,-19.5312,472,919,0
19211739,1088,0.8506,-0.1191,0.1230,45.7764,-64.0259,-24.5972,480,946,0
19216738,1089,0.8423,-0.1733,0.1836,53.8330,-67.0166,-28.0762,487,935,0
19221733,1090,0.8193,-0.2393,0.2666,60.3638,-68.8477,-30.3345,491,887,0
19226737,1091,0.8096,-0.2749,0.3193,64.0869,-69.0308,-30.3955,482,887,0
19231736,1092,0.8105,-0.2798,0.3252,64.6973,-67.0166,-28.8086,464,899,0
19236741,1093,0.8125,-0.2871,0.3071,62.5610,-64.9414,-26.6724,468,932,0
19241738,1094,0.8140,-0.3066,0.2920,57.9224,-63.2324,-23.8037,465,978,0
19246740,1095,0.8057,-0.3271,0.2720,52.3682,-61.7676,-20.0806,474,915,0
19251738,1096,0.7979,-0.3330,0.2476,45.7764,-60.5469,-16.2964,477,905,0
19256733,1097,0.7852,-0.3315,0.2261,39.9170,-60.3638,-13.3667,464,894,0
19261739,1098,0.7725,-0.3384,0.2012,37.0483,-61.3403,-10.8032,482,896,0
19266736,1099,0.7627,-0.3413,0.1729,35.7056,-62.9272,-8.4839,465,924,0
19271739,1100,0.7559,-0.3442,0.1304,35.0952,-65.3076,-6.2866,465,931,0
19276740,1101,0.7510,-0.3462,0.0840,35.2173,-68.7256,-3.3569,465,897,0
19281741,1102,0.7334,-0.3418,0.0596,37.1094,-74.0356,-0.3662,491,890,0
19286736,1103,0.7295,-0.3364,0.0508,41.0767,-81.1157,1.5259,492,886,0
19291737,1104,0.7261,-0.3540,0.0493,45.4712,-90.2710,3.1738,492,927,0
19296738,1105,0.7246,-0.3730,0.0537,47.7295,-99.7925,5.2490,463,852,0
19301740,1106,0.8564,-0.3789,0.0405,49.3774,-108.2153,8.4229,488,859,0
19306735,1107,0.7251,-0.3159,0.0781,48.2788,-111.9995,15.8691,471,915,0
19311742,1108,0.5796,-0.3096,0.1523,53.5889,-123.3520,17.2729,487,904,0
19316752,1109,0.6748,-0.2930,0.1816,55.1147,-129.8828,16.2964,480,915,0
19321734,1110,0.7300,-0.2847,0.2139,54.2603,-132.8735,16.9067,477,942,0
19326739,1111,0.6816,-0.3120,0.2861,54.8096,-133.8501,16.9067,503,913,0
19331740,1112,0.6782,-0.3237,0.3442,52.8564,-133.3618,17.8223,471,883,0
19336734,1113,0.6807,-0.3086,0.3501,48.4619,-132.5073,20.7520,464,912,0
19341737,1114,0.6865,-0.2690,0.3208,45.8984,-134.5215,25.6348,467,911,0
19346740,1115,0.6943,-0.2524,0.3096,46.1426,-138.6108,29.6631,467,965,0
19351741,1116,0.6924,-0.2646,0.3403,45.7153,-141.9067,32.4097,471,910,0
19356738,1117,0.6807,-0.2842,0.3799,42.9687,-145.6299,35.6445,476,906,0
19361733,1118,0.6509,-0.2900,0.3921,37.9028,-149.9634,40.5884,464,895,0
19366741,1119,0.6309,-0.2900,0.3809,30.0293,-151.9165,46.2036,482,916,0
19371736,1120,0.6309,-0.2686,0.3564,19.6533,-152.5879,50.7202,465,894,0
19376751,1121,0.6533,-0.2476,0.3237,10.6201,-153.6255,53.1006,465,942,0
19381739,1122,0.6523,-0.2437,0.2734,5.6152,-155.5176,54.4434,465,949,0
19386738,1123,0.6372,-0.2461,0.2271,2.8076,-160.4614,55.7251,464,910,0
19391742,1124,0.6177,-0.2412,0.2134,2.0142,-168.9453,57.9834,464,929,0
19396734,1125,0.5991,-0.2402,0.2085,3.2349,-177.8564,60.7910,492,937,0
19401737,1126,0.5874,-0.2339,0.2114,3.6621,-186.5234,62.9272,477,826,0
19406737,1127,0.5596,-0.2139,0.2212,3.7231,-195.6177,64.3311,485,916,0
19411740,1128,0.5449,-0.1792,0.2427,4.9438,-204.6509,64.3311,474,902,0
19416736,1129,0.5591,-0.1167,0.2944,7.3853,-214.5386,64.0259,472,900,0
19421739,1130,0.5664,-0.0449,0.3823,9.8267,-224.4263,65.1245,485,921,0
19426739,1131,0.5532,0.0029,0.5010,11.6577,-231.6284,66.9556,491,910,0
19431737,1132,0.5312,0.0444,0.6440,11.3525,-235.9619,67.3218,491,889,0
19436733,1133,0.5249,0.0630,0.8018,10.1318,-235.7788,64.7583,482,951,0
19441736,1134,0.4980,0.0483,0.9473,7.8735,-230.8960,62.6221,464,912,0
19446735,1135,0.5005,0.0366,1.0645,3.2349,-223.3276,60.1807,465,936,0
19451740,1136,0.5288,-0.0132,1.1479,-2.5635,-213.3789,56.5796,468,892,0
19456733,1137,0.5547,-0.0776,1.1826,-12.4512,-199.7070,53.0395,466,938,0
19461739,1138,0.5469,-0.1216,1.1934,-26.2451,-186.5234,53.2837,480,956,0
19466739,1139,0.5586,-0.1333,1.1636,-42.1753,-173.4619,55.5420,479,885,0
19471742,1140,0.5542,-0.1138,1.0664,-54.3213,-160.8887,59.6313,482,911,0
19476736,1141,0.5503,-0.1123,0.9360,-58.1665,-151.9165,64.2700,464,957,0
19481739,1142,0.5601,-0.0996,0.8286,-55.9692,-151.0620,68.3594,464,921,0
19486737,1143,0.5332,-0.0845,0.7578,-49.6826,-157.6538,71.7163,464,913,0
19491735,1144,0.5122,-0.0796,0.7305,-41.2598,-164.1235,72.2046,491,952,0
19496739,1145,0.5063,-0.0625,0.7334,-32.5317,-168.1518,71.1670,476,919,0
19501737,1146,0.4878,-0.0312,0.7646,-22.3389,-171.6919,69.5801,492,945,0
19506740,1147,0.4829,0.0317,0.8228,-11.2915,-175.1709,67.9932,477,837,0
19511742,1148,0.4546,0.1084,0.9092,1.1597,-178.1006,64.6362,481,874,0
19516736,1149,0.4541,0.1543,0.9995,12.3291,-176.7578,59.5093,483,894,0
19521742,1150,0.4756,0.1880,1.0737,18.4326,-171.9971,54.3823,475,931,0
19526739,1151,0.4604,0.2036,1.1313,19.6533,-164.1846,50.4761,481,944,0
19531734,1152,0.4434,0.1753,1.1587,18.0054,-152.3438,46.5088,488,892,0
19536739,1153,0.4517,0.1328,1.1606,13.6719,-141.1743,43.5791,472,915,0
19541734,1154,0.4253,0.0918,1.1411,8.7891,-131.1035,42.2974,483,941,0
19546733,1155,0.4692,0.0391,1.0972,5.1270,-121.2158,41.3818,467,926,0
19551736,1156,0.4282,0.0273,1.0337,4.5776,-117.9199,42.6636,477,976,0
19556735,1157,0.4238,0.0161,0.9946,6.1035,-115.8447,43.2129,464,911,0
19561736,1158,0.4038,0.0132,0.9907,10.3149,-117.3706,42.6025,469,913,0
19566736,1159,0.3931,0.0029,0.9995,16.2354,-119.1406,42.3584,476,904,0
19571740,1160,0.3911,0.0186,0.9995,21.2402,-121.3989,42.1143,483,924,0
19576736,1161,0.3989,0.0449,0.9971,26.7944,-124.3896,41.7480,465,959,0
19581738,1162,0.3887,0.0791,1.0117,31.3110,-126.0376,41.2598,464,931,0
19586737,1163,0.3872,0.1221,1.0498,34.7900,-126.4038,40.2222,464,926,0
19591737,1164,0.3740,0.1787,1.1157,37.1094,-126.2817,39.2456,492,948,0
19596738,1165,0.3677,0.2178,1.1904,36.7432,-122.6196,36.8652,470,920,0
19601739,1166,0.3604,0.2212,1.2539,33.9355,-115.7837,33.5083,492,918,0
19606737,1167,0.3408,0.1870,1.3008,26.9165,-105.2856,30.8838,488,822,0
19611739,1168,0.3315,0.1543,1.3071,15.3809,-93.2617,30.3345,480,837,0
19616734,1169,0.3193,0.1514,1.2656,4.5166,-83.4961,31.6162,491,924,0
19621748,1170,0.3306,0.1377,1.1826,-3.7231,-77.9419,32.5317,476,911,0
19626736,1171,0.3374,0.1509,1.0981,-10.4370,-76.6602,34.3018,473,898,0
19631735,1172,0.3188,0.1631,1.0415,-14.0381,-77.3315,36.0107,489,876,0
19636735,1173,0.2949,0.1597,1.0044,-12.8174,-78.6743,35.4004,470,906,0
19641737,1174,0.2949,0.1299,0.9907,-8.9111,-79.9561,34.4238,483,895,0
19646738,1175,0.2969,0.1055,1.0122,-6.7139,-82.7637,31.3721,478,895,0
19651741,1176,0.3013,0.1084,1.0283,-3.6621,-86.5478,28.6255,481,942,0
19656734,1177,0.3149,0.1328,1.0200,-1.4648,-89.3555,27.7100,464,924,0
19661739,1178,0.2944,0.1567,1.0239,-1.4038,-91.3696,26.6724,474,935,0
19666740,1179,0.2637,0.1929,1.0347,-2.7466,-92.2851,25.5737,476,864,0
19671741,1180,0.2500,0.2324,1.0479,-4.5776,-92.2851,23.9868,473,890,0
19676734,1181,0.2622,0.2666,1.0581,-7.8735,-90.5762,21.7285,483,892,0
19681736,1182,0.2471,0.2891,1.0796,-12.7563,-88.1958,19.5923,464,912,0
19686747,1183,0.2344,0.2715,1.1172,-17.3340,-85.2661,17.1509,465,940,0
19691739,1184,0.2446,0.2485,1.1431,-19.8364,-83.9844,14.2822,464,908,0
19696738,1185,0.2417,0.2017,1.1562,-19.4092,-82.3364,11.5356,492,953,0
19701736,1186,0.2437,0.1431,1.1787,-19.4702,-77.6978,9.0332,483,945,0
19706735,1187,0.2378,0.1011,1.1948,-21.1182,-73.2422,8.4839,464,789,0
19711741,1188,0.2251,0.0879,1.1831,-23.1323,-69.2749,9.9487,487,894,0
19716735,1189,0.2217,0.1060,1.1636,-24.6582,-65.6738,11.2915,490,886,0
19721740,1190,0.2227,0.1445,1.1353,-25.2075,-62.2559,11.5356,479,893,0
19726734,1191,0.2061,0.1802,1.0894,-23.3765,-59.1431,10.6812,483,929,0
19731739,1192,0.2051,0.1851,1.0308,-20.4468,-57.1899,8.3008,484,880,0
19736739,1193,0.2051,0.1816,0.9868,-18.4326,-57.3120,6.4087,490,891,0
19741735,1194,0.1826,0.1689,0.9541,-17.2729,-56.9458,4.3945,483,896,0
19746735,1195,0.1558,0.1572,0.9243,-16.4185,-57.4341,1.5259,464,928,0
19751737,1196,0.1436,0.1416,0.8950,-14.1602,-61.0962,-1.7700,479,924,0
19756736,1197,0.1421,0.1221,0.8872,-11.2305,-66.9556,-5.0659,481,977,0
19761741,1198,0.1450,0.1079,0.9116,-8.0566,-74.4019,-7.9346,467,885,0
19766735,1199,0.1553,0.0811,0.9712,-4.7607,-81.7261,-10.4980,469,836,0
19771738,1200,0.1455,0.0527,1.0659,-2.6245,-87.7075,-12.3901,481,906,0
19776741,1201,0.1572,0.0303,1.1704,-1.7700,-90.5151,-13.0615,482,924,0
19781735,1202,0.1929,0.0054,1.2583,-2.0142,-88.5620,-13.3057,464,931,0
19786734,1203,0.2017,-0.0176,1.3174,-4.5776,-82.8857,-12.5732,464,928,0
19791740,1204,0.1797,-0.0249,1.3345,-9.2773,-74.3408,-11.5356,465,938,0
19796735,1205,0.1802,-0.0249,1.3286,-14.9536,-66.1011,-10.6812,491,934,0
19801735,1206,0.1831,-0.0234,1.3071,-20.4468,-57.9834,-9.7656,464,945,0
19806737,1207,0.1719,-0.0288,1.2646,-25.2075,-49.5605,-9.0332,492,937,0
19811739,1208,0.1997,-0.0381,1.1938,-30.0293,-42.9687,-8.4839,482,833,0
19816738,1209,0.1357,-0.0454,1.1284,-33.8745,-40.3442,-6.8359,490,810,0
19821738,1210,0.1074,-0.0596,1.0815,-36.2549,-38.5132,-5.1880,488,912,0
19826738,1211,0.1128,-0.0625,1.0127,-40.4663,-37.8418,-2.3193,474,890,0
19831740,1212,0.1279,-0.0586,0.9717,-45.1660,-38.2690,0.6104,484,918,0
19836734,1213,0.1182,-0.0552,0.9741,-47.8516,-40.9546,0.7324,492,894,0
19841733,1214,0.1172,-0.0381,1.0010,-47.7295,-45.2270,1.3428,492,899,0
19846742,1215,0.1118,-0.0332,1.0366,-42.9077,-50.0488,-0.6714,483,884,0
19851736,1216,0.1079,-0.0625,1.0537,-40.4053,-52.5513,-1.7700,464,827,0
19856733,1217,0.1143,-0.0479,1.0625,-37.0483,-55.1147,-0.4883,474,954,0
19861742,1218,0.1323,-0.0532,1.0747,-30.9448,-58.3496,-0.6714,465,894,0
19866738,1219,0.0947,-0.0508,1.0981,-26.9775,-60.7300,0.1221,479,937,0
19871741,1220,0.0967,-0.0405,1.1343,-25.2686,-61.4624,1.7090,469,880,0
19876733,1221,0.1128,-0.0146,1.1704,-25.2686,-60.7910,1.7090,465,908,0
19881736,1222,0.1118,-0.0024,1.2256,-23.9868,-59.5093,1.6479,482,912,0
19886735,1223,0.1270,-0.0161,1.2837,-21.1182,-57.3120,1.4038,465,906,0
19891742,1224,0.1328,-0.0361,1.3315,-19.0430,-53.4668,-0.1221,465,936,0
19896733,1225,0.1255,-0.0601,1.3706,-17.4561,-47.1802,-0.9766,464,928,0
19901738,1226,0.1313,-0.0820,1.3843,-15.7471,-40.1611,-0.7935,492,885,0
19906737,1227,0.0381,-0.0864,1.3735,-15.3809,-33.0200,0.1831,476,902,0
19911741,1228,-0.1108,-0.0674,1.3496,-15.9912,-17.2729,15.7471,465,815,0
19916736,1229,0.0703,-0.0991,1.2607,-20.4468,-4.6997,31.9214,471,814,0
19921736,1230,0.2139,-0.1353,1.2334,-31.2500,-2.2583,23.4985,478,913,0
19926734,1231,0.2324,-0.1245,1.2695,-36.5601,-4.0894,19.7754,488,912,0
19931747,1232,0.1841,-0.0552,1.2759,-32.7148,-6.9580,22.3389,477,864,0
19936740,1233,0.1523,-0.0054,1.2266,-21.9116,-9.3994,19.6533,470,868,0
19941734,1234,0.1230,0.0117,1.1709,-12.3901,-11.9629,10.7422,487,871,0
19946736,1235,0.0806,0.0298,1.1333,-7.0801,-10.4980,5.9204,504,889,0
19951738,1236,0.0698,0.0498,1.1128,-7.5073,-7.0801,7.2021,464,875,0
19956741,1237,0.0649,0.0557,1.1011,-11.9629,-6.2866,6.4697,468,930,0
19961737,1238,0.0654,0.0459,1.0830,-16.6016,-6.7749,6.4697,469,876,0
19966738,1239,0.0415,0.0430,1.0596,-20.3247,-7.0801,7.6904,481,896,0
19971740,1240,0.0220,0.0498,1.0439,-22.7661,-4.5166,13.2446,464,860,0
19976735,1241,0.0781,0.0518,1.0269,-24.2310,-3.7231,17.7002,464,894,0
19981740,1242,0.0820,0.0493,1.0269,-24.0478,-7.5073,12.0239,482,870,0
19986735,1243,0.0747,0.0493,1.0347,-22.0337,-9.1553,10.6812,465,903,0
19991737,1244,0.0615,0.0532,1.0454,-18.1885,-10.1318,11.0474,465,929,0
19996739,1245,0.0430,0.0376,1.0737,-12.5732,-11.2915,7.7515,465,943,0
20001737,1246,0.0420,0.0361,1.0854,-6.8359,-11.5967,6.5918,465,907,0
20006734,1247,0.0640,0.0801,1.0835,-2.1362,-12.3901,8.3008,464,888,0
20011734,1248,0.0732,0.1045,1.1206,2.6245,-12.8174,8.9722,492,905,0
20016733,1249,0.0723,0.0898,1.1670,4.6387,-10.6201,8.1787,480,840,0
20021739,1250,0.0610,0.0991,1.1611,4.0283,-7.6294,8.1177,483,896,0
20026733,1251,0.0684,0.0942,1.1138,3.7842,-4.6997,11.3525,487,872,0
20031737,1252,0.0757,0.0908,1.0879,0.2441,-3.0518,12.8174,482,889,0
20036740,1253,0.0664,0.1016,1.0664,-2.6245,-2.3804,10.7422,491,877,0
20041739,1254,0.0620,0.1138,1.0361,-1.5259,-4.6387,10.1318,499,854,0
20046733,1255,0.0566,0.1177,1.0098,-0.0610,-8.3008,10.4980,491,875,0
20051739,1256,0.0195,0.1763,0.9502,-0.6714,-10.4980,11.9019,464,872,0
20056738,1257,0.0327,0.2075,0.9414,1.0376,-17.4561,11.3525,481,891,0
20061740,1258,0.0278,0.2012,0.9756,4.5166,-33.5693,11.2305,467,976,0
20066737,1259,0.0293,0.1797,1.0381,3.6621,-39.5508,10.3760,475,914,0
20071733,1260,0.0459,0.1514,1.0928,-0.9155,-26.4893,5.9204,464,843,0
20076738,1261,0.0596,0.1162,1.1118,-2.0752,-14.2822,2.5635,474,866,0
20081736,1262,0.0503,0.0903,1.0649,2.6855,-19.2871,3.3569,482,872,0
20086733,1263,0.0259,0.0801,1.0063,4.1504,-25.4517,4.6387,464,908,0
20091737,1264,0.0225,0.0967,1.0273,-0.4883,-23.2544,5.1880,464,903,0
20096735,1265,0.0488,0.1230,1.0986,-2.3804,-19.1650,6.7139,465,879,0
20101741,1266,0.0737,0.1274,1.1445,-0.0610,-17.3950,8.7891,491,878,0
20106734,1267,0.0728,0.0972,1.1450,2.3804,-17.5171,11.1084,464,910,0
20111736,1268,0.0879,0.1270,1.1597,8.1787,-19.0430,10.8643,492,898,0
20116734,1269,0.1265,0.0405,1.2397,41.9311,-22.2778,7.0190,489,809,0
20121740,1270,-0.0278,-0.2129,1.2393,51.6357,-18.4937,-0.6104,480,890,0
20126734,1271,-0.0273,0.0552,1.2119,36.1328,-2.8076,9.8267,478,898,0
20131754,1272,0.0356,0.1851,1.1475,40.7715,1.0986,12.3291,475,855,0
20136740,1273,0.0327,0.0571,1.1206,43.0908,-3.2959,5.7373,491,923,0
20141735,1274,0.0190,0.0625,1.1924,24.7803,-3.4790,4.9438,490,861,0
20146733,1275,0.0171,0.1138,1.2256,8.8501,3.2349,5.7983,510,872,0
20151742,1276,0.0234,0.0781,1.1006,2.0752,10.0708,3.7842,464,891,0
20156737,1277,0.0127,-0.0029,0.9595,0.8545,10.4370,0.1831,477,929,0
20161736,1278,-0.0508,-0.0327,0.9297,0.0610,6.4087,0.0000,464,872,0
20166738,1279,-0.0566,0.0347,1.0024,4.1504,0.6104,4.8828,469,794,0
20171737,1280,-0.0278,0.0361,1.0874,3.6621,-0.7935,3.5400,474,844,0
20176734,1281,-0.0039,0.0688,1.1270,2.5635,1.2817,5.5542,479,881,0
20181738,1282,0.0239,0.0518,1.0679,6.5918,-0.3052,5.8594,483,848,0
20186734,1283,0.0054,0.0303,0.9902,10.0708,-4.3945,4.5776,465,885,0
20191736,1284,-0.0239,0.0542,0.9790,8.0566,-5.8594,4.3335,464,903,0
20196734,1285,-0.0117,0.0713,1.0083,5.9204,-4.1504,5.0049,465,895,0
20201739,1286,0.0220,0.0342,1.0269,7.9346,-2.9907,4.0894,465,886,0
20206737,1287,0.0044,-0.0024,1.0156,10.8032,-3.4180,2.4414,465,861,0
20211736,1288,-0.0127,0.0234,1.0078,11.6577,-4.6997,0.7324,493,907,0
20216734,1289,0.0020,0.0439,1.0151,11.2915,-3.2959,0.6104,476,887,0
20221737,1290,0.0029,0.0430,1.0239,11.1084,-1.4038,0.8545,470,878,0
20226741,1291,0.0010,0.0537,1.0273,10.4370,-0.9155,0.9766,491,875,0
20231746,1292,-0.0020,0.0469,1.0254,9.8267,-0.1221,1.2817,476,875,0
20236736,1293,-0.0269,0.0000,1.0181,7.6294,1.0986,1.9531,482,854,0
20241741,1294,-0.0107,0.0088,0.9976,-0.1831,5.1880,0.8545,501,778,0
20246741,1295,-0.0010,0.0557,0.9854,-4.9438,12.2070,-1.9531,491,846,0
20251734,1296,0.0117,0.0610,1.0176,-3.6621,15.8691,-1.7700,482,865,0
20256740,1297,0.0098,0.0615,1.0610,-1.4648,14.7705,-2.5635,481,911,0
20261735,1298,0.0078,0.0967,1.0801,5.1270,11.1694,-3.7231,481,952,0
20266738,1299,0.0156,0.0532,1.0264,11.2305,5.0659,-2.2583,469,899,0
20271738,1300,0.0068,0.0190,0.9888,12.7563,-0.7935,-0.7324,471,838,0
20276741,1301,0.0396,0.0317,1.0107,12.5122,-0.4883,0.0610,479,862,0
20281735,1302,0.0649,0.0396,1.0200,12.4512,4.8828,2.7466,475,863,0
20286741,1303,0.0503,0.0425,1.0171,13.4277,8.3008,5.4932,464,895,0
20291741,1304,0.0322,0.0586,1.0225,15.5029,8.3008,5.7373,465,902,0
20296745,1305,0.0117,0.0640,1.0249,17.7002,5.9814,3.4180,465,912,0
20301739,1306,0.0103,0.0684,1.0347,19.1040,3.3569,3.4180,464,873,0
20306740,1307,0.0244,0.0405,1.0278,19.8975,2.3804,3.8452,491,872,0
20311734,1308,0.0322,0.0303,1.0278,19.7144,2.1973,1.7700,480,877,0
20316738,1309,-0.0020,0.0601,1.0493,17.0288,3.1128,-0.4272,465,818,0
20321737,1310,0.0024,0.0562,1.0239,13.6719,4.5166,0.3052,482,862,0
20326739,1311,0.0190,0.0493,1.0283,12.8784,4.8218,1.1597,482,877,0
20331739,1312,0.0142,0.0425,1.0298,11.8408,4.2725,1.4648,485,888,0
20336751,1313,0.0000,0.0518,1.0186,10.0098,3.6621,1.3428,470,879,0
20341735,1314,-0.0020,0.0405,1.0254,9.7656,3.3569,0.9155,487,825,0
20346737,1315,0.0000,0.0269,1.0327,8.3008,3.4180,1.5259,486,835,0
20351741,1316,0.0029,0.0117,1.0347,5.1880,4.1504,1.7700,503,786,0
20356738,1317,0.0068,0.0288,1.0195,2.3804,5.6152,2.0752,509,777,0
20361738,1318,0.0073,0.0371,1.0220,2.9907,6.4697,1.9531,481,902,0
20366740,1319,0.0103,0.0308,1.0205,2.9297,6.5918,1.5259,464,887,0
20371734,1320,0.0220,0.0342,1.0190,1.8311,6.5308,1.8311,464,885,0
20376734,1321,0.0220,0.0327,1.0215,1.5259,6.3477,2.5635,473,835,0
20381740,1322,0.0176,0.0298,1.0215,0.9766,5.9204,1.8921,476,875,0
20386741,1323,0.0088,0.0283,1.0215,0.4883,5.7373,1.4648,468,868,0
20391734,1324,-0.0054,0.0205,1.0225,0.5493,5.3101,0.6714,482,875,0
20396735,1325,-0.0166,0.0171,1.0229,0.2441,5.1270,0.3662,465,881,0
20401740,1326,-0.0103,0.0264,1.0234,0.1221,4.7607,-0.1831,465,868,0
20406739,1327,-0.0024,0.0205,1.0225,0.2441,3.9673,-1.4648,464,860,0
20411734,1328,-0.0029,0.0234,1.0205,-0.2441,3.8452,-1.9531,491,891,0
20416738,1329,0.0078,0.0293,1.0220,-0.3052,3.6011,-0.9155,464,894,0
20421739,1330,0.0249,0.0278,1.0249,0.0000,3.0518,0.1831,492,881,0
20426735,1331,0.0166,0.0269,1.0225,-0.0610,2.0142,0.6714,464,821,0
20431742,1332,0.0122,0.0283,1.0225,0.0610,1.3428,1.3428,480,856,0
20436738,1333,0.0137,0.0303,1.0229,0.0610,0.9155,0.9155,480,862,0
20441740,1334,0.0181,0.0293,1.0205,0.3662,0.9155,0.4883,491,830,0
20446733,1335,0.0186,0.0312,1.0215,0.3052,1.0986,0.0000,475,858,0
20451735,1336,0.0200,0.0269,1.0249,0.1221,1.2817,-0.3662,488,797,0
20456736,1337,0.0239,0.0312,1.0195,-0.1221,1.1597,0.0610,492,821,0
20461734,1338,0.0259,0.0288,1.0186,-0.0610,0.4883,0.1831,509,844,0
20466739,1339,0.0225,0.0254,1.0225,0.0000,-0.1221,0.4272,464,897,0
20471738,1340,0.0166,0.0278,1.0239,0.0610,-0.2441,0.2441,465,799,0
20476740,1341,0.0137,0.0269,1.0225,0.0610,-0.1221,0.0000,466,894,0
20481735,1342,0.0171,0.0254,1.0215,0.0610,0.2441,-0.2441,468,817,0
20486733,1343,0.0200,0.0288,1.0215,0.1831,0.4272,-0.4272,475,839,0
20491737,1344,0.0225,0.0273,1.0215,0.3052,0.4883,-0.3052,481,874,0
20496736,1345,0.0225,0.0293,1.0229,0.2441,0.1831,-0.1221,482,861,0
20501740,1346,0.0210,0.0288,1.0205,0.1831,-0.1221,0.0610,464,859,0
20506734,1347,0.0210,0.0298,1.0225,0.2441,-0.2441,0.1831,465,885,0
20511736,1348,0.0225,0.0298,1.0234,0.0610,-0.1221,0.1221,464,893,0
20516737,1349,0.0205,0.0308,1.0215,-0.1221,-0.0610,0.1221,465,881,0
20521741,1350,0.0215,0.0288,1.0195,0.0000,-0.2441,0.3662,464,877,0
20526734,1351,0.0229,0.0293,1.0205,0.1221,-0.4272,0.4272,472,753,0
20531735,1352,0.0225,0.0298,1.0205,0.1221,-0.3052,0.7324,463,854,0
20536737,1353,0.0215,0.0273,1.0259,-0.1221,-0.2441,0.6714,476,853,0
20541739,1354,0.0190,0.0303,1.0215,-0.3662,-0.4272,0.4883,482,860,0
20546741,1355,0.0181,0.0298,1.0215,-0.3662,-0.4272,0.6714,490,831,0
20551738,1356,0.0195,0.0293,1.0229,-0.3662,-0.3052,0.6104,479,884,0
20556742,1357,0.0181,0.0298,1.0200,-0.3052,-0.3662,0.5493,492,829,0
20561735,1358,0.0195,0.0283,1.0186,-0.4272,-0.3052,0.3662,486,846,0
20566740,1359,0.0186,0.0303,1.0210,-0.3662,-0.3052,0.2441,509,767,0
20571734,1360,0.0186,0.0293,1.0215,-0.3662,-0.3052,0.3052,470,909,0
20576739,1361,0.0215,0.0288,1.0200,-0.4883,-0.4272,0.2441,464,851,0
20581735,1362,0.0200,0.0303,1.0210,-0.5493,-0.3052,0.2441,464,890,0
20586737,1363,0.0195,0.0298,1.0200,-0.5493,-0.3662,0.1221,474,837,0
20591733,1364,0.0215,0.0303,1.0205,-0.4883,-0.2441,0.2441,479,844,0
20596736,1365,0.0205,0.0293,1.0215,-0.4272,-0.3662,0.3662,479,871,0
20601737,1366,0.0210,0.0312,1.0234,-0.6714,-0.3052,0.3052,465,873,0
20606736,1367,0.0244,0.0322,1.0220,-0.4883,-0.3052,0.3662,464,908,0
20611761,1368,0.0239,0.0322,1.0205,-0.5493,-0.3052,0.5493,465,859,0
20616733,1369,0.0210,0.0322,1.0205,-0.4883,-0.4883,0.9155,465,863,0
20621734,1370,0.0181,0.0278,1.0205,-0.5493,-0.4883,1.1597,465,859,0
20626740,1371,0.0151,0.0244,1.0220,-0.4883,-0.5493,0.9155,493,860,0
20631738,1372,0.0151,0.0273,1.0229,-0.3662,-0.3662,0.4883,492,761,0
20636734,1373,0.0181,0.0303,1.0239,-0.2441,0.1221,0.1831,474,840,0
20641733,1374,0.0171,0.0293,1.0220,-0.2441,0.1831,0.1831,490,829,0
20646745,1375,0.0200,0.0288,1.0229,-0.0610,0.0610,0.1831,482,860,0
20651733,1376,0.0220,0.0283,1.0210,-0.2441,0.1831,0.1831,483,887,0
20656740,1377,0.0210,0.0278,1.0190,-0.1831,0.0000,0.0610,508,836,0
20661737,1378,0.0190,0.0269,1.0234,-0.1831,0.0000,0.2441,499,784,0
20666740,1379,0.0186,0.0283,1.0225,-0.1831,-0.0610,0.1831,465,885,0
20671740,1380,0.0186,0.0288,1.0225,-0.1831,-0.0610,0.1831,464,931,0
20676735,1381,0.0186,0.0317,1.0186,-0.4272,0.0000,0.0000,469,881,0
20681740,1382,0.0166,0.0303,1.0205,-0.3052,0.1831,-0.0610,479,751,0
20686737,1383,0.0166,0.0298,1.0215,-0.2441,0.0610,0.0000,477,837,0
20691733,1384,0.0186,0.0303,1.0215,-0.3662,0.0610,0.0000,464,824,0
20696734,1385,0.0215,0.0308,1.0225,-0.3662,-0.0610,0.1221,483,792,0
20701734,1386,0.0215,0.0269,1.0205,-0.3662,-0.0610,0.3052,465,852,0
20706736,1387,0.0176,0.0288,1.0225,-0.4272,-0.0610,0.4883,465,884,0
20711753,1388,0.0220,0.0303,1.0225,-0.4272,0.0000,0.4272,465,861,0
20716733,1389,0.0220,0.0298,1.0220,-0.5493,0.0610,0.3662,465,813,0
20721741,1390,0.0195,0.0298,1.0210,-0.4272,0.0000,0.4272,492,888,0
20726737,1391,0.0225,0.0317,1.0225,-0.4272,-0.0610,0.7324,480,808,0
20731734,1392,0.0220,0.0308,1.0244,-0.4883,-0.0610,1.0376,493,776,0
20736738,1393,0.0210,0.0317,1.0234,-0.4883,-0.2441,1.1597,478,825,0
20741737,1394,0.0195,0.0264,1.0215,-0.5493,-0.3662,1.2817,485,835,0
20746741,1395,0.0171,0.0273,1.0225,-0.4883,-0.4883,1.0986,477,837,0
20751742,1396,0.0205,0.0293,1.0220,-0.5493,-0.4272,1.0376,481,828,0
20756739,1397,0.0244,0.0327,1.0225,-0.5493,-0.2441,1.4038,475,861,0
20761737,1398,0.0244,0.0332,1.0205,-0.7324,-0.3052,1.6479,469,828,0
20766734,1399,0.0239,0.0337,1.0210,-0.7324,-0.7324,2.0752,509,826,0
20771734,1400,0.0195,0.0298,1.0215,-0.6714,-1.0986,2.3193,464,901,0
20776740,1401,0.0156,0.0288,1.0220,-0.7324,-1.0376,2.0752,467,952,0
20781736,1402,0.0132,0.0254,1.0239,-0.6714,-0.7324,1.8921,466,889,0
20786741,1403,0.0142,0.0278,1.0244,-0.6104,-0.4883,1.4648,474,877,0
20791741,1404,0.0176,0.0278,1.0220,-0.6714,-0.3662,1.2207,476,843,0
20796740,1405,0.0190,0.0293,1.0215,-0.6104,-0.2441,1.0376,481,872,0
20801737,1406,0.0195,0.0303,1.0215,-0.4272,-0.1831,0.9155,482,869,0
20806740,1407,0.0215,0.0327,1.0210,-0.4272,-0.1221,1.0986,465,893,0
20811736,1408,0.0220,0.0342,1.0220,-0.4272,0.0610,1.5869,465,860,0
20816741,1409,0.0171,0.0288,1.0220,-0.3052,-0.3052,1.4038,465,860,0
20821733,1410,0.0137,0.0298,1.0205,-0.4272,-0.4883,0.9766,465,854,0
20826737,1411,0.0171,0.0278,1.0215,-0.4272,-0.3052,0.8545,464,857,0
20831739,1412,0.0190,0.0278,1.0190,-0.3662,-0.0610,0.7935,483,856,0
20836738,1413,0.0215,0.0308,1.0195,-0.3052,-0.0610,0.6104,463,843,0
20841737,1414,0.0205,0.0298,1.0225,-0.3662,-0.1221,0.6714,485,851,0
20846741,1415,0.0166,0.0303,1.0195,-0.1831,-0.3052,0.7324,473,858,0
20851751,1416,0.0181,0.0298,1.0186,-0.2441,-0.3052,0.6714,479,860,0
20856737,1417,0.0200,0.0293,1.0210,-0.2441,-0.3052,0.7324,480,825,0
20861739,1418,0.0166,0.0298,1.0210,-0.1831,-0.1831,0.7324,496,854,0
20866734,1419,0.0156,0.0283,1.0205,-0.3052,-0.1831,0.7324,497,853,0
20871740,1420,0.0171,0.0293,1.0190,-0.5493,0.1221,0.5493,464,889,0
20876738,1421,0.0166,0.0303,1.0200,-0.2441,0.0610,-0.0610,464,929,0
20881742,1422,0.0166,0.0303,1.0195,-0.3052,0.0610,0.1221,469,853,0
20886737,1423,0.0190,0.0312,1.0220,-0.4883,0.3052,0.2441,471,881,0
20891741,1424,0.0200,0.0288,1.0195,-0.4272,0.1831,0.1221,478,900,0
20896738,1425,0.0181,0.0278,1.0186,-0.2441,-0.0610,0.1221,481,873,0
20901741,1426,0.0195,0.0293,1.0200,-0.2441,0.1221,0.1831,482,838,0
20906740,1427,0.0181,0.0317,1.0215,-0.3052,0.1221,0.0000,464,871,0
20911740,1428,0.0181,0.0288,1.0225,-0.3052,0.1831,0.0610,464,807,0
20916741,1429,0.0190,0.0288,1.0220,-0.2441,0.0000,0.1221,464,884,0
20921741,1430,0.0186,0.0312,1.0205,-0.1831,-0.1831,0.3052,464,816,0
20926734,1431,0.0205,0.0308,1.0215,-0.3052,-0.3052,0.5493,492,885,0
20931735,1432,0.0220,0.0283,1.0215,-0.4883,-0.3662,0.6104,464,881,0
20936740,1433,0.0215,0.0293,1.0234,-0.4883,-0.3052,0.5493,492,859,0
20941737,1434,0.0225,0.0322,1.0215,-0.4883,-0.3662,0.6104,465,868,0
20946740,1435,0.0190,0.0288,1.0186,-0.3662,-0.3662,0.9155,491,858,0
20951733,1436,0.0171,0.0278,1.0229,-0.4883,-0.3662,0.7935,475,866,0
20956752,1437,0.0156,0.0278,1.0234,-0.4883,-0.3662,0.5493,489,833,0
20961734,1438,0.0195,0.0308,1.0225,-0.4272,-0.3052,0.4883,481,839,0
20966739,1439,0.0195,0.0298,1.0229,-0.5493,-0.1831,0.4883,497,855,0
20971740,1440,0.0176,0.0298,1.0234,-0.4883,-0.1221,0.3662,495,855,0
20976741,1441,0.0190,0.0317,1.0205,-0.5493,-0.3052,0.3662,510,751,0
20981741,1442,0.0156,0.0298,1.0220,-0.4272,-0.2441,0.4883,476,901,0
20986736,1443,0.0151,0.0293,1.0190,-0.3052,-0.0610,0.3662,481,852,0
20991739,1444,0.0161,0.0303,1.0205,-0.3662,-0.1831,0.2441,465,885,0
20996737,1445,0.0156,0.0308,1.0181,-0.2441,-0.1221,0.3052,464,818,0
21001737,1446,0.0190,0.0288,1.0186,-0.3052,-0.1221,0.2441,466,833,0
21006733,1447,0.0220,0.0283,1.0215,-0.4272,0.0000,0.5493,464,868,0
21011735,1448,0.0181,0.0278,1.0200,-0.1221,-0.1831,0.4272,482,828,0
21016740,1449,0.0166,0.0317,1.0210,-0.2441,-0.3662,0.1221,464,886,0
21021742,1450,0.0156,0.0293,1.0210,-0.4272,-0.1221,0.3052,465,891,0
21026743,1451,0.0195,0.0308,1.0205,-0.4883,0.0000,0.4883,465,882,0
21031739,1452,0.0186,0.0283,1.0205,-0.3052,0.0000,0.4272,464,812,0
21036737,1453,0.0215,0.0312,1.0195,-0.3662,-0.3662,0.1831,492,812,0
21041737,1454,0.0186,0.0293,1.0186,-0.3052,-0.2441,0.3662,474,919,0
21046736,1455,0.0190,0.0293,1.0215,-0.3052,-0.1831,0.3662,491,754,0
21051737,1456,0.0186,0.0332,1.0215,-0.3052,-0.3052,0.5493,472,831,0
21056734,1457,0.0195,0.0317,1.0220,-0.3662,-0.3052,0.7324,479,828,0
21061741,1458,0.0225,0.0342,1.0215,-0.5493,-0.3052,0.9155,471,856,0
21066734,1459,0.0215,0.0312,1.0200,-0.3662,-0.5493,0.9766,485,829,0
21071738,1460,0.0190,0.0293,1.0225,-0.3662,-0.4272,1.2207,503,912,0
21076738,1461,0.0244,0.0317,1.0220,-0.7324,-0.1831,1.9531,481,850,0
21081738,1462,0.0205,0.0308,1.0234,-0.4883,-0.3662,2.1973,509,830,0
21086736,1463,0.0166,0.0312,1.0234,-0.5493,-0.8545,2.1973,464,900,0
21091740,1464,0.0156,0.0298,1.0195,-0.6714,-0.7935,2.3193,466,949,0
21096741,1465,0.0156,0.0303,1.0210,-0.6104,-0.7324,1.8921,480,885,0
21101740,1466,0.0186,0.0308,1.0215,-0.7324,-0.6714,1.6479,464,872,0
21106735,1467,0.0181,0.0308,1.0225,-0.6714,-0.5493,1.6479,465,841,0
21111737,1468,0.0181,0.0308,1.0220,-0.5493,-0.4883,1.4648,471,869,0
21116733,1469,0.0181,0.0317,1.0220,-0.6104,-0.4883,1.4038,482,868,0
21121737,1470,0.0200,0.0317,1.0210,-0.6104,-0.3052,1.4038,465,854,0
21126737,1471,0.0195,0.0303,1.0210,-0.4883,-0.3052,1.4648,465,883,0
21131739,1472,0.0166,0.0317,1.0200,-0.4272,-0.4883,1.5259,465,855,0
21136733,1473,0.0205,0.0312,1.0229,-0.4883,-0.6104,1.4038,464,892,0
21141735,1474,0.0215,0.0327,1.0215,-0.5493,-0.5493,1.7700,490,886,0
21146735,1475,0.0181,0.0317,1.0220,-0.6714,-0.4272,2.0752,465,891,0
21151736,1476,0.0098,0.0269,1.0210,-0.4883,-0.4883,2.0752,493,769,0
21156740,1477,0.0098,0.0264,1.0200,-0.4883,-0.6714,1.6479,473,801,0
21161734,1478,0.0132,0.0303,1.0195,-0.5493,-0.4272,1.2817,476,854,0
21166737,1479,0.0171,0.0288,1.0229,-0.5493,-0.1221,0.9155,484,865,0
21171758,1480,0.0186,0.0317,1.0229,-0.4272,0.0000,0.9155,490,835,0
21176735,1481,0.0220,0.0322,1.0220,-0.5493,-0.1221,1.0986,478,791,0
21181734,1482,0.0264,0.0366,1.0195,-0.6104,-0.3052,1.4038,488,851,0
21186737,1483,0.0186,0.0332,1.0210,-0.7324,-0.2441,2.0142,508,847,0
21191740,1484,0.0083,0.0244,1.0205,-0.5493,-0.4272,1.9531,464,889,0
21196734,1485,0.0122,0.0288,1.0200,-0.4883,-0.4272,1.4038,468,930,0
21201738,1486,0.0171,0.0327,1.0215,-0.4272,-0.2441,1.2207,478,882,0
21206741,1487,0.0122,0.0288,1.0205,-0.4883,0.0610,1.2207,480,891,0
21211737,1488,0.0103,0.0278,1.0210,-0.4272,-0.0610,0.9155,481,842,0
21216738,1489,0.0132,0.0283,1.0225,-0.2441,-0.1221,0.7324,469,871,0
21221736,1490,0.0122,0.0317,1.0225,-0.3662,-0.0610,0.4883,482,843,0
21226736,1491,0.0122,0.0283,1.0190,-0.2441,0.0000,0.2441,465,863,0
21231733,1492,0.0176,0.0288,1.0234,-0.1831,0.1221,0.0610,465,823,0
21236735,1493,0.0171,0.0312,1.0225,-0.3662,0.0000,-0.0610,465,889,0
21241739,1494,0.0166,0.0298,1.0200,-0.2441,0.0610,-0.0610,465,837,0
21246733,1495,0.0161,0.0298,1.0215,-0.2441,0.1831,-0.1831,491,859,0
21251734,1496,0.0151,0.0312,1.0215,-0.3052,0.1221,0.0000,470,894,0
21256741,1497,0.0161,0.0308,1.0225,-0.3052,0.1221,0.0000,491,834,0
21261734,1498,0.0166,0.0278,1.0225,-0.3052,0.0000,0.0000,487,778,0
21266734,1499,0.0161,0.0303,1.0210,-0.2441,0.1221,0.0000,475,787,0
21271741,1500,0.0166,0.0278,1.0220,-0.3662,0.1221,0.0000,487,830,0
21276733,1501,0.0142,0.0283,1.0234,-0.2441,0.0000,0.1221,470,816,0
21281737,1502,0.0176,0.0298,1.0215,-0.3662,0.0000,0.0000,492,805,0
21286741,1503,0.0156,0.0288,1.0205,-0.3662,-0.0610,0.0000,491,797,0
21291736,1504,0.0132,0.0298,1.0181,-0.3052,-0.1221,0.1221,510,816,0
21296739,1505,0.0181,0.0322,1.0215,-0.3052,0.0000,0.1221,478,910,0
21301735,1506,0.0195,0.0308,1.0229,-0.3662,0.1221,0.1831,464,825,0
21306740,1507,0.0171,0.0303,1.0195,-0.4272,0.0610,0.1831,472,888,0
21311733,1508,0.0176,0.0322,1.0205,-0.3052,0.0000,0.3052,474,838,0
21316736,1509,0.0171,0.0278,1.0220,-0.3052,-0.1221,0.1831,466,818,0
21321733,1510,0.0146,0.0308,1.0200,-0.3662,0.0610,0.1831,482,838,0
21326734,1511,0.0176,0.0303,1.0220,-0.3052,0.1221,0.3052,465,860,0
21331740,1512,0.0151,0.0312,1.0220,-0.4272,0.0610,0.1221,465,846,0
21336737,1513,0.0146,0.0312,1.0190,-0.3662,0.0610,0.1221,464,885,0
21341741,1514,0.0171,0.0298,1.0215,-0.1831,0.0610,0.0610,465,884,0
21346740,1515,0.0151,0.0312,1.0205,-0.3052,0.2441,0.0000,465,854,0
21351737,1516,0.0166,0.0303,1.0161,-0.2441,0.2441,-0.0610,464,761,0
21356736,1517,0.0156,0.0308,1.0176,-0.3052,0.0610,-0.1831,492,861,0
21361734,1518,0.0161,0.0308,1.0229,-0.2441,0.3662,-0.2441,491,805,0
21366738,1519,0.0156,0.0308,1.0229,-0.3052,0.2441,-0.1831,473,840,0
21371733,1520,0.0161,0.0317,1.0225,-0.1221,0.1831,0.0000,480,862,0
21376740,1521,0.0156,0.0317,1.0200,-0.3662,0.1221,-0.1221,474,815,0
21381740,1522,0.0205,0.0303,1.0239,-0.3052,0.0000,-0.1221,499,856,0
21386738,1523,0.0176,0.0298,1.0220,-0.3052,0.0610,0.0000,484,777,0
21391737,1524,0.0176,0.0303,1.0195,-0.3052,-0.0610,-0.0610,510,818,0
21396735,1525,0.0156,0.0312,1.0210,-0.3052,-0.0610,0.0000,474,910,0
21401737,1526,0.0156,0.0303,1.0190,-0.3052,0.0610,0.0000,465,854,0
21406738,1527,0.0166,0.0308,1.0181,-0.2441,0.0000,-0.0610,465,789,0
21411737,1528,0.0181,0.0322,1.0190,-0.3052,0.0000,-0.0610,471,793,0
21416735,1529,0.0200,0.0308,1.0215,-0.3052,-0.0610,0.0610,478,819,0
21421734,1530,0.0166,0.0312,1.0215,-0.3052,-0.0610,0.1221,479,831,0
21426741,1531,0.0161,0.0308,1.0200,-0.3662,0.0000,0.0610,465,890,0
21431735,1532,0.0171,0.0303,1.0210,-0.4272,0.0610,-0.0610,465,840,0
21436741,1533,0.0156,0.0293,1.0200,-0.3662,-0.1221,0.0610,464,880,0
21441733,1534,0.0186,0.0298,1.0220,-0.4883,0.0000,0.1221,464,884,0
21446740,1535,0.0156,0.0298,1.0225,-0.4272,-0.0610,0.1221,465,808,0
21451734,1536,0.0156,0.0317,1.0215,-0.4883,-0.1221,0.1831,465,883,0
21456742,1537,0.0186,0.0312,1.0181,-0.5493,-0.1221,0.2441,493,780,0
21461738,1538,0.0181,0.0322,1.0205,-0.4272,-0.2441,0.3662,468,808,0
21466737,1539,0.0166,0.0308,1.0225,-0.6104,-0.1831,0.5493,483,836,0
21471737,1540,0.0181,0.0293,1.0190,-0.6714,-0.0610,0.6104,486,861,0
21476735,1541,0.0186,0.0312,1.0220,-0.7324,-0.0610,0.4883,474,872,0
21481741,1542,0.0166,0.0298,1.0229,-0.8545,-0.0610,0.4272,508,854,0
21486739,1543,0.0166,0.0322,1.0225,-1.0376,-0.0610,0.5493,467,850,0
21491734,1544,0.0156,0.0332,1.0195,-1.1597,-0.0610,0.6104,510,823,0
21496741,1545,0.0161,0.0312,1.0220,-1.4038,0.0610,0.5493,464,900,0
21501734,1546,0.0166,0.0273,1.0220,-1.3428,0.2441,0.6104,479,914,0
21506735,1547,0.0176,0.0317,1.0205,-1.3428,0.1221,0.7935,469,888,0
21511737,1548,0.0151,0.0317,1.0210,-1.2817,0.0000,0.7324,469,876,0
21516735,1549,0.0112,0.0269,1.0229,-1.2817,0.1831,0.7935,474,830,0
21521739,1550,0.0186,0.0361,1.0176,-1.8311,0.8545,1.7090,481,877,0
21526741,1551,0.0195,0.0327,1.0210,-0.9766,0.6104,0.9766,483,866,0
21531742,1552,0.0176,0.0327,1.0229,-0.7935,-0.2441,1.2207,465,882,0
21536737,1553,0.0156,0.0347,1.0200,-0.9155,-0.1221,1.4038,464,867,0
21541741,1554,0.0176,0.0303,1.0225,-0.6714,-0.0610,1.0986,465,887,0
21546733,1555,0.0146,0.0317,1.0215,-0.7324,-0.1221,1.2817,464,883,0
21551736,1556,0.0142,0.0327,1.0200,-0.8545,-0.0610,1.2817,491,894,0
21556740,1557,0.0161,0.0283,1.0200,-0.7324,0.0000,1.0986,472,859,0
21561739,1558,0.0200,0.0308,1.0220,-0.4883,0.0610,1.0376,492,761,0
21566741,1559,0.0166,0.0298,1.0220,-0.3662,-0.0610,0.9766,489,802,0
21571738,1560,0.0142,0.0308,1.0190,-0.3662,-0.0610,0.8545,487,859,0
21576741,1561,0.0161,0.0312,1.0229,-0.3662,-0.0610,0.4883,475,848,0
21581739,1562,0.0195,0.0317,1.0190,-0.5493,-0.0610,0.6714,484,860,0
21586737,1563,0.0186,0.0312,1.0205,-0.6714,0.0610,0.8545,494,863,0
21591738,1564,0.0156,0.0303,1.0210,-0.7324,-0.0610,0.9766,477,870,0
21596734,1565,0.0161,0.0332,1.0205,-0.9155,-0.0610,1.2817,509,844,0
21601733,1566,0.0195,0.0381,1.0156,-0.8545,-0.2441,1.4648,469,904,0
21606739,1567,0.0171,0.0356,1.0234,-0.4272,-0.5493,1.5259,476,851,0
21611739,1568,0.0151,0.0317,1.0215,-0.3662,-1.0986,1.7700,474,892,0
21616739,1569,0.0171,0.0322,1.0210,-0.4883,-0.9155,2.0142,480,819,0
21621734,1570,0.0171,0.0278,1.0205,-0.1831,-0.6714,1.8921,464,840,0
21626740,1571,0.0132,0.0298,1.0229,-0.1831,-0.8545,1.2207,464,869,0
21631741,1572,0.0156,0.0317,1.0234,-0.4272,-0.2441,1.2207,483,873,0
21636739,1573,0.0156,0.0312,1.0229,-0.3662,0.1221,1.0986,464,871,0
21641736,1574,0.0166,0.0327,1.0161,-0.3052,-0.1221,0.6104,464,889,0
21646747,1575,0.0161,0.0322,1.0225,-0.1221,-0.0610,0.5493,465,857,0
21651737,1576,0.0151,0.0303,1.0210,-0.0610,-0.0610,0.4883,465,888,0
21656735,1577,0.0156,0.0327,1.0200,-0.1221,0.0000,0.4272,492,853,0
21661733,1578,0.0156,0.0303,1.0195,-0.1831,0.0610,0.4272,481,807,0
21666737,1579,0.0171,0.0317,1.0220,-0.4272,0.1221,0.7324,463,776,0
21671735,1580,0.0166,0.0371,1.0195,-0.7324,0.1831,1.7700,467,841,0
21676735,1581,0.0151,0.0327,1.0220,-0.3052,-0.4272,1.5259,479,868,0
21681734,1582,0.0122,0.0312,1.0205,-0.0610,-0.7324,0.7324,486,832,0
21686737,1583,0.0117,0.0303,1.0229,-0.2441,0.0000,0.4272,473,859,0
21691742,1584,0.0171,0.0303,1.0220,-0.4272,0.4883,0.2441,502,804,0
21696739,1585,0.0166,0.0312,1.0210,-0.4883,0.4883,0.3052,481,845,0
21701735,1586,0.0156,0.0298,1.0225,-0.5493,0.4272,0.7935,505,840,0
21706738,1587,0.0190,0.0386,1.0229,-1.0986,0.5493,2.3804,470,900,0
21711735,1588,0.0176,0.0400,1.0210,-1.3428,0.0000,3.7231,473,852,0
21716737,1589,0.0215,0.0396,1.0181,-1.2817,-1.0986,5.0049,479,832,0
21721736,1590,0.0146,0.0264,1.0200,-0.1221,-2.1973,4.6387,479,875,0
21726735,1591,0.0117,0.0244,1.0225,0.3052,-2.7466,2.2583,466,843,0
21731737,1592,0.0122,0.0449,1.0205,-0.3662,-1.8311,2.4414,466,873,0
21736738,1593,0.0176,0.0396,1.0186,-0.4883,-1.4648,4.2725,483,875,0
21741737,1594,0.0200,0.0342,1.0220,0.4272,-3.3569,2.5024,465,889,0
21746733,1595,0.0083,0.0630,1.0239,-1.1597,-4.1504,3.6011,465,895,0
21751747,1596,0.0059,0.0596,1.0190,-2.0142,-3.5400,6.4697,464,859,0
21756735,1597,0.0117,0.0503,1.0205,-1.9531,-5.1270,5.7983,465,887,0
21761740,1598,0.0049,0.0508,1.0210,-2.1362,-6.7139,4.1504,492,895,0
21766735,1599,-0.0176,0.0479,1.0327,-3.2349,-6.8970,1.9531,478,855,0
21771740,1600,-0.0825,0.0317,1.0425,-7.1411,-6.4087,1.8921,493,777,0
21776737,1601,-0.0762,0.1050,1.0376,-14.0991,-7.2021,9.2163,470,874,0
21781733,1602,-0.0127,0.0801,1.0210,-16.3574,-12.0850,7.7515,484,887,0
21786747,1603,0.0000,0.0356,1.0605,-12.3901,-19.6533,1.5869,475,888,0
21791734,1604,0.0054,0.0542,1.2021,-0.0610,-24.9634,-3.9673,470,826,0
21796739,1605,-0.0605,0.1353,1.2861,25.5127,-29.4800,-9.8267,489,847,0
21801739,1606,-0.1860,0.1309,1.2642,53.2837,-39.9780,-22.2778,484,909,0
21806735,1607,-0.0542,-0.0933,1.3320,58.6548,-50.9033,-33.3862,510,907,0
21811738,1608,0.0986,-0.1201,1.3301,46.0815,-51.4526,-28.9917,476,902,0
21816739,1609,0.1973,-0.0747,1.3945,34.7290,-41.9311,-20.3247,474,947,0
21821733,1610,0.1279,-0.0688,1.6431,14.5264,-7.8735,-12.6953,475,998,0
21826738,1611,0.0171,0.0693,1.7178,-20.9961,88.8061,-6.5918,464,902,0
21831733,1612,0.0576,0.1108,1.5229,-26.6113,95.7031,-8.8501,464,877,0
21836741,1613,0.0601,0.1382,1.3789,-32.3486,92.1020,-8.5449,464,890,0
21841739,1614,0.0293,0.1484,1.3677,-41.1377,94.7876,-7.0190,482,881,0
21846736,1615,0.0137,0.1528,1.4375,-49.9878,101.1352,-5.6763,465,932,0
21851737,1616,0.0269,0.1558,1.5259,-55.6641,105.8960,-4.7607,465,911,0
21856743,1617,0.0605,0.1245,1.6270,-59.7534,110.2295,-5.0049,464,906,0
21861733,1618,0.0947,0.0718,1.7363,-68.8477,118.2251,-4.5166,464,938,0
21866733,1619,0.1216,0.0479,1.8228,-86.7920,132.6294,-1.1597,492,902,0
21871733,1620,0.1138,0.0176,1.8506,-112.3047,151.4893,3.7842,465,899,0
21876734,1621,0.0679,0.0098,1.7842,-144.2261,171.4477,11.1694,493,928,0
21881736,1622,0.1602,-0.0171,1.6196,-176.8799,188.0493,18.1885,466,843,0
21886735,1623,0.1162,-0.0376,1.4370,-210.8764,196.4111,17.3340,474,900,0
21891736,1624,0.0381,0.0161,1.3086,-232.4829,183.8379,14.3433,481,931,0
21896740,1625,0.0234,0.0962,1.2051,-236.3891,163.2690,14.5874,489,926,0
21901736,1626,0.0034,0.1509,1.1421,-235.2905,159.6069,10.9253,496,901,0
21906735,1627,-0.0020,0.1826,1.1167,-229.9194,169.4946,4.1504,477,888,0
21911734,1628,0.0581,0.1792,1.0781,-217.2851,177.5513,-2.4414,504,903,0
21916739,1629,0.1260,0.1450,1.0220,-202.5757,178.0395,-7.7515,465,831,0
21921742,1630,0.1733,0.1216,0.9800,-191.8335,174.1943,-10.3149,464,940,0
21926740,1631,0.2065,0.1528,0.9673,-184.9975,169.9829,-10.1318,467,999,0
21931739,1632,0.2417,0.1880,0.9917,-177.8564,165.5884,-10.9253,474,954,0
21936736,1633,0.2417,0.2720,1.0479,-170.8984,162.4145,-14.2822,465,883,0
21941740,1634,0.2549,0.3550,1.1353,-163.1470,162.2925,-19.4702,469,918,0
21946738,1635,0.2666,0.4155,1.2295,-157.9590,168.2739,-25.0854,483,935,0
21951735,1636,0.2749,0.4258,1.2798,-155.8838,177.9175,-30.2124,464,934,0
21956734,1637,0.2783,0.3667,1.2793,-156.6772,189.6362,-33.5693,464,956,0
21961759,1638,0.2920,0.3101,1.2480,-162.7807,203.0639,-35.5835,465,958,0
21966737,1639,0.3003,0.2910,1.1792,-171.9971,214.7217,-39.0625,464,923,0
21971738,1640,0.2959,0.2803,1.0791,-180.1147,221.6797,-41.6870,492,916,0
21976734,1641,0.2593,0.2798,0.9580,-187.5610,223.6328,-42.4805,464,932,0
21981733,1642,0.2490,0.2666,0.8579,-191.3452,221.3135,-41.7480,492,929,0
21986741,1643,0.2788,0.2666,0.7842,-193.2983,217.2851,-41.1377,483,843,0
21991741,1644,0.2979,0.2988,0.7607,-195.3125,212.0361,-40.4053,487,872,0
21996749,1645,0.3042,0.3052,0.7754,-195.3735,206.6040,-39.3066,474,931,0
22001738,1646,0.3203,0.2944,0.7686,-195.7397,203.3081,-38.3301,471,919,0
22006740,1647,0.3311,0.2842,0.7285,-195.4956,201.9043,-37.9028,504,917,0
22011734,1648,0.3369,0.3052,0.6841,-192.8711,200.3174,-38.7573,488,891,0
22016739,1649,0.3809,0.3643,0.6680,-188.1103,199.2187,-41.9311,510,907,0
22021741,1650,0.4434,0.3892,0.6914,-182.2510,199.6460,-47.1191,475,921,0
22026739,1651,0.4731,0.3652,0.7446,-180.2368,200.9277,-49.8657,477,931,0
22031736,1652,0.4614,0.3853,0.8008,-183.1055,203.0639,-45.5322,464,1019,0
22036740,1653,0.4683,0.4253,0.8145,-183.4106,207.4585,-40.2222,470,954,0
22041737,1654,0.5029,0.4619,0.7671,-181.2744,214.0503,-38.7573,473,944,0
22046735,1655,0.5181,0.4878,0.6973,-177.6733,218.6889,-42.7246,474,936,0
22051741,1656,0.4561,0.4771,0.6250,-170.4712,219.4214,-47.6074,482,946,0
22056737,1657,0.4214,0.4800,0.5889,-160.4614,217.4072,-44.4946,464,952,0
22061736,1658,0.5107,0.5142,0.5962,-145.3857,215.0879,-45.4102,464,957,0
22066762,1659,0.6040,0.4653,0.5493,-127.8076,213.6230,-58.9600,465,922,0
22071741,1660,0.6445,0.4111,0.4526,-120.1172,212.9516,-70.3735,464,939,0
22076736,1661,0.6294,0.3521,0.4092,-119.0796,209.9609,-74.6460,465,931,0
22081733,1662,0.5283,0.2295,0.4253,-120.6055,202.7588,-73.1812,464,945,0
22086735,1663,0.4473,0.0874,0.4199,-122.4976,193.1763,-63.2324,492,949,0
22091740,1664,0.4312,0.0601,0.3462,-128.6011,185.2417,-45.7764,480,831,0
22096735,1665,0.4634,0.1709,0.2012,-138.9160,177.1240,-26.1841,483,894,0
22101746,1666,0.5098,0.3179,0.0747,-151.6724,168.8843,-9.4604,476,920,0
22106737,1667,0.5718,0.4033,0.0688,-164.4897,161.1328,3.0518,488,904,0
22111734,1668,0.5977,0.4419,0.1509,-173.1567,153.1372,12.0850,508,884,0
22116737,1669,0.6245,0.4355,0.1968,-177.4902,146.3623,16.4185,497,950,0
22121736,1670,0.6323,0.4092,0.1855,-180.9692,142.2729,19.2871,510,914,0
22126736,1671,0.6304,0.3936,0.1748,-185.9131,136.8408,24.1699,480,941,0
22131742,1672,0.6431,0.4082,0.2075,-190.6738,131.9580,29.4189,464,965,0
22136735,1673,0.6338,0.4634,0.2842,-194.1528,131.1035,32.7148,464,913,0
22141736,1674,0.6587,0.5156,0.3721,-192.7490,134.0332,33.9355,474,911,0
22146742,1675,0.6836,0.5342,0.4468,-188.5986,142.3340,30.3345,480,939,0
22151739,1676,0.7217,0.5483,0.4907,-183.7768,152.8931,24.7803,474,935,0
22156733,1677,0.7437,0.5635,0.4678,-182.4951,166.3818,17.6392,482,907,0
22161733,1678,0.7207,0.5972,0.3701,-182.6782,179.3823,12.2070,465,956,0
22166741,1679,0.6968,0.5933,0.2568,-184.0820,186.4624,7.3853,464,963,0
22171737,1680,0.6719,0.5913,0.1646,-188.0493,189.2090,2.9297,465,914,0
22176735,1681,0.6709,0.5806,0.0811,-189.1479,188.6597,0.3052,465,912,0
22181734,1682,0.6592,0.5723,0.0391,-186.0351,184.6924,-2.8687,492,929,0
22186735,1683,0.6670,0.5601,0.0244,-178.2837,177.0019,-5.9814,466,908,0
22191734,1684,0.6953,0.5273,0.0215,-168.2739,169.0063,-9.3994,493,909,0
22196737,1685,0.7007,0.4844,0.0205,-158.5083,159.9731,-11.5967,486,843,0
22201737,1686,0.6987,0.4482,0.0293,-150.5737,148.6206,-11.9019,470,895,0
22206752,1687,0.6924,0.4395,0.0376,-145.7520,137.7563,-10.9253,472,920,0
22211736,1688,0.7012,0.4526,0.0464,-142.5171,130.6763,-8.7280,490,889,0
22216738,1689,0.7026,0.4478,0.0283,-138.8550,125.5493,-5.5542,493,915,0
22221734,1690,0.6934,0.4453,-0.0171,-134.5825,120.4224,-0.0610,499,911,0
22226733,1691,0.6743,0.4473,-0.0547,-128.9673,112.0605,7.6294,491,864,0
22231736,1692,0.6885,0.4355,-0.0649,-126.0376,100.7690,14.9536,468,931,0
22236734,1693,0.7051,0.4492,-0.0435,-125.9766,91.5527,21.3623,468,970,0
22241737,1694,0.7070,0.4985,-0.0420,-123.9624,83.8623,27.0996,475,914,0
22246740,1695,0.6987,0.5425,-0.0630,-118.6523,75.4395,28.5034,474,942,0
22251735,1696,0.6997,0.5669,-0.0923,-113.3423,67.6880,25.5737,474,942,0
22256738,1697,0.7178,0.6035,-0.1128,-110.9619,62.0728,21.9116,477,934,0
22261738,1698,0.7319,0.6108,-0.1113,-107.6050,56.7017,20.3247,483,937,0
22266736,1699,0.7329,0.5850,-0.1182,-103.4546,50.7202,19.7754,465,954,0
22271737,1700,0.7378,0.5576,-0.1455,-100.5249,45.1660,20.2026,465,946,0
22276738,1701,0.7368,0.5474,-0.1812,-99.4263,40.0391,20.6909,464,957,0
22281734,1702,0.7305,0.5693,-0.2041,-99.1211,35.2783,19.8975,465,907,0
22286741,1703,0.7256,0.5850,-0.1987,-97.9004,31.5552,16.3574,491,908,0
22291737,1704,0.7163,0.5732,-0.1729,-96.4355,30.7007,11.9629,465,914,0
22296740,1705,0.7031,0.5576,-0.1484,-96.6186,32.1045,9.9487,492,922,0
22301738,1706,0.7021,0.5405,-0.1387,-98.9990,33.9966,10.4370,468,810,0
22306733,1707,0.6880,0.5093,-0.1460,-102.7832,35.8887,12.1460,490,840,0
22311735,1708,0.6807,0.4761,-0.1738,-106.0181,37.5977,15.1978,482,887,0
22316734,1709,0.6719,0.4473,-0.1982,-106.2012,38.7573,19.2261,490,911,0
22321733,1710,0.6602,0.4116,-0.2104,-103.4546,38.9404,24.1699,500,910,0
22326733,1711,0.6528,0.4097,-0.2314,-100.1587,38.8184,29.9072,485,890,0
22331734,1712,0.6528,0.4702,-0.2930,-95.5200,38.6353,34.3628,506,879,0
22336735,1713,0.6797,0.5337,-0.3569,-87.7685,37.2925,35.0952,464,898,0
22341735,1714,0.7075,0.5386,-0.3506,-79.8340,35.5225,33.9966,464,941,0
22346741,1715,0.7275,0.5156,-0.2817,-74.8291,34.2407,35.0342,464,889,0
22351735,1716,0.7168,0.5010,-0.2271,-71.3501,33.9966,37.4146,481,927,0
22356738,1717,0.6860,0.4971,-0.2227,-69.0918,34.2407,39.1235,469,845,0
22361735,1718,0.6572,0.5010,-0.2593,-68.9697,34.4849,39.0625,469,884,0
22366738,1719,0.6572,0.5146,-0.3076,-71.2280,34.1797,37.2925,482,913,0
22371737,1720,0.6499,0.5244,-0.3350,-74.5850,33.8745,36.3159,465,918,0
22376741,1721,0.6577,0.5220,-0.3452,-76.5991,34.0576,37.2925,464,942,0
22381733,1722,0.6353,0.5391,-0.3589,-78.1860,33.6914,39.1235,465,939,0
