t_us,seq,ax,ay,az,gx,gy,gz,valid,t_imu_us,t_serial_us,missed
68673322,1,-0.0332,-0.1655,1.0122,0.0000,0.2441,-0.1831,1,486,0,0
68676714,2,-0.0337,-0.1646,1.0107,0.0610,0.1831,-0.2441,1,483,0,0
68681712,3,-0.0347,-0.1641,1.0088,0.0000,0.1221,-0.2441,1,483,0,0
68687021,4,-0.0347,-0.1636,1.0093,-0.3052,0.1831,-0.3662,1,484,0,0
68692727,5,-0.0337,-0.1646,1.0098,-0.2441,0.0610,-0.3052,1,473,0,0
68696720,6,-0.0337,-0.1660,1.0107,-0.1831,-0.0610,-0.1221,1,478,0,0
68701719,7,-0.0342,-0.1655,1.0117,-0.0610,0.0000,-0.1221,1,480,0,0
68707792,8,-0.0342,-0.1641,1.0112,-0.0610,0.0610,-0.1221,1,478,0,0
68712044,9,-0.0342,-0.1655,1.0093,-0.1831,0.1831,-0.0610,1,483,0,0
68716718,10,-0.0347,-0.1680,1.0068,-0.1831,0.1221,-0.2441,1,480,0,0
68721715,11,-0.0337,-0.1680,1.0063,-0.0610,-0.0610,-0.1831,1,483,0,0
68727734,12,-0.0312,-0.1650,1.0122,-0.1221,0.2441,-0.0610,1,467,0,0
68733714,13,-0.0312,-0.1646,1.0137,-0.4272,0.3662,-0.2441,1,483,0,0
68739725,14,-0.0322,-0.1650,1.0122,-0.4272,0.2441,-0.1221,1,472,0,0
68742261,15,-0.0322,-0.1650,1.0122,-0.4272,0.2441,-0.1221,1,475,0,0
68748717,16,-0.0332,-0.1660,1.0088,-0.3662,0.3662,-0.1221,1,480,0,0
68754713,17,-0.0337,-0.1680,1.0098,-0.4883,0.2441,-0.1221,1,484,0,0
68760725,18,-0.0342,-0.1670,1.0112,-0.4272,0.3662,-0.1221,1,475,0,0
68766709,19,-0.0327,-0.1641,1.0112,-0.4272,0.4883,-0.1831,1,483,0,0
68768054,20,-0.0327,-0.1636,1.0112,-0.4883,0.3662,-0.0610,1,477,0,0
68778730,21,-0.0347,-0.1660,1.0112,-0.6104,0.5493,-0.0610,1,469,0,1
68785705,22,-0.0337,-0.1665,1.0127,-0.6104,0.5493,-0.0610,1,483,0,1
68787035,23,-0.0327,-0.1660,1.0132,-0.6714,0.4883,0.0000,1,484,0,1
68791718,24,-0.0337,-0.1655,1.0132,-0.6714,0.6104,-0.0610,1,480,0,1
68798051,25,-0.0342,-0.1660,1.0142,-0.8545,0.6104,-0.1221,1,504,0,1
68803514,26,-0.0337,-0.1670,1.0132,-0.9155,0.6714,-0.1221,1,471,0,1
68807872,27,-0.0337,-0.1680,1.0117,-0.9155,0.7324,0.0000,1,484,0,1
68812239,28,-0.0337,-0.1685,1.0107,-0.8545,0.7324,0.0000,1,495,0,1
68816713,29,-0.0342,-0.1680,1.0093,-0.8545,0.7935,-0.0610,1,483,0,1
68821716,30,-0.0342,-0.1680,1.0093,-0.7324,0.7324,-0.1221,1,481,0,1
68827711,31,-0.0342,-0.1675,1.0107,-0.7324,0.6714,-0.0610,1,483,0,1
68833080,32,-0.0332,-0.1665,1.0117,-0.7935,0.7324,-0.0610,1,465,0,1
68838727,33,-0.0327,-0.1660,1.0107,-0.7935,0.6714,0.0610,1,473,0,1
68841716,34,-0.0332,-0.1670,1.0093,-0.7324,0.4883,0.0000,1,482,0,1
68846717,35,-0.0337,-0.1685,1.0093,-0.6714,0.4883,-0.1221,1,480,0,1
68851717,36,-0.0347,-0.1680,1.0103,-0.4883,0.6104,-0.1221,1,479,0,1
68856716,37,-0.0352,-0.1675,1.0103,-0.4272,0.4272,-0.1221,1,481,0,1
68861713,38,-0.0356,-0.1685,1.0112,-0.4883,0.3662,-0.1831,1,484,0,1
68866721,39,-0.0352,-0.1689,1.0112,-0.2441,0.4272,-0.1221,1,468,0,1
68872724,40,-0.0352,-0.1704,1.0107,-0.1221,0.2441,-0.0610,1,476,0,1
68878093,41,-0.0347,-0.1694,1.0107,0.7324,0.0000,0.1221,1,465,0,1
68883405,42,-0.0347,-0.1655,1.0093,0.9766,0.2441,-0.2441,1,480,0,1
68888715,43,-0.0356,-0.1655,1.0073,-0.1831,0.0000,-0.1221,1,481,0,1
68894729,44,-0.0356,-0.1694,1.0073,-0.5493,0.1221,-0.3662,1,471,0,1
68897074,45,-0.0356,-0.1719,1.0088,0.4883,-0.0610,-0.1831,1,465,0,1
68901714,46,-0.0347,-0.1689,1.0098,0.5493,-0.1221,-0.1831,1,481,0,1
68906717,47,-0.0337,-0.1670,1.0098,-0.1831,0.1221,-0.4272,1,480,0,1
68912732,48,-0.0342,-0.1675,1.0107,0.2441,0.0610,-0.4272,1,468,0,1
68919707,49,-0.0347,-0.1685,1.0117,0.6104,0.1831,-0.1221,1,483,0,1
68922078,50,-0.0347,-0.1685,1.0117,0.6104,0.1831,-0.1221,1,465,0,1
68927716,51,-0.0342,-0.1670,1.0112,0.7324,0.0000,-0.0610,1,479,0,1
68934721,52,-0.0332,-0.1646,1.0112,0.1221,0.0610,-0.1221,1,477,0,1
68937054,53,-0.0332,-0.1646,1.0112,0.1221,0.0610,-0.1221,1,476,0,1
68942732,54,-0.0337,-0.1646,1.0132,0.3052,0.1221,-0.1221,1,467,0,1
68946713,55,-0.0332,-0.1655,1.0142,0.3052,0.1221,0.0000,1,483,0,1
68952710,56,-0.0327,-0.1665,1.0146,0.1221,0.1221,-0.1221,1,483,0,1
68958723,57,-0.0332,-0.1665,1.0142,0.1221,0.1831,-0.1831,1,476,0,1
68964092,58,-0.0332,-0.1660,1.0103,0.0610,0.1831,-0.1221,1,465,0,1
68966715,59,-0.0332,-0.1660,1.0103,0.0610,0.1831,-0.1221,1,480,0,1
68972730,60,-0.0327,-0.1660,1.0098,0.1221,0.3052,-0.1831,1,469,0,1
68978712,61,-0.0332,-0.1670,1.0112,-0.1831,0.2441,-0.2441,1,554,0,1
68983471,62,-0.0332,-0.1670,1.0112,-0.1831,0.2441,-0.2441,1,497,0,1
68989727,63,-0.0332,-0.1675,1.0107,-0.1221,0.3662,-0.3662,1,471,0,1
68995709,64,-0.0332,-0.1665,1.0112,-0.1221,0.4883,-0.4272,1,483,0,1
68997054,65,-0.0332,-0.1665,1.0112,-0.1221,0.4883,-0.4272,1,476,0,1
69003400,66,-0.0342,-0.1660,1.0107,-0.3662,0.4272,-0.4272,1,526,0,1
69006712,67,-0.0342,-0.1660,1.0107,-0.3662,0.4272,-0.4272,1,483,0,1
69012708,68,-0.0337,-0.1675,1.0122,-0.1831,0.5493,-0.3052,1,483,0,1
69016718,69,-0.0337,-0.1699,1.0132,0.3052,0.4883,-0.2441,1,478,0,1
69021714,70,-0.0332,-0.1685,1.0122,0.8545,0.1831,0.0000,1,481,0,1
69027722,71,-0.0327,-0.1646,1.0093,0.5493,0.3662,-0.3662,1,477,0,1
69033091,72,-0.0342,-0.1636,1.0122,-0.2441,0.2441,-0.1221,1,465,0,1
69038708,73,-0.0337,-0.1655,1.0122,-0.3662,0.4883,-0.1831,1,511,0,1
69041716,74,-0.0337,-0.1655,1.0122,-0.3662,0.4883,-0.1831,1,479,0,1
69047710,75,-0.0347,-0.1685,1.0098,-0.3052,0.3662,-0.1221,1,484,0,1
69052072,76,-0.0347,-0.1685,1.0098,-0.3052,0.3662,-0.1221,1,465,0,1
69056712,77,-0.0356,-0.1699,1.0078,-0.5493,0.3662,-0.1831,1,483,0,1
69061717,78,-0.0356,-0.1699,1.0078,-0.4272,0.2441,-0.2441,1,480,0,1
69066717,79,-0.0347,-0.1680,1.0088,-0.3052,0.2441,-0.1831,1,477,0,1
69073697,80,-0.0352,-0.1680,1.0107,-0.0610,0.1221,-0.1221,1,483,0,1
69080716,81,-0.0347,-0.1694,1.0098,-0.0610,0.0610,-0.1221,1,479,0,1
69082045,82,-0.0347,-0.1694,1.0098,-0.0610,0.0610,-0.1221,1,484,0,1
69088389,83,-0.0352,-0.1685,1.0068,0.1831,0.0000,-0.1831,1,527,0,1
69091712,84,-0.0352,-0.1685,1.0068,0.1831,0.0000,-0.1831,1,483,0,1
69097730,85,-0.0342,-0.1670,1.0103,-0.0610,-0.0610,-0.3662,1,469,0,1
69101714,86,-0.0327,-0.1660,1.0112,0.1221,-0.0610,-0.1831,1,482,0,1
69107708,87,-0.0327,-0.1665,1.0127,-0.3662,0.0610,-0.1831,1,483,0,1
69114713,88,-0.0332,-0.1675,1.0132,-0.0610,0.0610,-0.1831,1,482,0,1
69121700,89,-0.0332,-0.1680,1.0107,0.1221,0.1221,-0.3052,1,483,0,1
69124035,90,-0.0332,-0.1680,1.0107,0.1221,0.1221,-0.3052,1,484,0,1
69129405,91,-0.0322,-0.1680,1.0117,0.2441,0.2441,-0.1831,1,479,0,1
69133704,92,-0.0327,-0.1655,1.0122,0.3052,0.3052,-0.2441,1,483,0,1
69138072,93,-0.0332,-0.1650,1.0112,0.1221,0.0610,-0.1221,1,465,0,1
69141714,94,-0.0342,-0.1665,1.0107,0.1221,0.0610,-0.1221,1,481,0,1
69146717,95,-0.0347,-0.1670,1.0107,0.2441,0.0610,-0.1831,1,478,0,1
69152080,96,-0.0347,-0.1675,1.0112,0.3052,0.0000,-0.2441,1,464,0,1
69157389,97,-0.0347,-0.1680,1.0112,0.3662,-0.0610,-0.2441,1,488,0,1
69161719,98,-0.0347,-0.1680,1.0103,0.4272,0.0610,-0.2441,1,478,0,1
69168699,99,-0.0347,-0.1660,1.0112,0.2441,0.0000,-0.2441,1,483,0,1
69171722,100,-0.0342,-0.1646,1.0122,0.2441,-0.0610,-0.3052,1,476,0,1
69176714,101,-0.0337,-0.1646,1.0122,0.1831,0.0610,-0.1831,1,480,0,1
69181715,102,-0.0332,-0.1655,1.0107,0.1221,0.2441,-0.1221,1,479,0,1
69187732,103,-0.0342,-0.1675,1.0093,0.0000,0.3662,-0.3052,1,466,0,1
69192034,104,-0.0356,-0.1670,1.0093,0.1221,0.2441,-0.2441,1,484,0,1
69196712,105,-0.0352,-0.1655,1.0117,0.1221,0.1221,-0.1831,1,483,0,1
69203701,106,-0.0347,-0.1646,1.0142,0.0610,0.2441,-0.1221,1,483,0,1
69210689,107,-0.0332,-0.1665,1.0122,-0.1831,0.1831,-0.1831,1,483,0,1
69213059,108,-0.0332,-0.1665,1.0122,-0.1831,0.1831,-0.1831,1,469,0,1
69219695,109,-0.0322,-0.1665,1.0103,-0.2441,0.1221,-0.1831,1,484,0,1
69223375,110,-0.0332,-0.1650,1.0112,-0.2441,0.3662,-0.1831,1,477,0,1
69228719,111,-0.0337,-0.1650,1.0132,-0.3052,0.2441,-0.1831,1,478,0,1
69235716,112,-0.0342,-0.1675,1.0122,-0.3052,0.3662,0.0000,1,477,0,1
69241044,113,-0.0347,-0.1689,1.0112,-0.2441,0.1831,-0.1831,1,484,0,1
69246445,114,-0.0342,-0.1699,1.0098,-0.1221,0.0000,-0.1221,1,487,0,1
69248646,115,-0.0342,-0.1699,1.0098,-0.1221,0.0000,-0.1221,1,512,0,1
69254719,116,-0.0327,-0.1699,1.0107,-0.1831,0.2441,-0.2441,1,477,0,1
69260731,117,-0.0337,-0.1699,1.0117,-0.2441,0.1221,-0.1221,1,466,0,1
69266710,118,-0.0352,-0.1689,1.0107,-0.1831,0.0610,-0.0610,1,484,0,1
69268059,119,-0.0352,-0.1689,1.0107,-0.1831,0.0610,-0.0610,1,469,0,1
69278738,120,-0.0361,-0.1709,1.0093,0.1221,-0.0610,-0.2441,1,522,0,2
69284181,121,-0.0347,-0.1685,1.0103,0.1831,0.1831,-0.0610,1,466,0,2
69288468,122,-0.0347,-0.1685,1.0103,0.1831,0.1831,-0.0610,1,477,0,2
69291714,123,-0.0332,-0.1680,1.0107,0.1221,0.0000,-0.1831,1,479,0,2
69296721,124,-0.0337,-0.1689,1.0093,0.2441,-0.1221,-0.1831,1,476,0,2
69303708,125,-0.0366,-0.1694,1.0068,0.4272,-0.1221,-0.0610,1,483,0,2
69309098,126,-0.0352,-0.1704,1.0083,0.4883,-0.0610,-0.1831,1,483,0,2
69313404,127,-0.0352,-0.1704,1.0083,0.4883,-0.0610,-0.1831,1,477,0,2
69318713,128,-0.0332,-0.1675,1.0107,0.4272,-0.0610,-0.1221,1,480,0,2
69325711,129,-0.0332,-0.1680,1.0098,0.4883,0.0000,-0.1221,1,482,0,2
69328018,130,-0.0332,-0.1680,1.0098,0.4883,0.0000,-0.1221,1,484,0,2
69331716,131,-0.0332,-0.1680,1.0093,0.7324,-0.0610,-0.1221,1,478,0,2
69336721,132,-0.0327,-0.1675,1.0098,0.6714,-0.1221,-0.1831,1,476,0,2
69341719,133,-0.0322,-0.1665,1.0112,0.6104,-0.1221,-0.1221,1,477,0,2
69347735,134,-0.0322,-0.1665,1.0103,0.6104,-0.1831,-0.2441,1,466,0,2
69351716,135,-0.0327,-0.1675,1.0098,0.6714,-0.1221,-0.3052,1,477,0,2
69356713,136,-0.0322,-0.1675,1.0112,0.7324,-0.1221,-0.1221,1,481,0,2
69363703,137,-0.0327,-0.1670,1.0142,0.6714,-0.0610,-0.1831,1,483,0,2
69369739,138,-0.0342,-0.1660,1.0137,0.6104,0.0610,-0.1221,1,482,0,2
69372088,139,-0.0342,-0.1660,1.0137,0.6104,0.0610,-0.1221,1,465,0,2
69377734,140,-0.0327,-0.1665,1.0127,0.6104,0.0610,-0.1831,1,466,0,2
69381715,141,-0.0327,-0.1665,1.0127,0.6104,0.0610,-0.1831,1,480,0,2
69388697,142,-0.0337,-0.1655,1.0117,0.3052,0.1221,-0.1221,1,484,0,2
69394798,143,-0.0352,-0.1670,1.0112,0.3662,0.1221,-0.1831,1,468,0,2
69400714,144,-0.0352,-0.1689,1.0103,0.4883,0.0000,-0.1221,1,479,0,2
69406726,145,-0.0337,-0.1680,1.0107,0.4883,0.0610,-0.1221,1,471,0,3
69411714,146,-0.0327,-0.1665,1.0122,0.4272,0.0610,-0.1221,1,479,0,3
69417712,147,-0.0332,-0.1670,1.0122,0.4272,0.1831,-0.1221,1,482,0,3
69424709,148,-0.0342,-0.1685,1.0112,0.5493,0.1831,-0.0610,1,483,0,3
69430100,149,-0.0337,-0.1685,1.0112,0.5493,0.1221,-0.0610,1,483,0,3
69435717,150,-0.0337,-0.1670,1.0117,0.4883,0.1221,-0.0610,1,477,0,3
69440077,151,-0.0337,-0.1650,1.0103,0.5493,0.1831,-0.1221,1,465,0,3
69445725,152,-0.0332,-0.1650,1.0093,0.5493,0.1831,-0.2441,1,471,0,3
69447068,153,-0.0332,-0.1665,1.0103,0.6104,0.1221,-0.1831,1,465,0,3
69453414,154,-0.0332,-0.1670,1.0112,0.8545,0.0610,-0.2441,1,533,0,3
69456720,155,-0.0337,-0.1675,1.0122,1.2817,0.0610,-0.0610,1,476,0,3
69461716,156,-0.0317,-0.1665,1.0107,1.7700,-0.1221,0.0000,1,482,0,3
69466713,157,-0.0312,-0.1641,1.0098,1.0376,0.1831,-0.3662,1,480,0,3
69473688,158,-0.0327,-0.1641,1.0107,0.6104,0.0000,-0.1221,1,484,0,3
69476719,159,-0.0332,-0.1650,1.0112,0.9766,0.1221,-0.1831,1,477,0,3
69482714,160,-0.0332,-0.1646,1.0117,0.8545,0.1831,-0.3052,1,478,0,3
69489712,161,-0.0332,-0.1641,1.0122,0.8545,0.1221,-0.1831,1,481,0,3
69495712,162,-0.0322,-0.1646,1.0117,0.9155,0.3662,-0.1831,1,480,0,3
69497057,163,-0.0322,-0.1646,1.0117,0.9155,0.3662,-0.1831,1,469,0,3
69501712,164,-0.0337,-0.1646,1.0112,0.9155,0.3052,-0.3052,1,482,0,3
69512711,165,-0.0356,-0.1641,1.0103,1.0986,0.1831,-0.3662,1,482,0,4
69519733,166,-0.0352,-0.1641,1.0107,1.2207,0.3052,-0.3052,1,466,0,4
69522231,167,-0.0337,-0.1650,1.0093,1.2207,0.3662,-0.3662,1,485,0,4
69526718,168,-0.0332,-0.1655,1.0093,1.3428,0.2441,-0.3662,1,477,0,4
69531720,169,-0.0332,-0.1655,1.0098,1.3428,0.1221,-0.3052,1,476,0,4
69537002,170,-0.0332,-0.1660,1.0098,1.4038,0.1221,-0.4272,1,467,0,4
69541719,171,-0.0327,-0.1655,1.0112,1.4648,0.0610,-0.3662,1,476,0,4
69546715,172,-0.0312,-0.1626,1.0132,1.3428,0.3052,-0.4272,1,478,0,4
69552720,173,-0.0308,-0.1602,1.0151,1.2817,0.2441,-0.4272,1,475,0,4
69556720,174,-0.0322,-0.1597,1.0151,1.0376,0.0610,-0.3052,1,476,0,4
69561713,175,-0.0337,-0.1606,1.0137,0.9155,0.1221,-0.3052,1,480,0,4
69567733,176,-0.0342,-0.1616,1.0127,1.0376,0.1221,-0.3052,1,467,0,4
69573716,177,-0.0332,-0.1621,1.0127,0.8545,0.1831,-0.2441,1,477,0,4
69580714,178,-0.0322,-0.1626,1.0142,0.8545,0.1831,-0.3052,1,467,0,4
69583235,179,-0.0322,-0.1626,1.0142,0.8545,0.1831,-0.3052,1,496,0,4
69586717,180,-0.0327,-0.1611,1.0132,0.7935,0.3052,-0.2441,1,478,0,4
69593712,181,-0.0332,-0.1592,1.0112,0.7935,0.3052,-0.1831,1,480,0,4
69599716,182,-0.0337,-0.1621,1.0107,0.7935,0.1831,-0.0610,1,478,0,4
69602063,183,-0.0337,-0.1621,1.0107,0.7935,0.1831,-0.0610,1,465,0,4
69607711,184,-0.0332,-0.1646,1.0107,0.7324,0.1831,-0.1221,1,481,0,4
69614709,185,-0.0327,-0.1655,1.0107,1.0986,0.4272,-0.3052,1,483,0,4
69620712,186,-0.0337,-0.1646,1.0093,0.9766,0.4272,-0.3662,1,479,0,4
69624067,187,-0.0347,-0.1636,1.0083,1.2817,0.3662,-0.3662,1,465,0,4
69628432,188,-0.0347,-0.1636,1.0083,1.2817,0.3662,-0.3662,1,495,0,4
69631718,189,-0.0352,-0.1626,1.0078,1.1597,0.2441,-0.4272,1,478,0,4
69637097,190,-0.0342,-0.1626,1.0088,1.1597,0.3662,-0.3662,1,484,0,4
69642716,191,-0.0327,-0.1616,1.0103,1.2207,0.3662,-0.3052,1,478,0,4
69646718,192,-0.0327,-0.1621,1.0112,1.2207,0.3052,-0.4883,1,478,0,4
69651718,193,-0.0342,-0.1626,1.0112,1.1597,0.3662,-0.4883,1,476,0,4
69656720,194,-0.0342,-0.1621,1.0107,1.4038,0.4272,-0.3052,1,474,0,4
69661713,195,-0.0337,-0.1606,1.0112,1.5259,0.3662,-0.1831,1,480,0,4
69667097,196,-0.0322,-0.1602,1.0117,1.4038,0.3662,-0.3662,1,484,0,4
69671716,197,-0.0327,-0.1602,1.0122,1.1597,0.6714,-0.3052,1,478,0,4
69676720,198,-0.0347,-0.1602,1.0122,1.0986,0.4883,-0.1831,1,476,0,4
69683710,199,-0.0327,-0.1602,1.0112,1.2817,0.4272,-0.2441,1,481,0,4
69689711,200,-0.0317,-0.1592,1.0117,0.9766,0.5493,-0.3662,1,480,0,4
69696711,201,-0.0322,-0.1597,1.0127,0.8545,0.6714,-0.4272,1,481,0,4
69700429,202,-0.0332,-0.1597,1.0122,0.9766,0.5493,-0.3052,1,483,0,4
69704968,203,-0.0327,-0.1602,1.0132,0.9155,0.6104,-0.2441,1,472,0,4
69707232,204,-0.0327,-0.1602,1.0132,0.9155,0.6104,-0.2441,1,490,0,4
69711716,205,-0.0332,-0.1602,1.0151,0.9155,0.6104,-0.3662,1,477,0,4
69718714,206,-0.0342,-0.1597,1.0161,0.5493,0.7324,-0.1831,1,477,0,4
69724715,207,-0.0337,-0.1592,1.0156,0.6714,0.6714,-0.3662,1,477,0,4
69731712,208,-0.0332,-0.1582,1.0151,0.6104,0.6104,-0.3662,1,479,0,5
69737718,209,-0.0347,-0.1567,1.0132,0.3052,0.5493,-0.1221,1,476,0,5
69741712,210,-0.0347,-0.1567,1.0132,0.3052,0.5493,-0.1221,1,480,0,5
69747725,211,-0.0337,-0.1562,1.0137,0.1221,0.6104,-0.0610,1,469,0,5
69753739,212,-0.0337,-0.1572,1.0137,-0.0610,0.4883,-0.0610,1,481,0,5
69756712,213,-0.0342,-0.1587,1.0127,-0.0610,0.4272,-0.0610,1,480,0,5
69762709,214,-0.0342,-0.1602,1.0112,-0.1831,0.6104,-0.1221,1,482,0,5
69766718,215,-0.0342,-0.1602,1.0107,-0.3662,0.6104,-0.0610,1,476,0,5
69771718,216,-0.0337,-0.1606,1.0107,-0.4272,0.6104,-0.1831,1,476,0,5
69778710,217,-0.0352,-0.1616,1.0107,-0.4272,0.6714,-0.1221,1,481,0,5
69784712,218,-0.0361,-0.1626,1.0107,-0.6104,0.4883,-0.1221,1,479,0,5
69790082,219,-0.0352,-0.1631,1.0103,-0.6104,0.4272,-0.1221,1,465,0,5
69795728,220,-0.0342,-0.1631,1.0107,-0.5493,0.5493,-0.0610,1,466,0,5
69801099,221,-0.0347,-0.1616,1.0107,-0.3052,0.4883,-0.1831,1,483,0,5
69804485,222,-0.0347,-0.1616,1.0107,-0.3052,0.4883,-0.1831,1,477,0,5
69809738,223,-0.0347,-0.1616,1.0107,-0.4272,0.3662,-0.1831,1,482,0,5
69815717,224,-0.0352,-0.1631,1.0093,-0.1221,0.4272,-0.1831,1,476,0,5
69821729,225,-0.0342,-0.1626,1.0093,0.0000,0.4272,-0.1831,1,476,0,6
69826715,226,-0.0332,-0.1626,1.0098,0.0000,0.4272,-0.2441,1,478,0,6
69831715,227,-0.0332,-0.1621,1.0103,0.0610,0.3052,-0.3052,1,477,0,6
69836718,228,-0.0347,-0.1626,1.0107,0.1831,0.2441,-0.3052,1,476,0,6
69843710,229,-0.0356,-0.1636,1.0112,0.1831,0.3052,-0.1831,1,480,0,6
69849714,230,-0.0361,-0.1636,1.0103,0.2441,0.2441,-0.1221,1,477,0,6
69856711,231,-0.0356,-0.1611,1.0103,0.1831,0.0610,-0.1831,1,479,0,6
69858051,232,-0.0356,-0.1611,1.0103,0.1831,0.0610,-0.1831,1,472,0,6
69861713,233,-0.0342,-0.1611,1.0127,0.1831,0.1221,-0.2441,1,478,0,6
69866720,234,-0.0332,-0.1606,1.0151,0.1221,0.1831,-0.1221,1,474,0,6
69873709,235,-0.0327,-0.1602,1.0146,0.1221,0.2441,-0.1221,1,481,0,6
69880700,236,-0.0347,-0.1587,1.0137,0.0000,0.0610,-0.1221,1,483,0,6
69883007,237,-0.0347,-0.1587,1.0137,0.0000,0.0610,-0.1221,1,483,0,6
69888717,238,-0.0347,-0.1606,1.0137,-0.0610,0.1831,-0.1831,1,476,0,6
69892072,239,-0.0342,-0.1606,1.0127,-0.1831,0.2441,-0.1221,1,465,0,6
69897717,240,-0.0337,-0.1587,1.0112,-0.0610,0.3052,-0.0610,1,477,0,6
69901720,241,-0.0347,-0.1582,1.0103,-0.1831,0.2441,-0.0610,1,474,0,6
69908715,242,-0.0356,-0.1606,1.0103,-0.3662,0.3052,-0.0610,1,477,0,6
69914783,243,-0.0352,-0.1621,1.0103,-0.1221,0.2441,-0.1221,1,480,0,6
69921715,244,-0.0356,-0.1611,1.0112,-0.1831,0.3662,-0.1831,1,478,0,7
69927716,245,-0.0356,-0.1602,1.0112,-0.1221,0.4272,-0.1221,1,478,0,7
69931712,246,-0.0352,-0.1606,1.0112,-0.0610,0.3662,-0.0610,1,477,0,7
69936719,247,-0.0342,-0.1626,1.0117,-0.1221,0.3052,-0.1221,1,474,0,7
69942730,248,-0.0347,-0.1626,1.0122,0.0000,0.2441,-0.1831,1,476,0,7
69947247,249,-0.0361,-0.1606,1.0112,0.0000,0.2441,-0.1831,1,493,0,7
69952709,250,-0.0366,-0.1606,1.0107,0.0610,0.1221,-0.1221,1,480,0,7
69957071,251,-0.0361,-0.1616,1.0107,0.1221,0.1221,-0.2441,1,465,0,7
69962721,252,-0.0352,-0.1616,1.0117,0.1831,0.0000,-0.2441,1,473,0,7
69968733,253,-0.0347,-0.1611,1.0093,0.0610,0.0000,-0.3052,1,467,0,7
69975700,254,-0.0337,-0.1626,1.0103,0.0610,0.0000,-0.2441,1,483,0,7
69980021,255,-0.0332,-0.1611,1.0127,0.1221,0.1221,-0.2441,1,483,0,7
69985797,256,-0.0337,-0.1587,1.0127,0.0610,0.1221,-0.2441,1,466,0,7
69990062,257,-0.0347,-0.1587,1.0127,-0.0610,0.1221,-0.2441,1,465,0,7
69995708,258,-0.0342,-0.1597,1.0127,-0.0610,0.1221,-0.1221,1,482,0,7
69998057,259,-0.0327,-0.1592,1.0132,-0.1221,0.1831,-0.2441,1,485,0,7
70002424,260,-0.0327,-0.1592,1.0132,-0.1221,0.1831,-0.2441,1,493,0,7
70006716,261,-0.0332,-0.1587,1.0142,-0.2441,0.0610,-0.1831,1,478,0,7
70011718,262,-0.0332,-0.1606,1.0142,-0.2441,0.2441,-0.1221,1,474,0,7
70017714,263,-0.0337,-0.1621,1.0132,-0.0610,0.3662,-0.1831,1,478,0,7
70021717,264,-0.0337,-0.1621,1.0132,-0.0610,0.3662,-0.1831,1,476,0,7
70026718,265,-0.0347,-0.1636,1.0107,0.0000,0.2441,-0.2441,1,475,0,7
70031718,266,-0.0347,-0.1655,1.0103,0.0000,0.1831,-0.2441,1,474,0,7
70036716,267,-0.0347,-0.1650,1.0107,0.1221,0.2441,-0.1831,1,477,0,7
70042095,268,-0.0342,-0.1631,1.0117,0.0610,0.2441,-0.2441,1,484,0,7
70047710,269,-0.0356,-0.1636,1.0078,0.2441,0.1221,-0.2441,1,479,0,7
70054707,270,-0.0356,-0.1621,1.0098,0.2441,0.0000,-0.2441,1,482,0,7
70061696,271,-0.0347,-0.1611,1.0127,0.2441,0.1221,-0.2441,1,472,0,7
70065225,272,-0.0342,-0.1611,1.0127,0.2441,0.0000,-0.2441,1,496,0,7
70070720,273,-0.0337,-0.1611,1.0122,0.1831,0.1221,-0.2441,1,473,0,7
70074075,274,-0.0337,-0.1606,1.0112,0.1831,0.2441,-0.3052,1,465,0,7
70079448,275,-0.0347,-0.1616,1.0107,0.1221,0.0000,-0.2441,1,487,0,7
70084729,276,-0.0352,-0.1631,1.0107,0.0000,0.0000,-0.1831,1,467,0,7
70088938,277,-0.0352,-0.1626,1.0112,0.0000,0.1221,-0.2441,1,479,0,7
70094282,278,-0.0356,-0.1606,1.0112,0.1221,0.0000,-0.3052,1,482,0,7
70099711,279,-0.0352,-0.1606,1.0112,-0.1221,-0.1831,-0.3052,1,478,0,7
70105083,280,-0.0337,-0.1616,1.0122,0.0000,-0.2441,-0.3052,1,465,0,7
70110796,281,-0.0332,-0.1611,1.0132,0.1221,-0.1221,-0.3052,1,466,0,7
70116176,282,-0.0371,-0.1611,1.0117,0.0610,-0.2441,-0.2441,1,495,0,7
70120467,283,-0.0371,-0.1611,1.0117,0.0610,-0.2441,-0.2441,1,496,0,7
70121841,284,-0.0371,-0.1616,1.0122,0.0610,-0.3662,-0.2441,1,466,0,7
70126716,285,-0.0356,-0.1606,1.0122,0.0610,-0.3052,-0.2441,1,476,0,7
70131720,286,-0.0342,-0.1592,1.0127,0.1221,-0.4883,-0.3662,1,471,0,7
70137706,287,-0.0327,-0.1587,1.0142,0.1221,-0.4272,-0.3052,1,483,0,7
70141718,288,-0.0322,-0.1597,1.0151,0.0000,-0.1831,-0.3052,1,474,0,7
70147718,289,-0.0327,-0.1616,1.0151,-0.1221,-0.1831,-0.3662,1,474,0,7
70154682,290,-0.0327,-0.1626,1.0142,-0.0610,-0.1831,-0.3052,1,483,0,7
70161701,291,-0.0322,-0.1611,1.0127,-0.0610,-0.1221,-0.2441,1,483,0,7
70163044,292,-0.0322,-0.1611,1.0127,-0.0610,-0.1221,-0.2441,1,478,0,7
70170418,293,-0.0332,-0.1626,1.0142,-0.1221,0.1831,-0.1831,1,495,0,7
70174813,294,-0.0332,-0.1626,1.0142,-0.1221,0.1831,-0.1831,1,471,0,7
70180707,295,-0.0352,-0.1636,1.0098,-0.1221,-0.1221,-0.3052,1,484,0,7
70186718,296,-0.0342,-0.1636,1.0083,0.0610,-0.0610,-0.2441,1,473,0,8
70191712,297,-0.0347,-0.1626,1.0088,0.1221,-0.0610,-0.4272,1,478,0,8
70197703,298,-0.0356,-0.1611,1.0107,0.1831,-0.1221,-0.3662,1,483,0,8
70203715,299,-0.0352,-0.1611,1.0117,0.1831,-0.1831,-0.1831,1,477,0,8
70210681,300,-0.0337,-0.1621,1.0103,0.1221,-0.0610,-0.4272,1,483,0,8
70212018,301,-0.0337,-0.1621,1.0103,0.1221,-0.0610,-0.4272,1,483,0,8
70221415,302,-0.0347,-0.1602,1.0112,0.2441,-0.1831,-0.3052,1,495,0,8
70225715,303,-0.0347,-0.1597,1.0112,0.3662,-0.1221,-0.2441,1,476,0,8
70229074,304,-0.0347,-0.1597,1.0112,0.3662,-0.1221,-0.2441,1,465,0,8
70232431,305,-0.0342,-0.1611,1.0112,0.2441,-0.1221,-0.1221,1,487,0,8
70237711,306,-0.0342,-0.1616,1.0112,0.1831,-0.1831,-0.1831,1,478,0,8
70241720,307,-0.0342,-0.1626,1.0103,0.2441,-0.0610,-0.1831,1,471,0,8
70246719,308,-0.0337,-0.1641,1.0093,0.4272,-0.2441,-0.1831,1,473,0,8
70251717,309,-0.0337,-0.1636,1.0093,0.5493,-0.1221,-0.1221,1,474,0,8
70256996,310,-0.0337,-0.1611,1.0107,0.3662,-0.0610,-0.1831,1,467,0,8
70262707,311,-0.0337,-0.1597,1.0122,0.2441,-0.1831,-0.2441,1,481,0,8
70269702,312,-0.0332,-0.1611,1.0122,0.6104,-0.0610,-0.1831,1,483,0,8
70275095,313,-0.0332,-0.1602,1.0122,0.4883,-0.1221,-0.1831,1,483,0,8
70280496,314,-0.0337,-0.1597,1.0132,0.3662,-0.1221,-0.1831,1,468,0,8
70283853,315,-0.0342,-0.1606,1.0142,0.3662,0.0000,-0.3052,1,475,0,8
70286719,316,-0.0342,-0.1606,1.0142,0.3662,0.0000,-0.3052,1,472,0,8
70293690,317,-0.0342,-0.1602,1.0156,0.4272,-0.1221,-0.2441,1,483,0,8
70296715,318,-0.0342,-0.1602,1.0156,0.4272,-0.1221,-0.2441,1,476,0,8
70301716,319,-0.0327,-0.1602,1.0151,0.2441,0.0000,-0.2441,1,474,0,8
70306713,320,-0.0317,-0.1597,1.0137,0.3052,0.1831,-0.1831,1,477,0,8
70312725,321,-0.0317,-0.1602,1.0107,0.1831,0.0610,-0.1221,1,466,0,8
70318093,322,-0.0352,-0.1616,1.0098,0.2441,0.0610,-0.1221,1,483,0,8
70323711,323,-0.0352,-0.1621,1.0112,0.3052,-0.2441,-0.2441,1,477,0,8
70330708,324,-0.0337,-0.1611,1.0117,0.3052,-0.0610,-0.1831,1,480,0,8
70336709,325,-0.0327,-0.1587,1.0122,0.3662,-0.1221,-0.1831,1,478,0,8
70339060,326,-0.0327,-0.1572,1.0112,0.2441,-0.1831,-0.2441,1,465,0,8
70341714,327,-0.0327,-0.1572,1.0112,0.2441,-0.1831,-0.2441,1,476,0,8
70348683,328,-0.0342,-0.1602,1.0112,0.3662,-0.2441,-0.0610,1,483,0,8
70354715,329,-0.0342,-0.1602,1.0127,0.4272,-0.1831,-0.0610,1,476,0,8
70357063,330,-0.0342,-0.1602,1.0127,0.4272,-0.1831,-0.0610,1,465,0,8
70362343,331,-0.0317,-0.1592,1.0146,0.1831,-0.3052,0.0000,1,489,0,8
70366716,332,-0.0317,-0.1592,1.0146,0.1831,-0.3052,0.0000,1,475,0,8
70372720,333,-0.0327,-0.1587,1.0117,0.0610,0.0000,-0.1831,1,470,0,8
70378770,334,-0.0322,-0.1611,1.0103,0.0610,-0.0610,0.0000,1,468,0,8
70384713,335,-0.0317,-0.1611,1.0122,0.1221,0.0000,-0.1221,1,478,0,8
70390727,336,-0.0322,-0.1597,1.0142,-0.1221,0.0000,-0.1221,1,467,0,8
70394019,337,-0.0332,-0.1587,1.0132,-0.1221,0.0610,-0.1221,1,484,0,8
70400684,338,-0.0337,-0.1597,1.0103,-0.0610,0.0000,-0.0610,1,483,0,8
70402962,339,-0.0337,-0.1611,1.0098,-0.0610,0.1221,-0.1221,1,475,0,8
70406714,340,-0.0332,-0.1626,1.0107,0.0000,0.0000,-0.0610,1,476,0,8
70411717,341,-0.0327,-0.1641,1.0117,0.1221,0.0610,-0.1831,1,473,0,8
70418691,342,-0.0332,-0.1636,1.0122,0.1221,0.1221,-0.1221,1,539,0,8
70424446,343,-0.0342,-0.1611,1.0127,0.0610,-0.0610,-0.0610,1,495,0,8
70426717,344,-0.0332,-0.1592,1.0137,0.0610,0.0610,-0.1831,1,475,0,8
70431720,345,-0.0322,-0.1587,1.0146,0.0000,0.3662,-0.1831,1,471,0,8
70437722,346,-0.0322,-0.1582,1.0146,0.0000,0.3052,-0.1831,1,468,0,8
70443771,347,-0.0322,-0.1582,1.0132,-0.1221,0.2441,-0.1221,1,467,0,8
70446713,348,-0.0332,-0.1602,1.0112,-0.0610,0.2441,-0.0610,1,478,0,8
70452706,349,-0.0337,-0.1616,1.0107,-0.1831,0.3662,-0.1831,1,481,0,8
70459706,350,-0.0337,-0.1606,1.0112,0.0000,0.2441,-0.1221,1,481,0,8
70464027,351,-0.0342,-0.1592,1.0122,0.0000,0.2441,-0.1221,1,484,0,8
70466716,352,-0.0337,-0.1602,1.0127,0.0000,0.1221,-0.1221,1,475,0,8
70471720,353,-0.0337,-0.1616,1.0122,0.0000,0.1831,-0.0610,1,471,0,8
70478686,354,-0.0342,-0.1621,1.0117,0.0000,0.2441,-0.1221,1,504,0,8
70483069,355,-0.0337,-0.1616,1.0112,0.0000,0.1831,-0.1221,1,465,0,8
70488716,356,-0.0317,-0.1611,1.0122,0.0610,0.1221,-0.1831,1,474,0,8
70492071,357,-0.0317,-0.1602,1.0122,0.1221,0.2441,-0.1221,1,465,0,8
70497443,358,-0.0327,-0.1597,1.0122,0.0000,0.1831,-0.0610,1,489,0,8
70501720,359,-0.0332,-0.1597,1.0127,0.0000,0.1831,-0.1221,1,469,0,8
70507729,360,-0.0332,-0.1606,1.0127,-0.0610,0.2441,-0.0610,1,467,0,8
70512092,361,-0.0337,-0.1606,1.0132,-0.0610,0.0610,0.0000,1,484,0,8
70516718,362,-0.0337,-0.1602,1.0146,-0.1221,0.0000,0.0000,1,473,0,8
70521715,363,-0.0337,-0.1592,1.0151,-0.1221,0.1831,-0.1221,1,475,0,8
70526715,364,-0.0342,-0.1592,1.0146,-0.3052,0.1831,-0.1831,1,474,0,8
70531716,365,-0.0337,-0.1606,1.0127,-0.1831,0.2441,-0.1831,1,474,0,8
70536715,366,-0.0322,-0.1616,1.0103,-0.1221,0.3052,-0.1221,1,474,0,8
70542704,367,-0.0308,-0.1611,1.0103,-0.0610,0.3052,-0.1221,1,470,0,8
70548715,368,-0.0312,-0.1587,1.0112,-0.1221,0.3052,-0.1221,1,475,0,8
70554727,369,-0.0337,-0.1606,1.0103,-0.0610,0.2441,0.0000,1,467,0,8
70557014,370,-0.0337,-0.1606,1.0103,-0.0610,0.2441,0.0000,1,484,0,8
70561713,371,-0.0342,-0.1616,1.0112,-0.0610,0.3052,-0.1831,1,476,0,8
70566716,372,-0.0347,-0.1616,1.0112,0.0610,0.1831,-0.1831,1,474,0,8
70571712,373,-0.0342,-0.1611,1.0103,0.0000,0.2441,-0.1831,1,477,0,8
70576714,374,-0.0332,-0.1611,1.0107,-0.1221,0.2441,-0.1221,1,476,0,8
70582711,375,-0.0332,-0.1606,1.0117,-0.1221,0.0610,-0.0610,1,477,0,8
70589706,376,-0.0337,-0.1597,1.0122,-0.1221,0.3052,0.0000,1,480,0,8
70594030,377,-0.0327,-0.1602,1.0122,-0.2441,0.2441,-0.0610,1,484,0,8
70599709,378,-0.0327,-0.1602,1.0127,-0.1831,0.0610,-0.0610,1,477,0,8
70604071,379,-0.0327,-0.1597,1.0132,-0.1221,0.0610,0.0610,1,465,0,8
70609720,380,-0.0322,-0.1597,1.0127,-0.1831,0.1221,0.0000,1,469,0,8
70615732,381,-0.0327,-0.1606,1.0117,-0.2441,0.2441,0.0000,1,482,0,8
70617042,382,-0.0327,-0.1606,1.0117,-0.2441,0.2441,0.0000,1,478,0,8
70623366,383,-0.0322,-0.1616,1.0132,-0.0610,0.3052,-0.1221,1,5490,0,8
70633706,384,-0.0332,-0.1597,1.0142,-0.1221,0.3662,-0.0610,1,480,0,9
70636717,385,-0.0332,-0.1597,1.0142,-0.1221,0.3662,-0.0610,1,473,0,9
70641716,386,-0.0332,-0.1592,1.0142,-0.1831,0.4883,-0.1221,1,473,0,9
70646714,387,-0.0342,-0.1597,1.0132,-0.1831,0.3662,-0.1831,1,474,0,9
70653702,388,-0.0332,-0.1587,1.0132,-0.1831,0.4272,-0.1831,1,483,0,9
70659705,389,-0.0337,-0.1572,1.0132,-0.1831,0.3662,-0.1831,1,483,0,9
70662214,390,-0.0337,-0.1572,1.0132,-0.1831,0.3662,-0.1831,1,495,0,9
70667700,391,-0.0327,-0.1582,1.0122,-0.1221,0.5493,-0.1221,1,484,0,9
70673712,392,-0.0308,-0.1592,1.0127,-0.3052,0.3052,-0.1221,1,477,0,9
70679725,393,-0.0312,-0.1616,1.0127,-0.2441,0.2441,-0.1831,1,467,0,9
70683049,394,-0.0312,-0.1621,1.0122,-0.2441,0.4272,-0.1221,1,469,0,9
70686720,395,-0.0312,-0.1621,1.0122,-0.2441,0.4272,-0.1221,1,468,0,9
70692725,396,-0.0322,-0.1606,1.0122,-0.3662,0.4272,-0.0610,1,466,0,9
70696718,397,-0.0322,-0.1606,1.0122,-0.3662,0.4272,-0.0610,1,471,0,9
70701715,398,-0.0337,-0.1621,1.0117,-0.2441,0.4883,-0.1221,1,473,0,9
70707709,399,-0.0337,-0.1606,1.0112,-0.2441,0.4883,-0.1831,1,478,0,9
70711714,400,-0.0337,-0.1606,1.0112,-0.2441,0.4883,-0.1831,1,476,0,9
70717718,401,-0.0332,-0.1597,1.0122,-0.1831,0.5493,-0.0610,1,470,0,9
70721716,402,-0.0342,-0.1602,1.0112,-0.0610,0.4883,-0.1221,1,473,0,9
70727159,403,-0.0352,-0.1611,1.0098,-0.1831,0.3662,-0.1221,1,466,0,9
70732704,404,-0.0352,-0.1621,1.0098,-0.0610,0.3662,-0.1831,1,482,0,9
70739701,405,-0.0347,-0.1626,1.0107,-0.0610,0.3052,-0.1831,1,484,0,9
70746688,406,-0.0332,-0.1611,1.0132,-0.0610,0.3052,-0.2441,1,483,0,9
70752724,407,-0.0327,-0.1606,1.0127,-0.0610,0.3662,-0.0610,1,467,0,10
70758705,408,-0.0327,-0.1602,1.0117,-0.1831,0.4272,-0.0610,1,479,0,10
70765703,409,-0.0332,-0.1602,1.0117,-0.0610,0.2441,-0.1831,1,481,0,10
70771093,410,-0.0342,-0.1602,1.0122,-0.1831,0.4883,-0.0610,1,484,0,10
70776710,411,-0.0337,-0.1606,1.0127,-0.1831,0.4272,-0.0610,1,478,0,10
70780278,412,-0.0337,-0.1606,1.0127,-0.1831,0.4272,-0.0610,1,481,0,10
70785587,413,-0.0327,-0.1621,1.0132,-0.1221,0.4272,-0.0610,1,466,0,10
70787852,414,-0.0327,-0.1626,1.0132,-0.0610,0.4272,0.0000,1,472,0,10
70793216,415,-0.0327,-0.1611,1.0132,-0.1221,0.4883,-0.1221,1,496,0,10
70796720,416,-0.0332,-0.1597,1.0117,-0.1831,0.4883,-0.1221,1,468,0,10
70802709,417,-0.0342,-0.1606,1.0093,-0.2441,0.4272,-0.1221,1,478,0,10
70809706,418,-0.0347,-0.1621,1.0083,-0.3052,0.4883,-0.1831,1,478,0,10
70816695,419,-0.0352,-0.1631,1.0098,-0.1221,0.3052,-0.1221,1,483,0,10
70818028,420,-0.0352,-0.1631,1.0098,-0.1221,0.3052,-0.1221,1,484,0,10
70824380,421,-0.0347,-0.1616,1.0107,-0.1221,0.2441,-0.1831,1,5484,0,10
70831640,422,-0.0332,-0.1621,1.0112,-0.1221,0.2441,-0.1831,1,483,0,10
70833020,423,-0.0332,-0.1621,1.0112,-0.1221,0.2441,-0.1831,1,484,0,10
70836718,424,-0.0332,-0.1621,1.0122,0.0000,0.3662,-0.2441,1,470,0,10
70841720,425,-0.0332,-0.1621,1.0127,0.0000,0.3662,-0.1831,1,468,0,10
70846713,426,-0.0332,-0.1631,1.0117,-0.0610,0.3052,-0.0610,1,467,0,10
70852238,427,-0.0342,-0.1626,1.0117,-0.0610,0.1831,-0.2441,1,495,0,10
70857702,428,-0.0352,-0.1611,1.0132,0.0000,0.1221,-0.1831,1,482,0,10
70863713,429,-0.0332,-0.1602,1.0142,-0.1221,0.4272,-0.1221,1,475,0,10
70869725,430,-0.0312,-0.1587,1.0122,-0.1221,0.1831,-0.1221,1,467,0,10
70875709,431,-0.0317,-0.1597,1.0122,-0.1221,0.1831,0.0000,1,477,0,10
70880039,432,-0.0322,-0.1616,1.0122,-0.1221,0.2441,-0.1221,1,478,0,10
70886702,433,-0.0337,-0.1626,1.0117,-0.1831,0.3052,-0.0610,1,483,0,10
70892707,434,-0.0347,-0.1621,1.0112,-0.1831,0.3662,-0.0610,1,477,0,11
70896716,435,-0.0342,-0.1606,1.0112,-0.1831,0.3052,0.0000,1,471,0,11
70901715,436,-0.0332,-0.1597,1.0117,0.0000,0.3052,-0.0610,1,473,0,11
70907719,437,-0.0327,-0.1597,1.0112,-0.1221,0.1831,-0.0610,1,468,0,11
70913701,438,-0.0322,-0.1611,1.0117,0.0610,0.4883,-0.1221,1,483,0,11
70920701,439,-0.0327,-0.1611,1.0127,-0.0610,0.4272,-0.0610,1,483,0,11
70925083,440,-0.0337,-0.1606,1.0137,-0.0610,0.3052,-0.1221,1,465,0,11
70930767,441,-0.0347,-0.1602,1.0127,0.0000,0.3662,-0.0610,1,466,0,11
70933049,442,-0.0347,-0.1602,1.0127,0.0000,0.3662,-0.0610,1,468,0,11
70936717,443,-0.0352,-0.1606,1.0107,0.0000,0.3662,-0.0610,1,471,0,11
70942724,444,-0.0347,-0.1611,1.0103,-0.1831,0.3052,-0.1831,1,467,0,11
70946716,445,-0.0342,-0.1606,1.0117,-0.0610,0.3662,-0.0610,1,471,0,11
70952703,446,-0.0332,-0.1606,1.0127,-0.1831,0.2441,-0.1221,1,481,0,11
70958785,447,-0.0332,-0.1616,1.0127,-0.1831,0.3662,-0.0610,1,518,0,11
70961720,448,-0.0332,-0.1616,1.0127,-0.1831,0.3662,-0.0610,1,466,0,11
70966719,449,-0.0332,-0.1621,1.0137,-0.1221,0.4883,-0.1221,1,467,0,11
70971714,450,-0.0332,-0.1621,1.0142,-0.1831,0.4272,-0.1221,1,473,0,11
70976720,451,-0.0327,-0.1626,1.0151,-0.2441,0.4883,-0.0610,1,466,0,11
70981717,452,-0.0322,-0.1616,1.0142,-0.2441,0.6104,-0.1221,1,469,0,11
70987707,453,-0.0386,-0.1621,1.0034,0.0000,0.3052,-0.1221,1,477,0,11
70993718,454,-0.0366,-0.1611,1.0063,0.1831,0.2441,-0.1831,1,470,0,11
70996712,455,-0.0366,-0.1611,1.0063,0.1831,0.2441,-0.1831,1,476,0,11
71003705,456,-0.0312,-0.1611,1.0127,0.0000,0.3052,-0.0610,1,478,0,11
71010694,457,-0.0322,-0.1611,1.0132,-0.0610,0.3662,-0.0610,1,482,0,11
71015994,458,-0.0337,-0.1611,1.0122,-0.0610,0.2441,-0.1831,1,467,0,11
71017339,459,-0.0352,-0.1611,1.0112,-0.0610,0.1831,-0.2441,1,526,0,11
71021718,460,-0.0352,-0.1611,1.0112,-0.0610,0.1831,-0.2441,1,470,0,11
71027714,461,-0.0342,-0.1611,1.0142,-0.1221,0.1221,-0.2441,1,472,0,11
71031715,462,-0.0342,-0.1611,1.0142,-0.1221,0.1221,-0.2441,1,472,0,11
71037723,463,-0.0342,-0.1611,1.0132,0.0000,0.3052,-0.2441,1,467,0,11
71044689,464,-0.0361,-0.1602,1.0107,0.0610,0.1831,-0.1221,1,483,0,11
71050726,465,-0.0371,-0.1597,1.0098,0.0000,0.2441,-0.1221,1,467,0,11
71053013,466,-0.0356,-0.1602,1.0107,-0.0610,0.1221,-0.1221,1,483,0,11
71056720,467,-0.0342,-0.1611,1.0117,0.0000,0.1831,-0.2441,1,466,0,11
71061720,468,-0.0337,-0.1626,1.0117,0.0000,0.1221,-0.1831,1,466,0,11
71067723,469,-0.0342,-0.1621,1.0122,-0.0610,0.2441,-0.1221,1,466,0,11
71071716,470,-0.0352,-0.1616,1.0127,0.0000,0.2441,-0.1221,1,471,0,11
71076715,471,-0.0366,-0.1621,1.0117,0.0610,0.1221,-0.1831,1,471,0,11
71082706,472,-0.0371,-0.1626,1.0112,0.0610,0.0610,-0.1831,1,479,0,11
71087253,473,-0.0356,-0.1626,1.0107,0.1221,0.2441,-0.1221,1,493,0,11
71091713,474,-0.0342,-0.1621,1.0098,0.2441,0.1831,-0.1221,1,474,0,11
71096713,475,-0.0332,-0.1616,1.0093,0.1831,0.1221,-0.1831,1,473,0,11
71101715,476,-0.0332,-0.1611,1.0103,0.0610,0.1221,-0.2441,1,471,0,11
71107702,477,-0.0337,-0.1606,1.0117,0.0610,0.1221,-0.0610,1,481,0,11
71111712,478,-0.0342,-0.1606,1.0127,0.1221,0.0000,-0.2441,1,474,0,11
71116712,479,-0.0342,-0.1602,1.0122,0.1831,-0.1831,-0.1831,1,474,0,11
71122714,480,-0.0337,-0.1611,1.0122,0.1221,0.0610,-0.1221,1,471,0,11
71126714,481,-0.0337,-0.1626,1.0117,0.1221,0.3052,-0.1221,1,471,0,11
71132724,482,-0.0337,-0.1636,1.0103,0.1831,0.1221,-0.1831,1,466,0,11
71139691,483,-0.0332,-0.1636,1.0103,0.2441,0.1221,-0.1831,1,483,0,11
71145083,484,-0.0322,-0.1616,1.0127,0.1221,0.1831,-0.1831,1,465,0,11
71147343,485,-0.0322,-0.1616,1.0127,0.1221,0.1831,-0.1831,1,488,0,11
71151715,486,-0.0332,-0.1616,1.0107,0.1831,0.2441,-0.2441,1,471,0,11
71157785,487,-0.0342,-0.1626,1.0103,0.2441,0.1831,-0.2441,1,472,0,11
71164686,488,-0.0342,-0.1626,1.0098,0.3052,0.1831,-0.1221,1,483,0,11
71171703,489,-0.0342,-0.1597,1.0122,0.2441,0.2441,-0.2441,1,480,0,11
71177706,490,-0.0337,-0.1597,1.0132,0.2441,0.2441,-0.2441,1,478,0,12
71181713,491,-0.0332,-0.1602,1.0122,0.2441,0.1221,-0.1831,1,472,0,12
71186716,492,-0.0337,-0.1606,1.0117,0.3662,0.1221,-0.1221,1,471,0,12
71192722,493,-0.0332,-0.1611,1.0132,0.2441,0.1831,-0.1221,1,466,0,12
71196714,494,-0.0342,-0.1611,1.0137,0.1221,0.1831,-0.1221,1,473,0,12
71202700,495,-0.0356,-0.1606,1.0122,0.1221,0.1831,-0.1831,1,484,0,12
71206717,496,-0.0352,-0.1611,1.0112,0.1831,0.1831,-0.1831,1,469,0,12
71213697,497,-0.0337,-0.1611,1.0137,0.2441,0.1831,-0.0610,1,483,0,12
71218080,498,-0.0347,-0.1606,1.0132,0.1831,0.3662,-0.1831,1,465,0,12
71224681,499,-0.0371,-0.1626,1.0103,0.3052,0.1221,-0.1831,1,483,0,12
71226931,500,-0.0371,-0.1626,1.0103,0.3052,0.1221,-0.1831,1,479,0,12
71231719,501,-0.0342,-0.1611,1.0132,0.2441,0.2441,-0.3052,1,468,0,12
71237704,502,-0.0327,-0.1611,1.0137,0.1221,0.3052,-0.2441,1,479,0,12
71244701,503,-0.0342,-0.1611,1.0122,0.3052,0.1221,-0.1221,1,481,0,12
71250772,504,-0.0347,-0.1616,1.0122,0.1221,0.1221,-0.1831,1,483,0,12
71256716,505,-0.0347,-0.1611,1.0122,0.1221,0.3052,-0.1831,1,469,0,13
71261720,506,-0.0342,-0.1597,1.0127,0.1221,0.3052,-0.1221,1,466,0,13
71268690,507,-0.0327,-0.1606,1.0112,0.1831,0.3052,-0.2441,1,483,0,13
71274721,508,-0.0332,-0.1602,1.0103,0.2441,0.4272,-0.1831,1,466,0,13
71280705,509,-0.0347,-0.1602,1.0098,0.1831,0.3052,-0.1221,1,478,0,13
71284059,510,-0.0361,-0.1606,1.0098,0.3052,0.2441,-0.1221,1,465,0,13
71289705,511,-0.0356,-0.1611,1.0103,0.3052,0.2441,-0.2441,1,477,0,13
71291735,512,-0.0356,-0.1611,1.0103,0.3052,0.2441,-0.2441,1,476,0,13
71298686,513,-0.0337,-0.1616,1.0112,0.3052,0.1221,-0.1221,1,483,0,13
71305674,514,-0.0332,-0.1616,1.0127,0.2441,0.1221,-0.2441,1,483,0,13
71311066,515,-0.0322,-0.1611,1.0132,0.3052,0.1221,-0.1831,1,465,0,13
71316346,516,-0.0317,-0.1611,1.0127,0.2441,0.0610,-0.2441,1,489,0,13
71317758,517,-0.0327,-0.1616,1.0127,0.3052,0.2441,-0.2441,1,473,0,13
71321715,518,-0.0327,-0.1616,1.0127,0.3052,0.2441,-0.2441,1,468,0,13
71328684,519,-0.0337,-0.1606,1.0122,0.3052,0.2441,-0.2441,1,483,0,13
71335674,520,-0.0342,-0.1606,1.0122,0.4272,0.3052,-0.2441,1,483,0,13
71341065,521,-0.0347,-0.1611,1.0122,0.3662,0.2441,-0.3052,1,465,0,13
71343415,522,-0.0347,-0.1611,1.0112,0.1831,0.2441,-0.2441,1,495,0,13
71346716,523,-0.0347,-0.1611,1.0112,0.1831,0.2441,-0.2441,1,469,0,13
71353678,524,-0.0342,-0.1606,1.0098,0.3662,0.2441,-0.3052,1,483,0,13
71359712,525,-0.0337,-0.1611,1.0098,0.4272,0.3052,-0.3052,1,473,0,13
71364075,526,-0.0337,-0.1611,1.0093,0.4272,0.4272,-0.3052,1,465,0,13
71367344,527,-0.0347,-0.1621,1.0093,0.3662,0.3052,-0.3052,1,486,0,13
71371718,528,-0.0356,-0.1636,1.0083,0.5493,0.3052,-0.3052,1,466,0,13
71377074,529,-0.0356,-0.1602,1.0088,0.5493,0.1221,-0.2441,1,465,0,13
71381720,530,-0.0337,-0.1567,1.0112,0.4272,0.0610,-0.3052,1,467,0,13
71387698,531,-0.0332,-0.1577,1.0127,0.4883,0.2441,-0.1221,1,484,0,13
71393708,532,-0.0337,-0.1597,1.0122,0.4272,0.3662,-0.0610,1,477,0,13
71396721,533,-0.0337,-0.1602,1.0137,0.3662,0.4272,-0.2441,1,466,0,13
71401719,534,-0.0337,-0.1597,1.0132,0.3662,0.3662,-0.1831,1,466,0,13
71406717,535,-0.0352,-0.1611,1.0093,0.2441,0.3662,-0.1831,1,468,0,13
71411719,536,-0.0352,-0.1626,1.0083,0.2441,0.3052,-0.1221,1,465,0,13
71417695,537,-0.0347,-0.1631,1.0103,0.3052,0.3052,-0.1831,1,483,0,13
71422056,538,-0.0352,-0.1631,1.0117,0.3662,0.3662,-0.3052,1,465,0,13
71427704,539,-0.0356,-0.1626,1.0112,0.5493,0.4272,-0.3662,1,478,0,13
71433716,540,-0.0356,-0.1611,1.0112,0.5493,0.3662,-0.3052,1,468,0,13
71436713,541,-0.0347,-0.1602,1.0117,0.6104,0.2441,-0.3052,1,471,0,13
71442719,542,-0.0352,-0.1611,1.0132,0.6104,0.2441,-0.2441,1,466,0,13
71448702,543,-0.0352,-0.1606,1.0151,0.7935,0.1221,-0.1831,1,479,0,13
71455700,544,-0.0322,-0.1582,1.0146,0.3052,0.1831,-0.3662,1,481,0,13
71461701,545,-0.0322,-0.1577,1.0137,0.4272,0.2441,-0.4272,1,479,0,13
71463046,546,-0.0322,-0.1577,1.0137,0.4272,0.2441,-0.4272,1,469,0,13
71466720,547,-0.0327,-0.1577,1.0132,0.3052,0.2441,-0.3052,1,466,0,13
71473672,548,-0.0327,-0.1587,1.0132,0.1221,0.2441,-0.1831,1,483,0,13
71479706,549,-0.0337,-0.1597,1.0127,0.1831,0.3662,-0.1831,1,478,0,13
71482056,550,-0.0342,-0.1587,1.0127,0.1831,0.3662,-0.1221,1,465,0,13
71487335,551,-0.0342,-0.1592,1.0117,0.1831,0.2441,-0.0610,1,489,0,13
71491720,552,-0.0332,-0.1606,1.0107,0.2441,0.2441,-0.1221,1,466,0,13
71497713,553,-0.0332,-0.1606,1.0122,0.2441,0.3052,-0.1221,1,471,0,13
71501712,554,-0.0337,-0.1597,1.0137,0.3052,0.3662,-0.1221,1,471,0,13
71507155,555,-0.0347,-0.1602,1.0132,0.1221,0.2441,-0.1221,1,466,0,13
71512698,556,-0.0347,-0.1611,1.0112,0.1831,0.1831,-0.1831,1,483,0,13
71518095,557,-0.0352,-0.1592,1.0098,0.2441,0.3052,-0.1221,1,483,0,13
71524700,558,-0.0332,-0.1592,1.0127,0.1221,0.4272,-0.2441,1,482,0,13
71530703,559,-0.0322,-0.1606,1.0137,0.1831,0.3662,-0.1831,1,477,0,13
71532046,560,-0.0322,-0.1606,1.0137,0.1831,0.3662,-0.1831,1,468,0,13
71536717,561,-0.0337,-0.1597,1.0142,0.3052,0.3052,-0.2441,1,466,0,13
71545043,562,-0.0317,-0.1587,1.0151,0.2441,0.4272,-0.1831,1,471,0,13
71551676,563,-0.0317,-0.1558,1.0166,0.0610,0.6104,-0.2441,1,483,0,13
71557711,564,-0.0327,-0.1582,1.0137,0.0000,0.5493,-0.3052,1,473,0,14
71561718,565,-0.0327,-0.1602,1.0117,0.1221,0.5493,-0.0610,1,466,0,14
71567075,566,-0.0322,-0.1582,1.0137,0.1221,0.5493,-0.1831,1,465,0,14
71572760,567,-0.0322,-0.1577,1.0142,-0.1221,0.5493,-0.0610,1,470,0,14
71576718,568,-0.0332,-0.1582,1.0122,0.0000,0.8545,-0.0610,1,466,0,14
71581719,569,-0.0342,-0.1582,1.0103,0.0000,0.7935,-0.0610,1,467,0,14
71587035,570,-0.0347,-0.1592,1.0098,-0.1221,0.8545,0.0000,1,478,0,14
71591715,571,-0.0366,-0.1606,1.0098,0.0610,0.7935,0.0000,1,468,0,14
71596718,572,-0.0371,-0.1616,1.0088,0.1831,0.6104,0.0610,1,466,0,14
71602723,573,-0.0366,-0.1611,1.0083,0.3662,0.5493,0.0000,1,467,0,14
71609688,574,-0.0356,-0.1606,1.0098,0.4272,0.5493,-0.2441,1,483,0,14
71615722,575,-0.0352,-0.1606,1.0098,0.4883,0.3662,-0.1831,1,467,0,14
71621149,576,-0.0342,-0.1602,1.0093,0.6714,0.4272,-0.0610,1,466,0,14
71624418,577,-0.0342,-0.1611,1.0073,0.5493,0.4272,-0.1221,1,487,0,14
71629699,578,-0.0347,-0.1626,1.0054,0.6104,0.1831,-0.1221,1,481,0,14
71636698,579,-0.0332,-0.1621,1.0088,0.8545,0.3052,-0.1831,1,482,0,14
71642700,580,-0.0332,-0.1592,1.0142,0.9155,0.3052,-0.0610,1,480,0,15
71646720,581,-0.0332,-0.1592,1.0142,0.9155,0.3052,-0.0610,1,466,0,15
71653694,582,-0.0356,-0.1572,1.0132,0.9155,0.2441,-0.0610,1,483,0,15
71659086,583,-0.0342,-0.1572,1.0122,0.6714,0.4272,-0.1221,1,483,0,15
71663480,584,-0.0327,-0.1582,1.0122,0.7324,0.5493,-0.2441,1,469,0,15
71666720,585,-0.0327,-0.1582,1.0122,0.7324,0.5493,-0.2441,1,466,0,15
71671718,586,-0.0332,-0.1582,1.0137,0.8545,0.4883,-0.1831,1,466,0,15
71677703,587,-0.0337,-0.1567,1.0142,0.7935,0.4272,-0.1221,1,477,0,15
71683715,588,-0.0342,-0.1577,1.0132,0.7324,0.6714,-0.1221,1,468,0,15
71688077,589,-0.0347,-0.1577,1.0127,0.7324,0.6104,-0.1831,1,465,0,15
71694680,590,-0.0342,-0.1582,1.0112,0.4883,0.6714,-0.2441,1,483,0,15
71700713,591,-0.0337,-0.1577,1.0103,0.6714,0.7324,-0.2441,1,470,0,15
71706081,592,-0.0332,-0.1577,1.0098,0.7324,0.8545,-0.3052,1,465,0,15
71707425,593,-0.0342,-0.1587,1.0103,0.8545,0.7935,-0.2441,1,5496,0,15
71717711,594,-0.0352,-0.1558,1.0142,0.9155,0.6714,-0.3052,1,471,0,16
71723693,595,-0.0356,-0.1567,1.0132,0.8545,0.6104,-0.2441,1,483,0,16
71729772,596,-0.0356,-0.1567,1.0142,0.7935,0.6714,-0.3052,1,480,0,16
71735716,597,-0.0342,-0.1553,1.0146,0.7324,0.6104,-0.3052,1,466,0,16
71741123,598,-0.0327,-0.1548,1.0137,0.4272,0.5493,-0.2441,1,466,0,16
71742493,599,-0.0327,-0.1548,1.0137,0.4272,0.5493,-0.2441,1,504,0,16
71746712,600,-0.0337,-0.1553,1.0132,0.2441,0.5493,-0.1831,1,471,0,16
71753054,601,-0.0347,-0.1553,1.0127,0.0000,0.5493,-0.1831,1,464,0,16
71762269,602,-0.0352,-0.1558,1.0112,-0.1221,0.6104,-0.1221,1,482,0,17
71767545,603,-0.0352,-0.1567,1.0107,0.0000,0.6104,-0.1831,1,492,0,17
71776679,604,-0.0366,-0.1592,1.0117,0.1221,0.6714,-0.1831,1,483,0,17
71778019,605,-0.0366,-0.1592,1.0117,0.1221,0.6714,-0.1831,1,484,0,17
71785399,606,-0.0366,-0.1577,1.0093,-0.1831,0.4272,-0.3052,1,494,0,17
71787655,607,-0.0366,-0.1577,1.0093,-0.1831,0.4272,-0.3052,1,483,0,17
71791717,608,-0.0352,-0.1587,1.0093,-0.0610,0.3052,-0.2441,1,466,0,17
71797697,609,-0.0342,-0.1582,1.0107,-0.1831,0.4883,-0.1831,1,481,0,17
71803709,610,-0.0342,-0.1567,1.0137,-0.3662,0.5493,-0.1831,1,473,0,17
71810676,611,-0.0352,-0.1582,1.0122,-0.2441,0.5493,-0.1221,1,483,0,17
71816068,612,-0.0347,-0.1602,1.0098,-0.0610,0.4272,-0.1831,1,465,0,17
71821439,613,-0.0347,-0.1606,1.0107,-0.0610,0.6104,-0.1831,1,487,0,17
71826719,614,-0.0352,-0.1602,1.0122,0.0610,0.6714,-0.2441,1,466,0,18
71832700,615,-0.0376,-0.1602,1.0107,0.0610,0.5493,-0.3052,1,478,0,18
71836712,616,-0.0381,-0.1602,1.0098,0.1831,0.4883,-0.1831,1,469,0,18
71841715,617,-0.0371,-0.1602,1.0103,0.3052,0.4883,-0.3052,1,466,0,18
71848671,618,-0.0361,-0.1592,1.0117,0.4272,0.5493,-0.3052,1,483,0,18
71854705,619,-0.0356,-0.1582,1.0146,0.2441,0.5493,-0.3662,1,477,0,18
71860790,620,-0.0352,-0.1577,1.0142,0.2441,0.4883,-0.3662,1,481,0,18
71866210,621,-0.0366,-0.1567,1.0137,0.3052,0.3052,-0.3052,1,493,0,18
71868468,622,-0.0366,-0.1567,1.0137,0.3052,0.3052,-0.3052,1,495,0,18
71873718,623,-0.0396,-0.1567,1.0112,0.1831,0.3662,-0.2441,1,466,0,18
71877070,624,-0.0396,-0.1567,1.0112,0.1831,0.3662,-0.2441,1,465,0,18
71881716,625,-0.0386,-0.1553,1.0112,0.1831,0.0610,-0.1831,1,466,0,18
71886716,626,-0.0352,-0.1572,1.0112,0.0610,0.1831,-0.3052,1,465,0,18
71892697,627,-0.0352,-0.1606,1.0098,0.1831,0.3052,-0.3662,1,482,0,18
71896718,628,-0.0361,-0.1611,1.0093,0.1831,0.1221,-0.3052,1,466,0,18
71903693,629,-0.0366,-0.1562,1.0122,0.3052,0.3052,-0.2441,1,483,0,18
71910683,630,-0.0361,-0.1567,1.0127,0.1831,0.3052,-0.4272,1,483,0,18
71915066,631,-0.0352,-0.1592,1.0127,0.3052,0.3052,-0.3662,1,465,0,18
71921699,632,-0.0342,-0.1592,1.0132,0.3662,0.3052,-0.3052,1,479,0,18
71923030,633,-0.0337,-0.1567,1.0142,0.3052,0.2441,-0.3662,1,482,0,18
71933714,634,-0.0361,-0.1562,1.0151,0.1221,0.4883,-0.3052,1,466,0,19
71940680,635,-0.0366,-0.1582,1.0146,0.1221,0.4272,-0.3052,1,484,0,19
71946071,636,-0.0356,-0.1577,1.0142,0.0610,0.4272,-0.3052,1,465,0,19
71951718,637,-0.0356,-0.1567,1.0132,0.1221,0.5493,-0.1831,1,466,0,20
71956718,638,-0.0361,-0.1582,1.0127,-0.0610,0.3662,-0.1831,1,466,0,20
71962706,639,-0.0352,-0.1577,1.0161,-0.1831,0.4272,-0.2441,1,474,0,20
71969671,640,-0.0352,-0.1587,1.0151,-0.1831,0.6104,-0.1831,1,483,0,20
71975704,641,-0.0356,-0.1606,1.0127,-0.0610,0.4272,-0.1831,1,477,0,20
71977970,642,-0.0366,-0.1587,1.0107,-0.1831,0.4272,-0.1831,1,467,0,20
71983700,643,-0.0376,-0.1562,1.0107,-0.0610,0.3662,-0.1221,1,477,0,20
71989100,644,-0.0376,-0.1572,1.0103,-0.2441,0.3052,-0.1221,1,484,0,20
71994444,645,-0.0366,-0.1587,1.0103,-0.1221,0.3052,-0.1221,1,484,0,20
71999691,646,-0.0352,-0.1592,1.0117,-0.0610,0.3662,-0.0610,1,483,0,20
72005706,647,-0.0347,-0.1582,1.0137,-0.0610,0.4883,-0.0610,1,474,0,20
72008054,648,-0.0356,-0.1577,1.0127,-0.1831,0.5493,-0.0610,1,465,0,20
72011720,649,-0.0361,-0.1572,1.0117,-0.1221,0.6714,-0.1221,1,466,0,20
72016716,650,-0.0356,-0.1558,1.0112,0.1221,0.6104,-0.0610,1,467,0,20
72022769,651,-0.0356,-0.1577,1.0112,0.0610,0.5493,0.0000,1,482,0,20
72026712,652,-0.0361,-0.1597,1.0112,0.0610,0.4883,-0.0610,1,469,0,20
72032779,653,-0.0361,-0.1577,1.0127,0.1221,0.4883,0.0000,1,471,0,20
72039678,654,-0.0352,-0.1567,1.0137,0.0000,0.5493,-0.0610,1,483,0,20
72042156,655,-0.0342,-0.1587,1.0122,-0.0610,0.5493,0.0000,1,494,0,20
72047481,656,-0.0352,-0.1597,1.0107,0.0610,0.5493,0.0000,1,469,0,20
72052700,657,-0.0356,-0.1602,1.0112,-0.0610,0.4272,0.0000,1,478,0,20
72059697,658,-0.0361,-0.1592,1.0132,0.0000,0.4272,0.0000,1,479,0,20
72065703,659,-0.0366,-0.1582,1.0137,0.0000,0.3662,0.0610,1,477,0,20
72071713,660,-0.0361,-0.1582,1.0166,-0.0610,0.3662,0.1831,1,468,0,21
72078679,661,-0.0352,-0.1587,1.0176,-0.1221,0.4883,0.1221,1,483,0,21
72085669,662,-0.0352,-0.1597,1.0146,-0.0610,0.4883,0.1221,1,483,0,21
72091701,663,-0.0366,-0.1582,1.0117,-0.0610,0.5493,0.1831,1,478,0,21
72093053,664,-0.0366,-0.1582,1.0117,-0.0610,0.5493,0.1831,1,465,0,21
72096713,665,-0.0381,-0.1582,1.0103,-0.0610,0.5493,0.0610,1,468,0,21
72102075,666,-0.0381,-0.1587,1.0098,-0.0610,0.4272,0.1221,1,465,0,21
72108680,667,-0.0371,-0.1577,1.0112,-0.1221,0.3662,0.1831,1,483,0,21
72112056,668,-0.0376,-0.1577,1.0117,-0.2441,0.3662,0.0610,1,465,0,21
72116714,669,-0.0381,-0.1582,1.0088,-0.1831,0.3662,0.0610,1,466,0,21
72121716,670,-0.0376,-0.1562,1.0088,-0.0610,0.4272,0.0610,1,466,0,21
72126717,671,-0.0366,-0.1548,1.0107,-0.1221,0.4272,0.0000,1,466,0,21
72132718,672,-0.0371,-0.1577,1.0103,-0.1221,0.3052,0.0610,1,466,0,21
72138698,673,-0.0381,-0.1606,1.0088,0.0610,0.1831,0.0000,1,478,0,21
72144710,674,-0.0391,-0.1577,1.0088,0.1831,-0.0610,-0.0610,1,470,0,21
72150691,675,-0.0381,-0.1567,1.0098,0.1221,0.0000,-0.1221,1,484,0,21
72151978,676,-0.0381,-0.1567,1.0098,0.1221,0.0000,-0.1221,1,467,0,21
72156712,677,-0.0376,-0.1577,1.0112,0.3662,0.0610,-0.1831,1,470,0,21
72167691,678,-0.0376,-0.1572,1.0137,0.2441,0.0610,-0.0610,1,483,0,22
72173769,679,-0.0361,-0.1567,1.0142,0.3662,0.0000,-0.1221,1,482,0,22
72179715,680,-0.0361,-0.1538,1.0142,0.1221,0.0610,-0.1831,1,466,0,22
72185697,681,-0.0356,-0.1543,1.0146,0.0610,0.1831,-0.1221,1,480,0,22
72187044,682,-0.0356,-0.1543,1.0146,0.0610,0.1831,-0.1221,1,467,0,22
72197688,683,-0.0356,-0.1562,1.0146,0.0610,0.1831,-0.1831,1,484,0,23
72203702,684,-0.0371,-0.1567,1.0127,-0.1831,0.0610,0.0000,1,478,0,23
72209714,685,-0.0366,-0.1577,1.0117,-0.1221,0.0610,0.1831,1,466,0,23
72215693,686,-0.0356,-0.1577,1.0112,-0.1221,0.0610,0.0610,1,484,0,23
72217044,687,-0.0356,-0.1577,1.0112,-0.1221,0.0610,0.0610,1,467,0,23
72221720,688,-0.0366,-0.1577,1.0093,-0.0610,-0.0610,-0.1221,1,466,0,23
72228051,689,-0.0381,-0.1587,1.0083,0.1221,0.1221,-0.1221,1,465,0,23
72231719,690,-0.0386,-0.1602,1.0098,0.1831,0.0610,-0.1831,1,467,0,23
72237697,691,-0.0381,-0.1597,1.0117,0.2441,0.0000,-0.1221,1,480,0,23
72244696,692,-0.0371,-0.1592,1.0117,0.4883,-0.1221,-0.1831,1,481,0,23
72250084,693,-0.0366,-0.1582,1.0107,0.4883,-0.0610,-0.2441,1,483,0,23
72252404,694,-0.0366,-0.1582,1.0107,0.4883,-0.0610,-0.2441,1,494,0,23
72256719,695,-0.0361,-0.1567,1.0117,0.6104,-0.0610,-0.3052,1,467,0,23
72261715,696,-0.0361,-0.1567,1.0122,0.6104,-0.1221,-0.3662,1,466,0,23
72266715,697,-0.0361,-0.1572,1.0132,0.6714,-0.0610,-0.2441,1,467,0,23
72272700,698,-0.0356,-0.1587,1.0117,0.6714,0.0000,-0.3662,1,477,0,23
72278040,699,-0.0381,-0.1572,1.0103,0.7935,-0.0610,-0.3662,1,492,0,23
72281715,700,-0.0381,-0.1572,1.0103,0.7935,-0.0610,-0.3662,1,466,0,23
72286714,701,-0.0376,-0.1567,1.0103,0.6714,-0.1831,-0.4883,1,466,0,23
72291716,702,-0.0366,-0.1587,1.0122,0.9155,-0.1221,-0.4883,1,467,0,23
72296714,703,-0.0361,-0.1587,1.0132,0.8545,0.0000,-0.4272,1,466,0,23
72301716,704,-0.0352,-0.1553,1.0142,0.9155,-0.1221,-0.3052,1,466,0,23
72306715,705,-0.0352,-0.1538,1.0137,0.6104,-0.1221,-0.4272,1,467,0,23
72311715,706,-0.0352,-0.1567,1.0117,0.5493,-0.1831,-0.4272,1,466,0,23
72318667,707,-0.0356,-0.1558,1.0137,0.5493,-0.1221,-0.4883,1,483,0,23
72325689,708,-0.0361,-0.1538,1.0137,0.4272,-0.1831,-0.4272,1,483,0,23
72331077,709,-0.0361,-0.1538,1.0137,0.4883,-0.2441,-0.3052,1,465,0,23
72333343,710,-0.0361,-0.1543,1.0142,0.4272,-0.2441,-0.1831,1,482,0,23
72338709,711,-0.0356,-0.1553,1.0151,0.1831,-0.1221,-0.3662,1,497,0,23
72345674,712,-0.0347,-0.1558,1.0142,0.3052,-0.0610,-0.1831,1,484,0,23
72347018,713,-0.0352,-0.1558,1.0112,0.3052,-0.0610,0.0000,1,484,0,23
72357690,714,-0.0361,-0.1577,1.0103,0.4272,0.0000,-0.1831,1,484,0,24
72362938,715,-0.0366,-0.1582,1.0112,0.6104,0.1221,-0.3052,1,466,0,24
72366719,716,-0.0361,-0.1582,1.0132,0.6714,0.0000,-0.3052,1,466,0,24
72371721,717,-0.0352,-0.1577,1.0156,0.5493,-0.0610,-0.1831,1,481,0,24
72376717,718,-0.0342,-0.1567,1.0171,0.6104,0.0000,-0.2441,1,467,0,24
72382715,719,-0.0347,-0.1562,1.0166,0.6104,-0.0610,-0.3052,1,467,0,24
72388696,720,-0.0337,-0.1543,1.0176,0.4272,-0.0610,-0.2441,1,479,0,24
72395695,721,-0.0361,-0.1543,1.0181,0.0610,0.0000,-0.2441,1,481,0,24
72401061,722,-0.0366,-0.1558,1.0176,0.0610,0.0000,-0.1831,1,465,0,24
72406365,723,-0.0356,-0.1562,1.0151,0.0610,0.1221,-0.2441,1,481,0,24
72411706,724,-0.0356,-0.1577,1.0127,0.0000,-0.0610,-0.2441,1,473,0,24
72412995,725,-0.0356,-0.1577,1.0127,0.0000,-0.0610,-0.2441,1,483,0,24
72416713,726,-0.0356,-0.1587,1.0117,0.1221,0.0000,-0.2441,1,466,0,24
72421712,727,-0.0352,-0.1562,1.0117,0.1221,0.1221,-0.2441,1,466,0,24
72426719,728,-0.0352,-0.1538,1.0117,0.1221,0.3052,-0.1221,1,467,0,24
72433687,729,-0.0366,-0.1538,1.0107,0.0000,0.1221,-0.1831,1,483,0,24
72436716,730,-0.0376,-0.1567,1.0107,0.0610,0.0610,-0.1831,1,466,0,24
72441712,731,-0.0376,-0.1567,1.0103,0.1831,0.2441,-0.1831,1,466,0,24
72446718,732,-0.0361,-0.1572,1.0093,0.0000,0.0610,-0.2441,1,466,0,24
72453675,733,-0.0347,-0.1572,1.0088,0.1831,0.1221,-0.1221,1,483,0,24
72460667,734,-0.0347,-0.1567,1.0122,0.1831,0.0610,-0.1221,1,483,0,24
72466056,735,-0.0356,-0.1567,1.0151,0.4272,0.1831,-0.1831,1,465,0,24
72468315,736,-0.0356,-0.1567,1.0151,0.4272,0.1831,-0.1831,1,474,0,24
72473686,737,-0.0366,-0.1567,1.0156,0.3662,0.1221,-0.1831,1,483,0,24
72479087,738,-0.0371,-0.1562,1.0132,0.4883,0.1221,-0.1831,1,483,0,24
72484703,739,-0.0361,-0.1572,1.0112,0.6714,0.0610,-0.3052,1,474,0,24
72489066,740,-0.0361,-0.1572,1.0112,0.6714,0.0610,-0.3052,1,465,0,24
72492332,741,-0.0356,-0.1567,1.0132,0.7324,0.1221,-0.3052,1,489,0,24
72496713,742,-0.0356,-0.1553,1.0142,0.7324,0.2441,-0.4272,1,466,0,24
72502709,743,-0.0352,-0.1543,1.0146,0.6104,0.2441,-0.3662,1,469,0,24
72508691,744,-0.0347,-0.1543,1.0146,0.6104,0.2441,-0.4272,1,483,0,24
72514702,745,-0.0347,-0.1519,1.0156,0.3662,0.2441,-0.3052,1,476,0,24
72521669,746,-0.0342,-0.1519,1.0176,0.3662,0.4272,-0.3052,1,483,0,24
72527703,747,-0.0342,-0.1523,1.0166,0.0000,0.3662,-0.1831,1,475,0,25
72533714,748,-0.0347,-0.1558,1.0132,-0.0610,0.3662,-0.1221,1,466,0,25
72539696,749,-0.0347,-0.1558,1.0127,-0.0610,0.5493,-0.0610,1,478,0,25
72544059,750,-0.0356,-0.1528,1.0132,-0.1831,0.5493,-0.1831,1,465,0,25
72547326,751,-0.0356,-0.1528,1.0132,-0.1831,0.5493,-0.1831,1,488,0,25
72551720,752,-0.0366,-0.1543,1.0127,-0.3662,0.4272,-0.1831,1,482,0,25
72556718,753,-0.0361,-0.1572,1.0122,-0.3052,0.6104,-0.1221,1,466,0,25
72562706,754,-0.0361,-0.1572,1.0107,-0.1831,0.7324,0.0000,1,472,0,25
72568045,755,-0.0366,-0.1548,1.0103,-0.2441,0.7324,-0.0610,1,465,0,25
72571715,756,-0.0366,-0.1548,1.0103,-0.2441,0.7324,-0.0610,1,467,0,25
72576713,757,-0.0361,-0.1548,1.0117,-0.1831,0.7324,-0.1221,1,466,0,25
72582694,758,-0.0352,-0.1553,1.0137,-0.1221,0.9155,-0.1221,1,480,0,25
72586718,759,-0.0352,-0.1553,1.0137,-0.1221,0.9155,-0.1221,1,467,0,25
72593689,760,-0.0356,-0.1548,1.0166,0.0000,0.8545,-0.1221,1,484,0,25
72596713,761,-0.0356,-0.1548,1.0166,0.0000,0.8545,-0.1221,1,466,0,25
72601719,762,-0.0356,-0.1558,1.0161,0.0000,0.9155,-0.0610,1,466,0,25
72607688,763,-0.0347,-0.1548,1.0132,-0.1221,0.7935,-0.1221,1,484,0,25
72611713,764,-0.0347,-0.1548,1.0132,-0.1221,0.7935,-0.1221,1,466,0,25
72616719,765,-0.0352,-0.1543,1.0142,-0.1221,0.7324,-0.1221,1,466,0,25
72623690,766,-0.0391,-0.1543,1.0117,-0.1221,0.6104,-0.1831,1,483,0,25
72626712,767,-0.0391,-0.1543,1.0117,-0.1221,0.6104,-0.1831,1,466,0,25
72631712,768,-0.0400,-0.1553,1.0112,-0.0610,0.5493,-0.2441,1,466,0,25
72636712,769,-0.0391,-0.1562,1.0107,-0.2441,0.4272,-0.2441,1,466,0,25
72641717,770,-0.0376,-0.1553,1.0117,-0.3052,0.3662,-0.2441,1,467,0,25
72646715,771,-0.0347,-0.1533,1.0146,-0.4883,0.3662,0.0000,1,467,0,25
72651717,772,-0.0347,-0.1562,1.0127,-0.4883,0.4883,0.0610,1,466,0,25
72656716,773,-0.0356,-0.1587,1.0088,-0.3052,0.5493,0.0610,1,467,0,25
72663666,774,-0.0366,-0.1577,1.0049,-0.2441,0.4883,0.1221,1,483,0,25
72670687,775,-0.0376,-0.1582,1.0029,-0.2441,0.6714,0.1831,1,484,0,25
72675070,776,-0.0381,-0.1597,1.0039,-0.1221,0.6714,0.1221,1,465,0,25
72680685,777,-0.0376,-0.1606,1.0059,0.4272,0.6714,0.0610,1,484,0,25
72682030,778,-0.0376,-0.1611,1.0093,0.5493,0.4272,0.0000,1,478,0,25
72686717,779,-0.0391,-0.1582,1.0122,0.6714,0.4883,0.0000,1,467,0,25
72697041,780,-0.0396,-0.1548,1.0132,0.6714,0.1831,-0.2441,1,465,0,26
72701717,781,-0.0371,-0.1567,1.0127,0.8545,0.0610,-0.1831,1,467,0,26
72707694,782,-0.0361,-0.1572,1.0137,0.8545,0.0000,-0.3052,1,479,0,26
72714693,783,-0.0361,-0.1538,1.0146,0.7935,-0.1831,-0.3052,1,479,0,26
72720081,784,-0.0352,-0.1499,1.0171,0.7324,-0.1221,-0.3052,1,484,0,26
72725394,785,-0.0352,-0.1509,1.0186,0.4883,-0.0610,-0.2441,1,494,0,26
72727651,786,-0.0361,-0.1548,1.0171,0.1831,-0.0610,-0.3052,1,483,0,26
72733052,787,-0.0366,-0.1562,1.0151,0.3052,-0.0610,-0.3052,1,465,0,26
72736718,788,-0.0371,-0.1543,1.0137,0.3052,0.0610,-0.1221,1,467,0,26
72742698,789,-0.0376,-0.1533,1.0122,0.2441,-0.0610,-0.0610,1,478,0,26
72746720,790,-0.0371,-0.1538,1.0098,0.0610,0.0000,-0.0610,1,482,0,26
72753692,791,-0.0356,-0.1528,1.0093,0.1221,0.1221,-0.1221,1,482,0,26
72760681,792,-0.0366,-0.1553,1.0098,0.1221,0.4272,0.0610,1,483,0,26
72762017,793,-0.0366,-0.1553,1.0098,0.1221,0.4272,0.0610,1,484,0,26
72772695,794,-0.0371,-0.1587,1.0122,0.3662,0.4272,-0.0610,1,477,0,27
72776719,795,-0.0371,-0.1577,1.0132,0.5493,0.2441,-0.0610,1,482,0,27
72781716,796,-0.0366,-0.1567,1.0127,0.5493,0.1221,-0.0610,1,467,0,27
72786712,797,-0.0366,-0.1572,1.0112,0.6104,0.1221,-0.0610,1,467,0,27
72791713,798,-0.0376,-0.1577,1.0107,0.5493,0.1221,-0.0610,1,467,0,27
72796715,799,-0.0381,-0.1567,1.0122,0.8545,0.0610,-0.1221,1,467,0,27
72802694,800,-0.0386,-0.1553,1.0132,0.8545,0.0000,-0.0610,1,480,0,27
72808706,801,-0.0386,-0.1553,1.0122,0.9766,-0.1221,-0.1831,1,469,0,27
72813070,802,-0.0381,-0.1562,1.0112,1.0986,-0.0610,-0.2441,1,465,0,27
72819671,803,-0.0356,-0.1553,1.0146,1.2207,-0.1831,-0.1221,1,483,0,27
72823047,804,-0.0356,-0.1553,1.0146,1.2207,-0.1831,-0.1221,1,465,0,27
72828697,805,-0.0361,-0.1548,1.0146,1.0376,-0.1831,-0.1221,1,478,0,27
72831719,806,-0.0366,-0.1562,1.0127,1.0986,-0.2441,-0.2441,1,481,0,27
72837697,807,-0.0371,-0.1558,1.0122,1.2207,-0.1831,-0.2441,1,478,0,27
72843777,808,-0.0352,-0.1548,1.0161,1.1597,-0.0610,-0.4272,1,468,0,27
72846712,809,-0.0352,-0.1548,1.0161,1.1597,-0.0610,-0.4272,1,466,0,27
72851714,810,-0.0347,-0.1528,1.0171,1.0986,-0.0610,-0.3052,1,466,0,27
72856713,811,-0.0352,-0.1504,1.0151,0.7324,-0.0610,-0.2441,1,466,0,27
72861721,812,-0.0356,-0.1509,1.0137,0.6714,0.0610,-0.1831,1,480,0,27
72866720,813,-0.0347,-0.1519,1.0151,0.7324,0.0000,-0.2441,1,482,0,27
72871720,814,-0.0347,-0.1519,1.0171,0.6714,0.0000,-0.2441,1,482,0,27
72876720,815,-0.0347,-0.1509,1.0176,0.4883,0.0610,-0.0610,1,481,0,27
72883666,816,-0.0356,-0.1514,1.0156,0.1221,0.1831,0.0000,1,483,0,27
72886712,817,-0.0356,-0.1514,1.0156,0.1221,0.1831,0.0000,1,467,0,27
72893677,818,-0.0366,-0.1543,1.0122,0.0610,0.2441,0.1831,1,483,0,27
72899711,819,-0.0356,-0.1543,1.0107,0.1831,0.3052,0.0610,1,466,0,27
72905692,820,-0.0356,-0.1533,1.0088,0.0610,0.3052,0.1221,1,481,0,27
72910054,821,-0.0356,-0.1528,1.0103,0.0000,0.5493,0.0000,1,465,0,27
72915702,822,-0.0352,-0.1548,1.0127,0.0610,0.4272,0.0000,1,473,0,27
72916984,823,-0.0352,-0.1548,1.0127,0.0610,0.4272,0.0000,1,467,0,27
72927695,824,-0.0342,-0.1533,1.0171,0.1221,0.6714,-0.0610,1,477,0,28
72933063,825,-0.0337,-0.1533,1.0156,0.2441,0.7324,-0.0610,1,465,0,28
72936715,826,-0.0337,-0.1533,1.0156,0.2441,0.7324,-0.0610,1,466,0,28
72942096,827,-0.0352,-0.1528,1.0186,0.0000,0.7935,0.1221,1,484,0,28
72947346,828,-0.0352,-0.1523,1.0186,-0.1831,0.7324,0.0000,1,481,0,28
72951717,829,-0.0352,-0.1523,1.0186,-0.1831,0.7324,0.0000,1,482,0,28
72957049,830,-0.0361,-0.1523,1.0156,-0.3662,0.6714,0.0000,1,465,0,28
72962697,831,-0.0371,-0.1514,1.0112,-0.4883,0.7935,0.0000,1,477,0,28
72968035,832,-0.0381,-0.1528,1.0073,-0.6104,0.7324,-0.0610,1,471,0,28
72971714,833,-0.0381,-0.1558,1.0068,-0.5493,0.7324,-0.0610,1,466,0,28
72976720,834,-0.0376,-0.1572,1.0088,-0.3662,0.6714,0.0610,1,482,0,28
72982685,835,-0.0371,-0.1572,1.0107,-0.3052,0.4883,0.0000,1,484,0,28
72987018,836,-0.0376,-0.1562,1.0098,-0.1221,0.3662,-0.0610,1,484,0,28
72993681,837,-0.0396,-0.1543,1.0059,-0.1221,0.3662,0.0000,1,483,0,28
72999012,838,-0.0400,-0.1548,1.0044,-0.0610,0.3052,-0.1221,1,494,0,28
73004690,839,-0.0396,-0.1567,1.0068,0.3052,0.1221,-0.1831,1,482,0,28
73007038,840,-0.0391,-0.1567,1.0103,0.3052,0.0610,-0.2441,1,467,0,28
73012684,841,-0.0386,-0.1538,1.0107,0.3662,0.1221,-0.2441,1,483,0,28
73018696,842,-0.0386,-0.1519,1.0107,0.4272,0.1831,-0.2441,1,477,0,28
73021718,843,-0.0381,-0.1523,1.0112,0.3662,0.0610,-0.1831,1,481,0,28
73026712,844,-0.0376,-0.1538,1.0122,0.4272,-0.0610,-0.2441,1,466,0,28
73032705,845,-0.0381,-0.1538,1.0132,0.4883,0.0000,-0.2441,1,469,0,28
73039671,846,-0.0391,-0.1548,1.0132,0.4272,0.0000,-0.3052,1,483,0,28
73041948,847,-0.0376,-0.1548,1.0132,0.4883,-0.1831,-0.2441,1,472,0,28
73046715,848,-0.0356,-0.1528,1.0132,0.6104,-0.1221,-0.1831,1,467,0,28
73051712,849,-0.0356,-0.1509,1.0117,0.5493,0.0610,-0.2441,1,466,0,28
73058685,850,-0.0352,-0.1509,1.0112,0.4883,0.0610,-0.3052,1,517,0,28
73064686,851,-0.0347,-0.1523,1.0122,0.4272,0.1831,-0.1831,1,483,0,28
73069994,852,-0.0342,-0.1543,1.0132,0.4883,0.2441,-0.1831,1,483,0,28
73075702,853,-0.0352,-0.1558,1.0151,0.4883,0.2441,-0.1221,1,473,0,28
73079058,854,-0.0352,-0.1558,1.0151,0.4883,0.2441,-0.1221,1,465,0,28
73084706,855,-0.0361,-0.1533,1.0142,0.4883,0.0610,-0.2441,1,469,0,28
73086963,856,-0.0366,-0.1504,1.0122,0.4272,0.1831,-0.1221,1,467,0,28
73092702,857,-0.0381,-0.1509,1.0098,0.2441,0.3052,-0.1831,1,473,0,28
73098682,858,-0.0386,-0.1553,1.0088,0.2441,0.3052,-0.1221,1,483,0,28
73101720,859,-0.0376,-0.1558,1.0112,0.4272,0.4272,-0.1221,1,480,0,28
73107685,860,-0.0371,-0.1533,1.0142,0.3662,0.4272,-0.2441,1,483,0,28
73112993,861,-0.0366,-0.1538,1.0142,0.3052,0.2441,-0.3052,1,483,0,28
73118704,862,-0.0366,-0.1523,1.0137,0.4883,0.3662,-0.1221,1,502,0,28
73121715,863,-0.0366,-0.1519,1.0137,0.2441,0.3052,-0.1831,1,466,0,28
73128689,864,-0.0352,-0.1538,1.0137,0.3052,0.2441,-0.1221,1,481,0,28
73135679,865,-0.0361,-0.1514,1.0137,0.2441,0.3052,-0.1831,1,483,0,28
73141069,866,-0.0366,-0.1528,1.0122,0.2441,0.2441,-0.2441,1,464,0,28
73146685,867,-0.0361,-0.1538,1.0117,0.3052,0.4272,-0.1221,1,484,0,28
73148036,868,-0.0361,-0.1538,1.0117,0.3052,0.4272,-0.1221,1,468,0,28
73158433,869,-0.0415,-0.1523,1.0059,0.3052,0.0610,-0.3052,1,489,0,29
73161712,870,-0.0444,-0.1528,1.0029,0.2441,-0.4272,-0.3052,1,466,0,29
73168667,871,-0.0356,-0.1538,1.0112,0.5493,-0.6714,-0.3662,1,483,0,29
73172045,872,-0.0356,-0.1538,1.0112,0.5493,-0.6714,-0.3662,1,465,0,29
73176713,873,-0.0298,-0.1538,1.0166,0.4272,-0.0610,-0.3052,1,467,0,29
73181718,874,-0.0327,-0.1543,1.0161,0.5493,0.1831,-0.1831,1,482,0,29
73187703,875,-0.0366,-0.1528,1.0137,0.4883,0.1831,-0.2441,1,471,0,29
73194668,876,-0.0386,-0.1538,1.0122,0.5493,-0.0610,-0.2441,1,484,0,29
73200701,877,-0.0366,-0.1523,1.0142,0.6104,-0.1221,-0.1831,1,473,0,29
73203050,878,-0.0356,-0.1499,1.0156,0.5493,-0.1221,-0.1831,1,464,0,29
73206715,879,-0.0356,-0.1499,1.0156,0.5493,-0.1221,-0.1831,1,467,0,29
73211718,880,-0.0352,-0.1489,1.0161,0.3662,-0.2441,-0.1831,1,481,0,29
73217699,881,-0.0356,-0.1499,1.0156,0.2441,-0.3052,-0.2441,1,475,0,29
73224667,882,-0.0356,-0.1519,1.0142,0.0610,-0.3662,-0.3662,1,483,0,29
73230700,883,-0.0352,-0.1523,1.0132,0.1221,-0.3052,-0.3662,1,474,0,29
73234057,884,-0.0361,-0.1519,1.0117,0.0610,-0.2441,-0.3052,1,465,0,29
73237417,885,-0.0361,-0.1519,1.0117,0.0610,-0.2441,-0.3052,1,482,0,29
73241714,886,-0.0366,-0.1519,1.0112,0.0000,-0.2441,-0.2441,1,466,0,29
73246716,887,-0.0356,-0.1533,1.0122,0.1221,0.0000,-0.3052,1,481,0,29
73252703,888,-0.0342,-0.1514,1.0186,0.2441,0.0610,-0.4272,1,471,0,29
73258686,889,-0.0332,-0.1499,1.0195,0.1831,0.1221,-0.3662,1,483,0,29
73265683,890,-0.0342,-0.1499,1.0176,0.0610,0.1221,-0.4272,1,484,0,29
73267022,891,-0.0342,-0.1499,1.0176,0.0610,0.1221,-0.4272,1,482,0,29
73277697,892,-0.0356,-0.1528,1.0151,-0.0610,0.2441,-0.2441,1,476,0,30
73284664,893,-0.0361,-0.1523,1.0142,-0.1221,0.3662,-0.3052,1,483,0,30
73290697,894,-0.0366,-0.1514,1.0127,-0.1221,0.4272,-0.2441,1,476,0,30
73294053,895,-0.0366,-0.1528,1.0112,-0.1221,0.3662,-0.3052,1,465,0,30
73299701,896,-0.0361,-0.1543,1.0117,-0.1831,0.3662,-0.1831,1,471,0,30
73306668,897,-0.0356,-0.1533,1.0146,0.3052,0.3052,-0.1221,1,483,0,30
73312700,898,-0.0366,-0.1543,1.0127,0.3662,0.3052,-0.2441,1,473,0,31
73318071,899,-0.0376,-0.1548,1.0122,0.3052,0.3052,-0.2441,1,465,0,31
73323442,900,-0.0376,-0.1543,1.0122,0.0000,0.2441,-0.3052,1,475,0,31
73326715,901,-0.0371,-0.1523,1.0127,0.3052,0.0610,-0.3052,1,481,0,31
73333675,902,-0.0366,-0.1509,1.0127,0.2441,0.0610,-0.3052,1,484,0,31
73340665,903,-0.0366,-0.1514,1.0122,-0.0610,0.1831,-0.3052,1,483,0,31
73346696,904,-0.0356,-0.1504,1.0137,0.0610,0.2441,-0.2441,1,477,0,31
73350051,905,-0.0356,-0.1504,1.0137,0.0610,0.2441,-0.2441,1,465,0,31
73355699,906,-0.0352,-0.1504,1.0166,-0.1831,0.3052,-0.3052,1,474,0,31
73361073,907,-0.0347,-0.1514,1.0146,-0.1221,0.1221,-0.3052,1,484,0,31
73366685,908,-0.0347,-0.1523,1.0132,-0.1831,0.3052,-0.1831,1,483,0,31
73368035,909,-0.0347,-0.1523,1.0132,-0.1831,0.3052,-0.1831,1,468,0,31
73371720,910,-0.0352,-0.1533,1.0132,-0.2441,0.3052,-0.1221,1,478,0,31
73376712,911,-0.0356,-0.1523,1.0127,-0.1221,0.3052,-0.2441,1,466,0,31
73381718,912,-0.0356,-0.1519,1.0117,-0.1221,0.4272,-0.1221,1,480,0,31
73387682,913,-0.0361,-0.1523,1.0112,-0.1221,0.4883,-0.2441,1,483,0,31
73393695,914,-0.0361,-0.1528,1.0117,-0.1221,0.6104,-0.3052,1,478,0,31
73400661,915,-0.0361,-0.1528,1.0137,0.1221,0.4883,-0.1221,1,483,0,31
73401999,916,-0.0361,-0.1528,1.0137,0.1221,0.4883,-0.1221,1,483,0,31
73411393,917,-0.0356,-0.1523,1.0151,0.0610,0.5493,-0.1221,1,495,0,31
73412770,918,-0.0356,-0.1523,1.0151,0.0610,0.5493,-0.1221,1,473,0,31
73419675,919,-0.0366,-0.1519,1.0146,-0.0610,0.6104,-0.1831,1,483,0,31
73423050,920,-0.0371,-0.1514,1.0127,-0.2441,0.7324,-0.1831,1,465,0,31
73426714,921,-0.0361,-0.1509,1.0127,-0.1831,0.5493,-0.1831,1,467,0,31
73431712,922,-0.0347,-0.1519,1.0151,-0.1221,0.6104,-0.1221,1,467,0,31
73438686,923,-0.0352,-0.1523,1.0146,-0.1831,0.6714,-0.1221,1,484,0,31
73444076,924,-0.0361,-0.1523,1.0112,-0.2441,0.6104,-0.2441,1,483,0,31
73446719,925,-0.0376,-0.1533,1.0098,-0.3052,0.4883,-0.1221,1,481,0,31
73453669,926,-0.0376,-0.1548,1.0112,-0.1221,0.3662,-0.1831,1,483,0,31
73459059,927,-0.0356,-0.1553,1.0137,-0.1221,0.4272,-0.2441,1,465,0,31
73461712,928,-0.0342,-0.1548,1.0156,-0.1831,0.5493,-0.1831,1,467,0,31
73467699,929,-0.0347,-0.1533,1.0151,0.0000,0.6714,-0.2441,1,473,0,31
73474665,930,-0.0381,-0.1523,1.0132,-0.0610,0.6104,-0.2441,1,483,0,31
73480701,931,-0.0381,-0.1528,1.0132,0.0000,0.5493,-0.2441,1,471,0,31
73481986,932,-0.0381,-0.1528,1.0132,0.0000,0.5493,-0.2441,1,484,0,31
73491256,933,-0.0371,-0.1528,1.0117,-0.0610,0.6104,-0.1221,1,486,0,31
73494521,934,-0.0371,-0.1533,1.0122,-0.1221,0.5493,-0.2441,1,496,0,31
73500689,935,-0.0371,-0.1543,1.0122,-0.2441,0.6104,-0.1831,1,479,0,31
73502031,936,-0.0371,-0.1543,1.0122,-0.2441,0.6104,-0.1831,1,471,0,31
73512682,937,-0.0386,-0.1533,1.0103,-0.1221,0.5493,-0.0610,1,483,0,32
73519680,938,-0.0400,-0.1543,1.0068,-0.1221,0.3662,-0.1831,1,483,0,32
73525683,939,-0.0391,-0.1533,1.0093,0.0000,0.1831,-0.1831,1,483,0,32
73529005,940,-0.0376,-0.1533,1.0112,0.0610,0.1831,-0.1221,1,484,0,32
73534751,941,-0.0366,-0.1533,1.0127,-0.0610,0.2441,-0.1831,1,468,0,32
73537099,942,-0.0366,-0.1533,1.0127,-0.0610,0.2441,-0.1831,1,483,0,32
73542680,943,-0.0376,-0.1523,1.0132,-0.1221,0.3662,0.0000,1,483,0,32
73546715,944,-0.0391,-0.1514,1.0112,-0.1221,0.1221,0.0000,1,481,0,32
73553674,945,-0.0376,-0.1514,1.0117,-0.2441,0.0610,-0.1221,1,484,0,32
73560662,946,-0.0361,-0.1533,1.0127,-0.1221,0.1831,-0.1831,1,483,0,32
73566696,947,-0.0356,-0.1543,1.0137,0.0000,0.0610,-0.1221,1,476,0,32
73567980,948,-0.0356,-0.1548,1.0137,0.0000,0.0610,-0.1221,1,467,0,32
73578691,949,-0.0361,-0.1533,1.0132,0.0000,0.2441,-0.1221,1,478,0,33
73583021,950,-0.0361,-0.1533,1.0142,-0.0610,0.3052,-0.3052,1,480,0,33
73586712,951,-0.0361,-0.1533,1.0142,-0.0610,0.3052,-0.3052,1,466,0,33
73592699,952,-0.0361,-0.1543,1.0127,0.1221,0.3052,-0.1831,1,472,0,33
73596719,953,-0.0361,-0.1543,1.0127,0.1221,0.3052,-0.1831,1,478,0,33
73601716,954,-0.0371,-0.1538,1.0117,0.2441,0.4272,-0.2441,1,482,0,33
73606712,955,-0.0371,-0.1543,1.0122,0.1831,0.1831,-0.1221,1,466,0,33
73611717,956,-0.0366,-0.1538,1.0137,0.3052,0.2441,-0.2441,1,480,0,33
73618676,957,-0.0371,-0.1533,1.0151,0.1831,0.3662,-0.2441,1,483,0,33
73621720,958,-0.0381,-0.1519,1.0151,0.2441,0.3052,-0.3052,1,476,0,33
73627702,959,-0.0386,-0.1519,1.0122,0.1831,0.1221,-0.3052,1,470,0,33
73632064,960,-0.0376,-0.1528,1.0107,0.1831,0.1221,-0.1831,1,465,0,33
73636712,961,-0.0371,-0.1523,1.0112,0.2441,0.1221,-0.1831,1,467,0,33
73641715,962,-0.0376,-0.1514,1.0122,-0.0610,0.1831,-0.2441,1,482,0,33
73648674,963,-0.0376,-0.1519,1.0117,-0.1221,0.1831,-0.1831,1,483,0,33
73654679,964,-0.0371,-0.1523,1.0122,0.0610,0.1221,-0.1221,1,483,0,33
73660762,965,-0.0371,-0.1523,1.0127,0.0610,0.0610,-0.1221,1,480,0,33
73666701,966,-0.0381,-0.1533,1.0122,0.0610,0.1831,-0.0610,1,470,0,33
73670056,967,-0.0381,-0.1533,1.0122,0.0610,0.1831,-0.0610,1,465,0,33
73675703,968,-0.0381,-0.1543,1.0122,0.0000,0.3052,-0.1221,1,468,0,33
73677994,969,-0.0366,-0.1538,1.0137,-0.1831,0.1831,-0.1831,1,484,0,33
73681716,970,-0.0352,-0.1533,1.0137,-0.0610,0.2441,-0.1221,1,480,0,33
73686717,971,-0.0361,-0.1538,1.0132,0.1221,0.1831,-0.0610,1,480,0,33
73692090,972,-0.0376,-0.1543,1.0127,0.1221,0.0610,-0.0610,1,484,0,33
73697676,973,-0.0376,-0.1548,1.0127,0.0610,0.0610,-0.1831,1,483,0,33
73704676,974,-0.0366,-0.1528,1.0146,0.1221,0.1831,-0.1221,1,483,0,33
73710678,975,-0.0352,-0.1519,1.0132,0.0000,0.1221,-0.2441,1,483,0,33
73716689,976,-0.0371,-0.1514,1.0117,0.0000,0.2441,-0.1221,1,479,0,33
73722703,977,-0.0381,-0.1519,1.0112,-0.1221,0.3052,-0.2441,1,468,0,34
73727062,978,-0.0376,-0.1533,1.0107,-0.0610,0.1831,-0.1221,1,465,0,34
73732682,979,-0.0371,-0.1538,1.0107,0.0610,0.0000,-0.1221,1,483,0,34
73736716,980,-0.0376,-0.1533,1.0117,0.1831,-0.0610,-0.0610,1,480,0,34
73741718,981,-0.0371,-0.1533,1.0122,0.0610,0.1221,-0.1221,1,478,0,34
73746715,982,-0.0361,-0.1533,1.0132,0.0610,0.0610,-0.2441,1,482,0,34
73751718,983,-0.0356,-0.1538,1.0146,0.1221,0.0610,-0.1831,1,478,0,34
73757092,984,-0.0361,-0.1533,1.0142,0.1831,0.0610,-0.1221,1,483,0,34
73761715,985,-0.0361,-0.1528,1.0132,0.0610,0.0610,-0.1831,1,482,0,34
73768667,986,-0.0371,-0.1523,1.0127,0.0610,0.1221,-0.1221,1,483,0,34
73774770,987,-0.0366,-0.1533,1.0137,0.2441,0.0610,-0.3052,1,471,0,34
73780753,988,-0.0361,-0.1543,1.0127,0.0610,0.1221,-0.1221,1,467,0,34
73785016,989,-0.0361,-0.1543,1.0127,0.3052,0.0610,-0.2441,1,484,0,34
73791678,990,-0.0371,-0.1523,1.0127,0.3052,0.1831,-0.1831,1,483,0,34
73797070,991,-0.0381,-0.1514,1.0132,0.2441,0.1831,-0.1221,1,483,0,35
73802686,992,-0.0371,-0.1519,1.0137,0.3052,0.1221,-0.1831,1,482,0,35
73806716,993,-0.0361,-0.1533,1.0132,0.1221,0.1221,-0.0610,1,481,0,35
73811718,994,-0.0352,-0.1533,1.0132,0.1831,0.1831,-0.1831,1,479,0,35
73818658,995,-0.0356,-0.1499,1.0137,-0.0610,0.2441,-0.0610,1,483,0,35
73823040,996,-0.0356,-0.1499,1.0137,-0.0610,0.2441,-0.0610,1,465,0,35
73826718,997,-0.0371,-0.1514,1.0146,0.0610,0.3662,-0.1221,1,478,0,35
73833671,998,-0.0361,-0.1514,1.0166,-0.1831,0.4272,0.0000,1,483,0,35
73840661,999,-0.0347,-0.1509,1.0151,-0.1831,0.3052,0.0610,1,483,0,35
73841996,1000,-0.0347,-0.1509,1.0151,-0.1831,0.3052,0.0610,1,484,0,35
73852403,1001,-0.0361,-0.1533,1.0127,-0.1831,0.5493,0.0610,1,489,0,36
73856716,1002,-0.0376,-0.1538,1.0122,-0.0610,0.6104,0.0000,1,480,0,36
73861717,1003,-0.0381,-0.1538,1.0132,-0.1221,0.4883,-0.1221,1,479,0,36
73866716,1004,-0.0381,-0.1528,1.0137,-0.3662,0.4883,-0.1221,1,479,0,36
73873679,1005,-0.0366,-0.1528,1.0132,-0.1221,0.5493,0.0610,1,483,0,36
73879750,1006,-0.0376,-0.1538,1.0127,-0.1831,0.6104,0.0000,1,468,0,36
73885694,1007,-0.0391,-0.1543,1.0127,-0.1221,0.5493,0.0610,1,476,0,36
73891676,1008,-0.0391,-0.1543,1.0122,-0.1221,0.3662,0.0000,1,483,0,36
73897687,1009,-0.0366,-0.1538,1.0137,-0.0610,0.5493,-0.0610,1,480,0,37
73903702,1010,-0.0352,-0.1538,1.0151,0.0000,0.4272,0.0000,1,467,0,37
73906715,1011,-0.0352,-0.1538,1.0151,0.0000,0.4272,0.0000,1,480,0,37
73911718,1012,-0.0352,-0.1533,1.0146,-0.0610,0.5493,0.1221,1,477,0,37
73916717,1013,-0.0366,-0.1523,1.0127,-0.1221,0.5493,0.0610,1,479,0,37
73923666,1014,-0.0356,-0.1514,1.0176,-0.2441,0.6714,0.0000,1,484,0,37
73930654,1015,-0.0347,-0.1519,1.0190,-0.3662,0.6104,0.1221,1,483,0,37
73931996,1016,-0.0356,-0.1538,1.0171,-0.3662,0.7935,0.1221,1,484,0,37
73940379,1017,-0.0366,-0.1548,1.0156,-0.4883,0.7935,0.1221,1,495,0,37
73942761,1018,-0.0361,-0.1538,1.0146,-0.3662,0.8545,0.0610,1,479,0,37
73949667,1019,-0.0352,-0.1523,1.0146,-0.3662,0.9766,0.0610,1,483,0,37
73955700,1020,-0.0352,-0.1533,1.0151,-0.4272,1.0986,0.1221,1,470,0,37
73957957,1021,-0.0347,-0.1543,1.0146,-0.4883,1.1597,0.1221,1,467,0,37
73961717,1022,-0.0347,-0.1528,1.0142,-0.6104,1.2207,0.2441,1,478,0,37
73972701,1023,-0.0376,-0.1528,1.0142,-0.7935,1.5259,0.3662,1,468,0,38
73976720,1024,-0.0391,-0.1543,1.0132,-0.7324,1.5259,0.4272,1,475,0,38
73982679,1025,-0.0405,-0.1553,1.0122,-0.6104,1.4648,0.4272,1,484,0,38
73988691,1026,-0.0400,-0.1558,1.0112,-0.5493,1.4038,0.3052,1,478,0,38
73991712,1027,-0.0381,-0.1558,1.0117,-0.4883,1.4038,0.3662,1,481,0,38
73996713,1028,-0.0356,-0.1538,1.0161,-0.3662,1.4648,0.4272,1,482,0,38
74002697,1029,-0.0342,-0.1523,1.0186,-0.4883,1.6479,0.3662,1,471,0,38
74008068,1030,-0.0381,-0.1523,1.0137,-0.5493,1.7700,0.2441,1,465,0,38
74011719,1031,-0.0410,-0.1528,1.0107,-0.4883,1.5259,0.2441,1,475,0,38
74017682,1032,-0.0381,-0.1533,1.0137,-0.5493,1.5259,0.3052,1,484,0,38
74023694,1033,-0.0366,-0.1538,1.0151,-0.5493,1.7700,0.4272,1,474,0,38
74026713,1034,-0.0376,-0.1533,1.0151,-0.5493,1.5869,0.4272,1,482,0,38
74031713,1035,-0.0381,-0.1519,1.0156,-0.6714,1.7700,0.4883,1,481,0,38
74036720,1036,-0.0391,-0.1504,1.0151,-0.7324,1.8311,0.4272,1,474,0,38
74042677,1037,-0.0396,-0.1523,1.0137,-0.8545,1.6479,0.4272,1,483,0,38
74046717,1038,-0.0396,-0.1553,1.0117,-0.7935,1.7090,0.4272,1,478,0,38
74052685,1039,-0.0396,-0.1558,1.0117,-0.5493,1.7700,0.4272,1,481,0,38
74059681,1040,-0.0396,-0.1558,1.0132,-0.4272,1.8311,0.4272,1,484,0,38
74065688,1041,-0.0396,-0.1553,1.0151,-0.6104,1.7090,0.4883,1,477,0,38
74067027,1042,-0.0396,-0.1553,1.0151,-0.6104,1.7090,0.4883,1,472,0,38
74073343,1043,-0.0386,-0.1558,1.0142,-0.7935,1.9531,0.4883,1,5495,0,38
74080789,1044,-0.0396,-0.1567,1.0117,-0.6104,1.8311,0.4883,1,471,0,38
74086682,1045,-0.0410,-0.1567,1.0112,-0.3052,1.8311,0.4272,1,484,0,38
74092693,1046,-0.0430,-0.1562,1.0117,-0.2441,1.7700,0.4272,1,475,0,39
74096713,1047,-0.0439,-0.1582,1.0112,-0.4272,1.7700,0.6104,1,482,0,39
74101719,1048,-0.0435,-0.1602,1.0088,-0.1831,1.5259,0.6714,1,475,0,39
74108663,1049,-0.0430,-0.1587,1.0073,0.1221,1.4648,0.6714,1,483,0,39
74114697,1050,-0.0420,-0.1538,1.0073,0.0000,1.4038,0.7324,1,471,0,39
74120677,1051,-0.0430,-0.1543,1.0083,0.2441,1.4038,0.7935,1,483,0,39
74122026,1052,-0.0430,-0.1543,1.0083,0.2441,1.4038,0.7935,1,473,0,39
74132426,1053,-0.0430,-0.1567,1.0088,0.2441,1.2817,0.7935,1,485,0,40
74137675,1054,-0.0410,-0.1582,1.0093,0.4272,1.5259,0.8545,1,483,0,40
74144675,1055,-0.0405,-0.1558,1.0107,0.6714,1.5259,0.9766,1,483,0,40
74150678,1056,-0.0410,-0.1548,1.0117,0.6104,1.4038,0.7935,1,483,0,40
74152026,1057,-0.0410,-0.1548,1.0117,0.6104,1.4038,0.7935,1,472,0,40
74156720,1058,-0.0410,-0.1562,1.0127,0.6104,1.3428,0.9155,1,474,0,40
74164105,1059,-0.0425,-0.1553,1.0117,0.7935,1.7090,1.0376,1,466,0,40
74169689,1060,-0.0439,-0.1572,1.0083,0.9766,1.5259,0.9766,1,478,0,40
74176656,1061,-0.0439,-0.1567,1.0088,0.9766,1.4038,0.9155,1,483,0,40
74182688,1062,-0.0430,-0.1528,1.0107,1.1597,1.4038,0.9766,1,478,0,41
74189655,1063,-0.0420,-0.1538,1.0127,1.0376,1.1597,0.7935,1,483,0,41
74195690,1064,-0.0430,-0.1577,1.0107,1.2207,1.2207,0.8545,1,477,0,41
74198038,1065,-0.0439,-0.1606,1.0088,1.3428,1.0986,0.7324,1,465,0,41
74203687,1066,-0.0430,-0.1602,1.0063,1.5869,1.0376,0.7935,1,477,0,41
74210651,1067,-0.0459,-0.1558,1.0049,2.0142,1.2207,0.6104,1,483,0,41
74211992,1068,-0.0459,-0.1558,1.0049,2.0142,1.2207,0.6104,1,484,0,41
74222391,1069,-0.0415,-0.1504,1.0146,1.8311,0.8545,0.3662,1,494,0,42
74226785,1070,-0.0415,-0.1504,1.0146,1.8311,0.8545,0.3662,1,475,0,42
74232676,1071,-0.0400,-0.1494,1.0122,1.6479,0.9766,0.4883,1,483,0,42
74238755,1072,-0.0449,-0.1509,1.0029,1.3428,0.9155,0.3662,1,484,0,42
74244768,1073,-0.0479,-0.1519,1.0024,1.4648,0.5493,0.3662,1,469,0,42
74248134,1074,-0.0439,-0.1470,1.0151,1.4038,0.4272,0.1831,1,466,0,42
74252514,1075,-0.0376,-0.1411,1.0249,0.9766,0.5493,0.3052,1,496,0,42
74260759,1076,-0.0366,-0.1406,1.0225,0.4883,0.8545,0.4272,1,479,0,42
74266675,1077,-0.0444,-0.1499,1.0059,0.1831,0.9155,0.4883,1,483,0,42
74268020,1078,-0.0444,-0.1499,1.0059,0.1831,0.9155,0.4883,1,478,0,42
74271717,1079,-0.0435,-0.1499,1.0049,0.3662,1.0986,0.5493,1,477,0,42
74277691,1080,-0.0425,-0.1499,1.0054,0.1831,1.6479,0.6104,1,476,0,42
74281719,1081,-0.0449,-0.1489,1.0034,0.3052,1.7700,0.6104,1,475,0,42
74287699,1082,-0.0444,-0.1494,1.0005,0.4272,1.8311,0.6104,1,469,0,42
74293068,1083,-0.0430,-0.1484,1.0000,0.5493,2.5635,0.6104,1,484,0,42
74298685,1084,-0.0459,-0.1450,0.9995,0.6714,2.6855,0.6104,1,479,0,42
74301718,1085,-0.0498,-0.1460,0.9976,0.3662,2.4414,0.7935,1,475,0,42
74308674,1086,-0.0488,-0.1484,0.9980,0.5493,2.3193,0.7324,1,483,0,42
74313057,1087,-0.0444,-0.1499,0.9995,0.5493,2.8076,0.6104,1,465,0,42
74316713,1088,-0.0435,-0.1509,0.9990,0.7935,3.1738,0.6714,1,480,0,42
74321713,1089,-0.0444,-0.1499,0.9956,1.0376,3.5400,0.6104,1,480,0,42
74326717,1090,-0.0459,-0.1460,0.9937,1.1597,3.9673,0.6104,1,475,0,42
74332682,1091,-0.0454,-0.1440,0.9980,1.0376,4.3945,0.6104,1,481,0,42
74339678,1092,-0.0430,-0.1465,1.0044,1.2207,4.7607,0.7324,1,484,0,42
74345683,1093,-0.0366,-0.1592,1.0132,1.5259,5.9204,0.9766,1,480,0,42
74347029,1094,-0.0366,-0.1592,1.0132,1.5259,5.9204,0.9766,1,468,0,42
74353373,1095,-0.0342,-0.1621,1.0107,1.8921,6.7749,1.0986,1,5501,0,42
74359753,1096,-0.0352,-0.1626,1.0059,2.2583,7.5073,1.2817,1,484,0,42
74361715,1097,-0.0405,-0.1606,1.0034,2.6245,8.1177,1.5869,1,478,0,42
74367685,1098,-0.0459,-0.1577,1.0039,2.9907,7.9956,1.8921,1,479,0,42
74374651,1099,-0.0415,-0.1616,1.0107,2.9907,8.2397,2.1362,1,483,0,42
74380686,1100,-0.0581,-0.1675,0.9985,4.5776,9.4604,2.2583,1,478,0,42
74386084,1101,-0.0767,-0.1621,0.9878,4.9438,8.2397,2.0752,1,484,0,42
74391488,1102,-0.0820,-0.1533,0.9907,5.4321,7.2021,1.7090,1,495,0,42
74392808,1103,-0.0820,-0.1533,0.9907,5.4321,7.2021,1.7090,1,472,0,42
74396720,1104,-0.0742,-0.1445,1.0044,5.4321,6.4697,1.2817,1,473,0,42
74402015,1105,-0.0649,-0.1411,1.0171,5.3101,5.9814,0.8545,1,481,0,42
74408678,1106,-0.0645,-0.1426,1.0205,5.4321,5.6152,0.2441,1,484,0,42
74414681,1107,-0.0684,-0.1470,1.0122,5.6152,3.6621,-0.5493,1,482,0,42
74421681,1108,-0.0654,-0.1484,1.0122,5.4932,3.0518,-0.9155,1,481,0,42
74427682,1109,-0.0610,-0.1460,1.0161,5.5542,2.4414,-0.9766,1,482,0,43
74431712,1110,-0.0591,-0.1377,1.0210,5.1880,1.8311,-1.1597,1,480,0,43
74436712,1111,-0.0630,-0.1328,1.0215,4.6387,1.2817,-1.1597,1,480,0,43
74441718,1112,-0.0703,-0.1372,1.0161,4.0894,0.6714,-1.2207,1,473,0,43
74446716,1113,-0.0757,-0.1416,1.0093,3.9062,-0.3052,-1.1597,1,476,0,43
74452676,1114,-0.0781,-0.1362,1.0078,3.7842,-1.2207,-1.2817,1,483,0,43
74459673,1115,-0.0703,-0.1182,1.0161,2.3804,-3.3569,-1.0986,1,483,0,43
74465064,1116,-0.0664,-0.1162,1.0195,1.2207,-4.3335,-1.0376,1,465,0,43
74471668,1117,-0.0635,-0.1211,1.0225,0.1831,-5.1270,-0.8545,1,483,0,43
74477701,1118,-0.0625,-0.1289,1.0220,-0.6104,-5.9814,-0.7935,1,466,0,44
74481719,1119,-0.0586,-0.1396,1.0244,-1.3428,-6.8359,-0.7324,1,473,0,44
74486719,1120,-0.0513,-0.1499,1.0269,-1.2817,-7.1411,-0.6104,1,473,0,44
74492684,1121,-0.0459,-0.1533,1.0254,-1.4648,-7.0801,-0.6104,1,479,0,44
74499651,1122,-0.0483,-0.1489,1.0186,-1.0376,-7.0801,-0.7324,1,483,0,44
74502026,1123,-0.0483,-0.1489,1.0186,-1.0376,-7.0801,-0.7324,1,471,0,44
74506717,1124,-0.0518,-0.1470,1.0137,-0.9766,-7.5684,-0.8545,1,475,0,44
74512675,1125,-0.0498,-0.1489,1.0122,-0.9766,-7.5684,-0.7935,1,483,0,44
74518685,1126,-0.0444,-0.1548,1.0122,-0.1221,-7.3853,-0.9155,1,478,0,44
74521719,1127,-0.0444,-0.1548,1.0122,-0.1221,-7.3853,-0.9155,1,473,0,44
74527687,1128,-0.0415,-0.1509,1.0156,0.6714,-6.7139,-1.2207,1,478,0,44
74531718,1129,-0.0415,-0.1509,1.0156,0.6714,-6.7139,-1.2207,1,473,0,44
74536719,1130,-0.0435,-0.1484,1.0137,0.8545,-6.4697,-1.3428,1,473,0,44
74542673,1131,-0.0405,-0.1416,1.0161,1.0986,-6.3477,-1.5259,1,483,0,44
74548683,1132,-0.0371,-0.1416,1.0181,1.1597,-5.9204,-1.5259,1,479,0,44
74555650,1133,-0.0381,-0.1431,1.0156,1.2207,-5.4321,-1.3428,1,484,0,44
74561200,1134,-0.0400,-0.1450,1.0132,1.0376,-5.2490,-1.4038,1,490,0,44
74563461,1135,-0.0400,-0.1450,1.0132,1.4038,-5.1270,-1.4038,1,490,0,44
74566716,1136,-0.0400,-0.1450,1.0132,1.4038,-5.1270,-1.4038,1,475,0,44
74573038,1137,-0.0508,-0.1396,1.0078,0.7324,-5.0659,-1.8921,1,465,0,44
74580391,1138,-0.0557,-0.1392,1.0039,0.7935,-5.7983,-1.8921,1,495,0,44
74584785,1139,-0.0547,-0.1392,1.0020,0.5493,-6.0425,-2.2583,1,472,0,44
74590186,1140,-0.0503,-0.1421,1.0029,0.0610,-6.3477,-2.3193,1,494,0,44
74596665,1141,-0.0449,-0.1421,1.0068,1.3428,-6.4087,-2.0142,1,483,0,44
74598004,1142,-0.0449,-0.1421,1.0068,1.3428,-6.4087,-2.0142,1,484,0,44
74607396,1143,-0.0420,-0.1353,1.0122,1.5869,-6.0425,-1.8311,1,488,0,45
74612678,1144,-0.0381,-0.1377,1.0171,2.0142,-5.6763,-1.8311,1,483,0,45
74616716,1145,-0.0322,-0.1411,1.0215,2.1362,-5.3101,-1.8921,1,475,0,45
74622688,1146,-0.0327,-0.1421,1.0210,2.6245,-4.6997,-1.8921,1,477,0,45
74629656,1147,-0.0400,-0.1387,1.0156,3.0518,-4.5166,-2.3804,1,483,0,45
74634038,1148,-0.0459,-0.1343,1.0117,2.5024,-4.6387,-2.8687,1,465,0,45
74638311,1149,-0.0454,-0.1323,1.0117,2.5635,-4.8828,-3.2959,1,491,0,45
74643686,1150,-0.0391,-0.1348,1.0132,2.3193,-4.8828,-3.4790,1,477,0,45
74649695,1151,-0.0317,-0.1421,1.0146,2.6245,-4.6387,-3.3569,1,470,0,45
74652044,1152,-0.0332,-0.1489,1.0103,3.2349,-4.2114,-3.3569,1,465,0,45
74658677,1153,-0.0396,-0.1499,1.0049,3.6011,-4.6387,-3.3569,1,483,0,45
74664069,1154,-0.0420,-0.1436,1.0054,3.9062,-4.6997,-3.4180,1,483,0,45
74666714,1155,-0.0371,-0.1343,1.0117,3.9673,-4.6997,-3.3569,1,476,0,45
74671715,1156,-0.0327,-0.1313,1.0156,3.4790,-4.3945,-3.2959,1,477,0,45
74676713,1157,-0.0366,-0.1357,1.0151,3.1128,-4.6997,-3.1128,1,477,0,45
74681712,1158,-0.0435,-0.1387,1.0122,3.1738,-5.5542,-3.4180,1,479,0,45
74688675,1159,-0.0498,-0.1372,1.0088,3.1738,-6.4087,-3.9062,1,483,0,45
74694678,1160,-0.0527,-0.1338,1.0078,3.0518,-7.3853,-4.0894,1,483,0,45
74701675,1161,-0.0474,-0.1260,1.0083,2.5024,-9.0332,-4.2725,1,483,0,45
74706059,1162,-0.0469,-0.1270,1.0078,2.2583,-9.6436,-4.2725,1,465,0,45
74707408,1163,-0.0469,-0.1270,1.0078,2.2583,-9.6436,-4.2725,1,520,0,45
74711712,1164,-0.0444,-0.1299,1.0068,1.8921,-10.6812,-4.3335,1,478,0,45
74717108,1165,-0.0459,-0.1304,1.0039,1.8921,-10.9863,-4.3945,1,467,0,45
74722693,1166,-0.0420,-0.1309,1.0054,1.7090,-12.2681,-4.1504,1,471,0,45
74729660,1167,-0.0195,-0.1333,1.0215,1.5869,-11.7187,-3.6011,1,484,0,45
74736648,1168,-0.0205,-0.1357,1.0190,1.5259,-11.9629,-3.2959,1,483,0,45
74738012,1169,-0.0205,-0.1357,1.0190,1.5259,-11.9629,-3.2959,1,483,0,45
74742516,1170,-0.0361,-0.1318,1.0098,1.7090,-12.6343,-3.2959,1,497,0,45
74749648,1171,-0.0542,-0.1377,0.9995,1.8311,-15.6860,-4.2114,1,483,0,45
74756667,1172,-0.0449,-0.1411,1.0068,2.5024,-16.3574,-4.7607,1,483,0,45
74758038,1173,-0.0449,-0.1411,1.0068,2.5024,-16.3574,-4.7607,1,465,0,45
74761720,1174,-0.0381,-0.1382,1.0132,2.9297,-17.3340,-5.3711,1,470,0,45
74766716,1175,-0.0366,-0.1367,1.0122,3.3569,-18.0664,-5.8594,1,475,0,45
74773665,1176,-0.0322,-0.1406,1.0073,4.5166,-19.9585,-6.4087,1,483,0,45
74777043,1177,-0.0322,-0.1406,1.0073,4.5166,-19.9585,-6.4087,1,465,0,45
74782692,1178,-0.0239,-0.1455,1.0093,4.9438,-20.3247,-6.2866,1,473,0,45
74786714,1179,-0.0244,-0.1504,1.0063,5.7983,-20.5688,-6.2256,1,477,0,45
74792669,1180,-0.0317,-0.1528,0.9995,6.6528,-21.8506,-6.1035,1,483,0,45
74799669,1181,-0.0522,-0.1445,0.9907,8.1787,-25.0854,-6.0425,1,483,0,45
74804081,1182,-0.0488,-0.1372,0.9966,8.4839,-27.6489,-5.7373,1,483,0,45
74808415,1183,-0.0337,-0.1357,1.0088,8.4229,-29.2969,-5.7373,1,486,0,45
74811712,1184,-0.0337,-0.1357,1.0088,8.4229,-29.2969,-5.7373,1,477,0,45
74816716,1185,-0.0249,-0.1382,1.0122,8.7891,-30.5176,-6.1035,1,475,0,45
74822668,1186,-0.0264,-0.1392,1.0073,9.4604,-32.2266,-6.5918,1,483,0,45
74828681,1187,-0.0190,-0.1387,1.0088,10.4370,-35.4004,-6.6528,1,480,0,45
74835646,1188,-0.0142,-0.1377,1.0132,10.9253,-36.8042,-6.7749,1,483,0,45
74841682,1189,-0.0073,-0.1367,1.0146,11.2305,-38.5132,-7.0190,1,479,0,45
74843058,1190,-0.0015,-0.1357,1.0146,11.6577,-39.6729,-7.2632,1,465,0,45
74849405,1191,0.0054,-0.1309,1.0195,11.9019,-41.0156,-7.8735,1,5490,0,45
74857822,1192,0.0293,-0.1079,1.0381,11.5356,-41.8701,-8.1177,1,478,0,46
74861717,1193,0.0293,-0.1079,1.0381,11.5356,-41.8701,-8.1177,1,473,0,46
74869132,1194,0.0356,-0.1006,1.0396,10.0708,-41.9922,-8.0566,1,466,0,46
74874670,1195,0.0293,-0.1011,1.0405,9.2163,-42.7856,-7.7515,1,483,0,46
74880070,1196,0.0356,-0.1011,1.0454,8.3008,-43.7622,-7.1411,1,484,0,46
74881712,1197,0.0356,-0.1011,1.0454,8.3008,-43.7622,-7.1411,1,478,0,46
74887670,1198,0.0420,-0.0864,1.0566,5.7373,-43.8843,-5.8594,1,483,0,46
74894666,1199,0.0386,-0.0850,1.0552,4.0283,-45.1050,-5.3711,1,483,0,46
74899052,1200,0.0278,-0.0835,1.0493,2.5024,-45.7764,-6.0425,1,465,0,46
74903446,1201,-0.0181,-0.0737,1.0483,0.5493,-47.9126,-7.6294,1,477,0,46
74906717,1202,-0.0693,-0.0679,1.0522,-2.2583,-55.1758,-9.7046,1,472,0,46
74914097,1203,-0.1436,-0.0679,1.0625,-4.8218,-62.0728,-13.1836,1,483,0,46
74916713,1204,-0.2690,-0.0571,1.0938,-8.3618,-76.4160,-16.9678,1,477,0,46
74921720,1205,-0.3950,-0.0444,1.1484,-15.6250,-105.0415,-23.1323,1,469,0,46
74926715,1206,-0.5073,-0.0288,1.1992,-24.8413,-145.6299,-31.0059,1,475,0,46
74931718,1207,-0.6196,-0.0088,1.2368,-36.1938,-187.4389,-41.3208,1,472,0,46
74938673,1208,-0.6890,-0.0264,1.2676,-54.1382,-246.0937,-52.6733,1,483,0,46
74944676,1209,-0.7842,-0.0522,1.3052,-69.2139,-296.8750,-68.9087,1,484,0,46
74950687,1210,-0.9180,-0.0371,1.3701,-77.5757,-351.6235,-82.3364,1,476,0,46
74952088,1211,-1.0352,-0.0410,1.4634,-87.9517,-393.7988,-91.3086,1,483,0,46
74962557,1212,-0.8735,-0.0840,1.6328,-89.3555,-497.9248,-93.5669,1,466,0,47
74966716,1213,-0.6670,0.0327,1.6870,-91.4307,-539.7949,-99.3042,1,474,0,47
74971717,1214,-0.6235,0.1694,1.6641,-109.3140,-581.2988,-111.5723,1,472,0,47
74978686,1215,-0.6895,0.1821,1.5464,-135.2539,-607.6660,-121.2768,1,508,0,47
74981717,1216,-0.7354,0.0566,1.4175,-148.6816,-618.7134,-119.8730,1,472,0,47
74987676,1217,-0.6997,-0.0693,1.2563,-143.1274,-642.5170,-124.2676,1,483,0,47
74993152,1218,-0.6206,-0.1260,1.0156,-137.7563,-671.8749,-134.2163,1,466,0,47
74996719,1219,-0.5425,-0.2139,0.7817,-143.0664,-700.1953,-143.0054,1,470,0,47
75001713,1220,-0.5088,-0.3677,0.5942,-136.4136,-727.0507,-156.0669,1,475,0,47
75006715,1221,-0.4517,-0.5166,0.3687,-106.5063,-751.4037,-173.2788,1,475,0,47
75011712,1222,-0.3228,-0.6118,0.1440,-62.0728,-744.4457,-180.3589,1,477,0,47
75016716,1223,-0.2974,-0.4863,0.2773,-11.5356,-744.6288,-177.7344,1,472,0,47
75021714,1224,0.4468,-0.1362,1.2642,-3.2959,-849.7924,-158.8745,1,475,0,47
75026716,1225,3.7871,-1.0469,3.0181,-101.6235,-893.9208,-101.1963,1,473,0,47
75032197,1226,5.6787,-2.9644,5.1504,-193.1763,-295.0439,-125.7934,1,496,0,47
75037687,1227,3.2007,-3.5645,6.6211,-94.5434,17.6392,-109.6191,1,476,0,47
75041719,1228,0.5195,-2.9595,6.3467,0.3052,5.9204,-25.9399,1,470,0,47
75047670,1229,-0.6064,-2.2959,4.8657,5.0659,138.1226,-5.9204,1,483,0,47
75054672,1230,-0.9204,-1.3696,1.9473,96.5576,243.3472,48.6450,1,483,0,47
75058106,1231,-0.9204,-1.3696,1.9473,96.5576,243.3472,48.6450,1,466,0,47
75061714,1232,-1.0186,-0.8677,1.0737,116.4551,249.9389,58.4717,1,475,0,47
75066716,1233,-1.1387,-0.3906,0.6069,127.8076,237.6709,58.4717,1,474,0,47
75071715,1234,-1.1807,0.0073,0.4355,137.6953,213.2568,54.0161,1,474,0,47
75078656,1235,-1.0806,0.2959,0.4507,130.3101,189.8193,43.5791,1,483,0,47
75085645,1236,-0.6426,0.5552,0.7539,92.6514,180.7251,12.6343,1,483,0,47
75091679,1237,-0.4756,0.6060,0.8960,74.2188,190.0024,-5.0659,1,479,0,47
75097688,1238,-0.3848,0.6123,0.9600,55.1147,203.5522,-23.5596,1,474,0,48
75103669,1239,-0.3594,0.4355,0.9072,25.8179,223.9380,-57.3730,1,483,0,48
75106721,1240,-0.3594,0.4355,0.9072,25.8179,223.9380,-57.3730,1,469,0,48
75111717,1241,-0.3428,0.2534,0.8828,14.0381,227.9663,-69.7021,1,472,0,48
75118666,1242,-0.1978,-0.2065,0.9287,5.0659,236.9385,-78.9795,1,483,0,48
75125653,1243,-0.1304,-0.4321,0.9531,7.5073,242.7978,-76.7212,1,483,0,48
75129058,1244,-0.0854,-0.6367,0.9595,12.5732,248.5962,-70.3735,1,465,0,48
75131712,1245,-0.0854,-0.6367,0.9595,12.5732,248.5962,-70.3735,1,476,0,48
75136720,1246,-0.0503,-0.8091,0.9551,19.4092,253.5400,-59.8755,1,468,0,48
75142139,1247,-0.0098,-0.9355,0.9497,26.4282,257.3242,-46.1426,1,467,0,48
75147676,1248,0.0386,-1.0137,0.9390,31.6162,260.8643,-30.1514,1,483,0,48
75153688,1249,0.1089,-1.0273,0.8804,32.4707,264.8315,4.0283,1,474,0,48
75157075,1250,0.1089,-1.0273,0.8804,32.4707,264.8315,4.0283,1,483,0,48
75161717,1251,0.1284,-0.9814,0.8364,27.6489,264.6484,20.0195,1,470,0,48
75167054,1252,0.1465,-0.9219,0.7881,19.8975,263.3057,35.2173,1,465,0,48
75172671,1253,0.1729,-0.8130,0.6807,0.4883,257.3853,62.4390,1,483,0,48
75179668,1254,0.1689,-0.7671,0.6338,-9.5825,251.0376,74.4019,1,483,0,48
75185670,1255,0.1650,-0.7319,0.6221,-19.8364,241.8823,85.5713,1,483,0,48
75188080,1256,0.1807,-0.7036,0.6592,-28.8086,231.9946,96.0083,1,484,0,48
75193667,1257,0.2134,-0.6709,0.7451,-35.8887,223.7549,105.2246,1,482,0,48
75200667,1258,0.2505,-0.6274,0.8691,-41.5649,217.3462,113.2812,1,483,0,48
75202087,1259,0.2939,-0.5811,1.0112,-46.0815,213.0127,119.8730,1,483,0,48
75206719,1260,0.2939,-0.5811,1.0112,-46.0815,213.0127,119.8730,1,468,0,48
75215181,1261,0.3882,-0.5103,1.2788,-50.4761,213.4399,129.8218,1,496,0,48
75221663,1262,0.4146,-0.4751,1.3784,-50.1099,216.4917,133.1177,1,483,0,48
75223062,1263,0.4331,-0.4297,1.4502,-48.8892,220.2148,135.0098,1,484,0,48
75233520,1264,0.4648,-0.3145,1.5234,-45.5933,230.1636,135.0098,1,494,0,49
75236969,1265,0.4751,-0.2529,1.5352,-44.2505,234.4360,132.8735,1,467,0,49
75242676,1266,0.4902,-0.1992,1.5366,-43.2739,238.2202,129.5776,1,481,0,49
75249645,1267,0.5049,-0.1538,1.5269,-42.2363,242.1264,125.3052,1,483,0,49
75253080,1268,0.5142,-0.1143,1.5068,-41.6260,244.5068,119.9341,1,483,0,49
75258667,1269,0.5210,-0.0903,1.4888,-41.5039,246.0937,113.8916,1,483,0,49
75265666,1270,0.5293,-0.0869,1.4805,-40.8936,247.6196,107.6660,1,483,0,49
75271668,1271,0.5332,-0.0962,1.4653,-37.2925,249.6948,95.2759,1,483,0,49
75273073,1272,0.5332,-0.0962,1.4653,-37.2925,249.6948,95.2759,1,483,0,49
75280614,1273,0.5205,-0.0957,1.4619,-35.9497,249.0234,88.8061,1,483,0,49
75282046,1274,0.5146,-0.1006,1.4780,-35.9497,247.7417,82.3364,1,464,0,49
75288460,1275,0.5181,-0.1206,1.5132,-36.9873,247.8027,76.5381,1,5470,0,49
75294787,1276,0.5225,-0.1538,1.5562,-37.9028,248.9014,70.9839,1,467,0,49
75298189,1277,0.5215,-0.1929,1.5986,-38.5742,250.4272,66.1621,1,494,0,49
75301713,1278,0.5166,-0.2329,1.6362,-39.0015,252.5024,61.8896,1,473,0,49
75308668,1279,0.5098,-0.2681,1.6753,-39.6118,254.3335,58.0444,1,482,0,49
75311715,1280,0.5161,-0.2974,1.7217,-41.1377,255.7373,54.8706,1,471,0,49
75316718,1281,0.5513,-0.3276,1.7681,-42.9077,258.4839,52.4292,1,468,0,49
75322662,1282,0.5957,-0.3584,1.7925,-44.2505,264.4653,50.6592,1,483,0,49
75326717,1283,0.6221,-0.3838,1.7812,-44.5557,270.3857,49.6216,1,470,0,49
75331721,1284,0.6323,-0.4028,1.7407,-44.3726,274.2310,49.1333,1,466,0,49
75336714,1285,0.6465,-0.4175,1.6865,-44.1894,276.3062,49.6216,1,473,0,49
75341713,1286,0.6689,-0.4297,1.6318,-43.7012,277.2827,50.9033,1,473,0,49
75347686,1287,0.6909,-0.4365,1.5830,-43.0298,277.0386,52.6733,1,475,0,49
75353670,1288,0.7114,-0.4331,1.5479,-42.6636,275.5127,54.7485,1,483,0,49
75356716,1289,0.7358,-0.4204,1.5278,-42.6636,273.4375,57.3730,1,470,0,49
75363657,1290,0.7622,-0.4043,1.5161,-43.1519,271.3623,60.3027,1,484,0,49
75370648,1291,0.8071,-0.3892,1.4810,-44.4946,265.7471,67.1997,1,483,0,49
75373046,1292,0.8071,-0.3892,1.4810,-44.4946,265.7471,67.1997,1,465,0,49
75378477,1293,0.8218,-0.3887,1.4473,-43.4570,261.5967,70.9229,1,470,0,49
75381715,1294,0.8286,-0.3809,1.4058,-41.6260,256.2866,74.4019,1,471,0,49
75388068,1295,0.8379,-0.3618,1.3638,-39.3677,249.5117,77.1484,1,483,0,49
75391714,1296,0.8545,-0.3301,1.3267,-36.8652,241.8213,79.0405,1,472,0,49
75396718,1297,0.8760,-0.2837,1.2974,-35.2783,234.0088,79.3457,1,468,0,49
75401720,1298,0.9048,-0.2261,1.2744,-35.4614,226.0742,77.8809,1,466,0,49
75406718,1299,0.9409,-0.1660,1.2505,-36.7432,218.2617,74.7070,1,468,0,49
75412688,1300,0.9800,-0.1050,1.2188,-38.6963,210.1440,69.7632,1,473,0,49
75418671,1301,1.0806,0.0122,1.1270,-46.8140,193.9697,56.5186,1,483,0,49
75421716,1302,1.0806,0.0122,1.1270,-46.8140,193.9697,56.5186,1,470,0,49
75428662,1303,1.1816,0.0850,0.9819,-53.7109,175.7812,41.3818,1,484,0,49
75433103,1304,1.1816,0.0850,0.9819,-53.7109,175.7812,41.3818,1,466,0,49
75437559,1305,1.2368,0.0942,0.9004,-54.3213,165.8325,34.0576,1,466,0,49
75441716,1306,1.2939,0.0938,0.8193,-51.7578,154.4800,27.5879,1,470,0,49
75448648,1307,1.4277,0.1011,0.6655,-41.2598,127.8686,17.0288,1,483,0,49
75455667,1308,1.5093,0.1074,0.5957,-33.5693,113.3423,12.1460,1,483,0,49
75457069,1309,1.5093,0.1074,0.5957,-33.5693,113.3423,12.1460,1,483,0,49
75461719,1310,1.5952,0.1216,0.5254,-24.4141,98.9990,7.2021,1,466,0,49
75467683,1311,1.6787,0.1455,0.4541,-15.0757,84.2895,1.8311,1,478,0,49
75474651,1312,1.8345,0.1812,0.3110,1.2817,51.6357,-10.2539,1,483,0,49
75479063,1313,1.9009,0.1797,0.2397,9.3994,34.9731,-16.5405,1,483,0,49
75484468,1314,1.9370,0.1650,0.1704,16.8457,17.1509,-22.9492,1,468,0,49
75486716,1315,1.9370,0.1650,0.1704,16.8457,17.1509,-22.9492,1,470,0,49
75492033,1316,1.9453,0.1313,0.1211,23.1934,-3.1738,-28.8086,1,465,0,49
75497680,1317,1.9429,-0.0239,0.1641,33.9966,-44.4336,-37.2314,1,477,0,49
75503692,1318,1.9277,-0.1650,0.2124,41.8701,-62.6831,-38.8794,1,468,0,49
75509139,1319,1.7793,-0.5010,-0.1528,55.7861,-103.1494,-40.1611,1,466,0,49
75514584,1320,1.1606,-0.4834,-0.9673,116.5771,-240.7226,-22.3389,1,495,0,49
75520762,1321,0.2891,-0.0381,-1.0908,132.5073,-327.5146,-23.4985,1,468,0,49
75523151,1322,-0.4180,-0.0674,-0.0215,28.8696,-264.5874,-37.9639,1,495,0,49
75528501,1323,-0.9482,-0.6938,1.2979,-14.7095,-240.1733,-34.9731,1,496,0,49
75535655,1324,-1.3232,-1.3623,1.9707,27.8931,-273.9258,-19.5923,1,483,0,49
75538054,1325,-1.4131,-1.5347,1.8677,43.5791,-264.0381,-9.4604,1,465,0,49
75544658,1326,-1.0142,-1.1445,1.2256,64.5752,-277.4048,-0.2441,1,483,0,49
75550075,1327,-0.3472,-0.4731,0.3643,82.7637,-293.7012,1.6479,1,484,0,49
75552397,1328,0.2085,0.1626,-0.2983,65.3076,-294.4946,2.2583,1,488,0,49
75556716,1329,0.4668,0.5537,-0.3989,34.4238,-301.5137,0.3662,1,469,0,49
75562682,1330,0.4683,0.6670,0.1675,5.4932,-307.8003,0.0610,1,478,0,49
75569649,1331,0.3389,0.6299,1.1558,-9.4604,-306.1523,-8.7891,1,483,0,49
75572017,1332,0.2822,0.6118,2.1504,-7.6904,-300.1099,-21.4233,1,473,0,49
75577666,1333,0.4658,0.6841,2.7944,-4.8828,-282.2876,-33.8745,1,483,0,49
75581718,1334,0.7559,0.7632,2.9316,-4.0894,-249.5117,-47.3633,1,468,0,49
75586716,1335,0.8628,0.7188,2.6562,-6.5918,-215.5762,-59.9976,1,470,0,49
75591718,1336,0.7119,0.4668,2.2539,-17.0288,-194.2749,-68.9087,1,466,0,49
75596717,1337,0.4863,0.0488,1.9766,-28.8696,-184.2041,-72.0215,1,468,0,49
75602689,1338,0.3511,-0.4106,1.8315,-36.1328,-173.7671,-70.1294,1,471,0,49
75609659,1339,0.2954,-0.8018,1.6616,-37.2925,-162.2314,-63.7207,1,483,0,49
75615692,1340,0.0044,-1.5459,1.2080,-26.9775,-154.6021,-40.8325,1,468,0,49
75617069,1341,0.0044,-1.5459,1.2080,-26.9775,-154.6021,-40.8325,1,483,0,49
75627529,1342,0.3491,-1.8945,1.9521,57.6172,-142.3950,-8.3008,1,494,0,50
75633664,1343,0.7036,-1.6592,2.2568,85.3271,-119.5679,10.9253,1,483,0,50
75640664,1344,0.5767,-0.6006,1.8584,131.5918,-69.4580,20.6909,1,483,0,50
75643064,1345,0.5767,-0.6006,1.8584,131.5918,-69.4580,20.6909,1,484,0,50
75646720,1346,0.2075,-0.1094,1.4712,134.6436,-62.3169,19.9585,1,467,0,50
75651719,1347,-0.0068,0.1353,1.3130,125.5493,-58.7769,16.3574,1,466,0,50
75656713,1348,0.0322,0.1396,1.4062,117.6147,-52.4902,13.0005,1,471,0,50
75661719,1349,0.1641,-0.0747,1.6055,112.6709,-40.7104,10.2539,1,467,0,50
75667661,1350,0.2417,-0.1792,1.5854,136.8408,-33.6304,11.9629,1,483,0,50
75672084,1351,0.1680,-0.0488,1.4028,127.1973,-24.1089,16.0522,1,483,0,50
75676717,1352,0.0420,0.1553,1.3721,118.1641,-27.8931,12.0239,1,467,0,50
75681716,1353,0.0386,0.3721,1.3818,67.2607,-20.1416,-2.5024,1,468,0,50
75686714,1354,0.0342,0.3955,1.3379,31.4331,-7.8735,-4.8828,1,470,0,50
75691714,1355,0.0010,0.1504,1.3149,23.0713,-8.4839,-5.7983,1,471,0,50
75698647,1356,0.0034,-0.0732,1.2295,45.1660,-7.3242,-9.2163,1,538,0,50
75704680,1357,-0.0415,-0.0938,1.1494,31.7993,-14.2212,-6.5308,1,478,0,50
75706716,1358,-0.0415,-0.0938,1.1494,31.7993,-14.2212,-6.5308,1,468,0,50
75711713,1359,-0.0425,-0.0337,1.1465,20.9961,-17.8833,-5.5542,1,472,0,50
75718666,1360,-0.0210,-0.0552,1.1211,16.0522,-19.6533,-6.7139,1,483,0,50
75721714,1361,0.0034,-0.1108,1.1011,11.8408,-18.1274,-7.0801,1,470,0,50
75727692,1362,-0.0010,-0.1665,1.1265,17.1509,-17.3950,-6.2256,1,466,0,50
75734657,1363,0.0278,-0.1187,1.1216,7.3853,-12.3901,-5.3101,1,483,0,50
75737029,1364,0.0278,-0.1187,1.1216,7.3853,-12.3901,-5.3101,1,465,0,50
75742676,1365,0.0396,-0.1084,1.1279,23.6206,-16.6016,-3.2349,1,479,0,50
75746716,1366,0.0615,-0.0815,1.1064,-0.0610,-8.4229,-4.7607,1,468,0,50
75751720,1367,0.0410,-0.1172,1.1216,2.6855,-7.9956,-3.9673,1,466,0,50
75756714,1368,0.0181,-0.1431,1.1025,13.0615,-10.1929,-1.7090,1,470,0,50
75761716,1369,0.0103,-0.1387,1.0562,5.5542,-9.5825,-0.6104,1,468,0,50
75767670,1370,0.0068,-0.1445,1.0430,-1.2817,-6.7139,-2.1362,1,484,0,50
75773684,1371,0.0015,-0.1621,1.0386,6.1035,-7.6294,-3.7231,1,474,0,50
75776714,1372,0.0015,-0.1621,1.0386,6.1035,-7.6294,-3.7231,1,470,0,50
75783670,1373,0.0103,-0.1763,1.0288,7.8735,-6.5308,-5.0049,1,483,0,50
75790656,1374,0.0049,-0.1733,1.0225,8.1787,-5.9814,-5.6152,1,483,0,50
75796692,1375,-0.0010,-0.1660,1.0195,8.4229,-5.6152,-6.2866,1,466,0,50
75799040,1376,-0.0010,-0.1646,1.0210,8.7280,-4.8218,-6.7139,1,465,0,50
75804689,1377,0.0020,-0.1660,1.0273,9.7656,-4.3335,-7.0801,1,469,0,50
75807036,1378,0.0020,-0.1660,1.0273,9.7656,-4.3335,-7.0801,1,464,0,50
75812435,1379,0.0015,-0.1597,1.0322,11.8408,-4.2725,-6.8970,1,481,0,50
75817686,1380,-0.0039,-0.1265,1.0278,11.3525,-4.7607,-5.8594,1,472,0,50
75821712,1381,-0.0039,-0.1265,1.0278,11.3525,-4.7607,-5.8594,1,472,0,50
75827665,1382,0.0103,-0.1245,1.0337,8.9111,-2.9907,-4.9438,1,483,0,50
75834662,1383,0.0146,-0.1255,1.0361,8.1177,-1.9531,-3.9062,1,483,0,50
75838039,1384,0.0171,-0.1260,1.0356,7.1411,-0.9155,-3.1738,1,465,0,50
75844641,1385,0.0181,-0.1245,1.0312,5.3101,0.5493,-2.5635,1,483,0,50
75850675,1386,0.0166,-0.1245,1.0259,3.7231,2.0142,-2.0752,1,480,0,50
75852017,1387,0.0112,-0.1304,1.0229,3.1128,3.3569,-1.8921,1,471,0,50
75856716,1388,0.0112,-0.1304,1.0229,3.1128,3.3569,-1.8921,1,468,0,50
75863980,1389,0.0044,-0.1411,1.0239,2.8076,4.2725,-1.9531,1,484,0,50
75870644,1390,0.0068,-0.1411,1.0210,2.4414,5.0049,-1.9531,1,483,0,50
75876034,1391,0.0039,-0.1411,1.0146,2.0752,5.7983,-1.8921,1,465,0,50
75878293,1392,-0.0073,-0.1401,1.0078,2.0142,5.9204,-1.8311,1,498,0,50
75881714,1393,-0.0151,-0.1387,1.0068,1.8311,5.3101,-2.0142,1,466,0,50
75887664,1394,-0.0107,-0.1401,1.0107,1.6479,5.3101,-2.1973,1,483,0,50
75894660,1395,-0.0024,-0.1392,1.0127,1.8921,5.7983,-2.0142,1,483,0,50
75901649,1396,-0.0205,-0.1333,1.0078,1.8921,5.6763,-2.5024,1,483,0,50
75907683,1397,-0.0259,-0.1323,1.0083,2.2583,4.8218,-2.8076,1,474,0,51
75913663,1398,-0.0156,-0.1318,1.0137,2.3193,4.7607,-2.6245,1,483,0,51
75919675,1399,-0.0005,-0.1333,1.0200,2.0142,5.5542,-2.3193,1,480,0,51
75921713,1400,0.0083,-0.1353,1.0239,1.9531,6.5918,-1.8311,1,470,0,51
75928655,1401,0.0068,-0.1343,1.0264,1.8311,7.2021,-1.3428,1,483,0,51
75934692,1402,0.0005,-0.1294,1.0273,1.7090,7.3242,-0.9766,1,466,0,51
75940776,1403,-0.0181,-0.1279,1.0332,3.9673,6.2256,0.7935,1,474,0,51
75942124,1404,-0.0181,-0.1279,1.0332,3.9673,6.2256,0.7935,1,466,0,51
75949464,1405,-0.0093,-0.1201,1.0283,7.9956,3.1738,1.1597,1,466,0,51
75951714,1406,0.0000,-0.1069,1.0103,2.1362,7.7515,-2.7466,1,470,0,51
75957671,1407,-0.0122,-0.1123,1.0156,-7.6904,6.7139,-0.1831,1,484,0,51
75962062,1408,-0.0186,-0.1343,1.0288,0.3662,5.1880,-0.0610,1,483,0,51
75966718,1409,-0.0210,-0.1382,1.0161,1.8921,3.7842,0.7324,1,467,0,51
75971712,1410,-0.0298,-0.1416,1.0005,-1.7090,4.9438,-0.0610,1,472,0,51
75976712,1411,-0.0410,-0.1489,0.9897,2.1362,2.6855,0.2441,1,471,0,51
75982664,1412,-0.0469,-0.1499,0.9800,3.8452,1.8921,-0.4272,1,483,0,51
75986721,1413,-0.0503,-0.1494,0.9795,3.7231,1.2817,-1.2207,1,481,0,51
75992672,1414,-0.0503,-0.1479,0.9868,5.3711,-0.1831,-1.8921,1,482,0,51
75999642,1415,-0.0635,-0.1328,0.9932,6.8359,-3.2349,-3.3569,1,483,0,51
76002010,1416,-0.0635,-0.1328,0.9932,6.8359,-3.2349,-3.3569,1,476,0,51
76008644,1417,-0.0688,-0.1270,0.9937,7.2021,-5.6152,-3.8452,1,483,0,51
76012019,1418,-0.0576,-0.1260,1.0005,6.7139,-7.5073,-4.5776,1,467,0,51
76016712,1419,-0.0454,-0.1313,1.0073,6.5918,-8.6670,-4.6997,1,472,0,51
76021718,1420,-0.0415,-0.1328,1.0093,7.0801,-10.4980,-4.5166,1,467,0,51
76026715,1421,-0.0366,-0.1304,1.0112,7.2632,-12.0239,-4.6997,1,467,0,51
76031720,1422,-0.0298,-0.1284,1.0142,7.2632,-12.6343,-4.8828,1,482,0,51
76037687,1423,-0.0225,-0.1240,1.0171,7.5073,-13.4888,-4.5776,1,469,0,51
76043669,1424,-0.0156,-0.1157,1.0195,7.4463,-13.6719,-4.3945,1,483,0,51
76046712,1425,-0.0137,-0.1099,1.0171,6.9580,-13.9770,-3.9062,1,470,0,51
76051713,1426,-0.0176,-0.1108,1.0137,6.6528,-14.0381,-3.5400,1,470,0,51
76056714,1427,-0.0225,-0.1147,1.0132,6.5308,-14.7095,-3.4790,1,468,0,51
76062679,1428,-0.0190,-0.1191,1.0122,6.4087,-14.9536,-3.4790,1,478,0,51
76066716,1429,-0.0151,-0.1211,1.0098,6.1646,-14.7095,-3.6011,1,466,0,51
76072659,1430,-0.0166,-0.1240,1.0059,6.1035,-15.1367,-3.7231,1,483,0,51
76079657,1431,-0.0229,-0.1338,1.0122,7.0801,-16.7847,-4.2114,1,483,0,51
76086644,1432,-0.0215,-0.1348,1.0176,7.3853,-18.6157,-5.1270,1,483,0,51
76091028,1433,-0.0029,-0.1265,1.0269,7.3242,-19.4092,-5.4932,1,465,0,51
76093293,1434,0.0034,-0.1108,1.0288,6.5918,-19.4702,-5.2490,1,492,0,51
76098659,1435,-0.0020,-0.1055,1.0293,5.4932,-20.2026,-5.8594,1,483,0,51
76104671,1436,0.0020,-0.1147,1.0347,4.6387,-21.4844,-6.2866,1,481,0,51
76107019,1437,0.0020,-0.1147,1.0347,4.6387,-21.4844,-6.2866,1,468,0,51
76111720,1438,-0.0112,-0.1221,1.0322,4.8828,-21.4233,-6.8359,1,481,0,51
76118657,1439,-0.0449,-0.1182,1.0225,3.7842,-27.3437,-6.8970,1,529,0,51
76124661,1440,-0.0444,-0.1167,1.0239,3.9673,-29.4189,-6.9580,1,483,0,51
76127048,1441,-0.0444,-0.1167,1.0239,3.9673,-29.4189,-6.9580,1,464,0,51
76132686,1442,-0.0332,-0.1147,1.0322,3.7231,-35.3394,-7.4463,1,471,0,51
76138668,1443,-0.0366,-0.1089,1.0327,3.9673,-38.0859,-7.5073,1,483,0,51
76144681,1444,-0.0498,-0.1025,1.0332,3.6011,-41.5649,-7.6294,1,476,0,51
76150661,1445,-0.0620,-0.0962,1.0361,2.4414,-46.1426,-7.9346,1,483,0,51
76153041,1446,-0.0806,-0.0874,1.0391,1.5259,-50.4150,-9.0942,1,465,0,51
76158441,1447,-0.1177,-0.0806,1.0391,0.1221,-56.7627,-10.3149,1,477,0,51
76161719,1448,-0.1177,-0.0806,1.0391,0.1221,-56.7627,-10.3149,1,466,0,51
76169009,1449,-0.2441,-0.0732,1.0298,-3.9062,-76.5381,-15.2588,1,478,0,51
76171719,1450,-0.2441,-0.0732,1.0298,-3.9062,-76.5381,-15.2588,1,467,0,51
76176718,1451,-0.3047,-0.0508,1.0361,-6.9580,-92.7124,-19.7754,1,467,0,51
76181719,1452,-0.3618,-0.0156,1.0591,-13.0005,-109.1919,-26.6113,1,466,0,51
76188665,1453,-0.8950,0.0703,1.2275,-36.7432,-183.4717,-50.7812,1,483,0,51
76194666,1454,-1.2046,0.1128,1.3608,-57.9834,-258.3618,-66.8945,1,484,0,51
76196986,1455,-1.3218,0.1089,1.4653,-82.2754,-334.0454,-83.0688,1,484,0,51
76201717,1456,-1.2866,0.0718,1.5635,-102.0508,-399.4751,-98.4497,1,466,0,51
76207665,1457,-1.2168,-0.0083,1.6841,-111.4502,-458.0078,-111.3281,1,483,0,51
76213679,1458,-1.1035,-0.0713,1.7666,-114.5630,-508.9111,-116.8823,1,476,0,51
76219660,1459,-0.8525,-0.0215,1.7456,-116.5161,-558.3496,-121.7041,1,483,0,51
76225670,1460,-0.5439,0.0601,1.6016,-128.5400,-592.9565,-133.4839,1,482,0,51
76230034,1461,-0.4360,0.0107,1.4180,-146.7285,-610.7788,-147.8882,1,465,0,51
76233396,1462,-0.5249,-0.1265,1.2778,-151.9775,-624.3286,-153.0762,1,484,0,51
76238671,1463,-0.5664,-0.1909,1.1064,-144.2261,-649.8412,-163.5742,1,540,0,51
76244682,1464,-0.4800,-0.2061,0.8306,-143.9209,-674.9877,-181.3354,1,473,0,51
76247063,1465,-0.3232,-0.2725,0.5161,-140.1367,-695.0073,-195.8008,1,483,0,51
76251715,1466,-0.1558,-0.3657,0.2871,-115.0513,-691.4672,-209.5947,1,467,0,51
76256714,1467,-0.0957,-0.3745,0.2300,-83.9844,-685.6689,-215.6982,1,466,0,51
76263644,1468,-0.1138,-0.2446,0.3735,-63.7817,-708.0688,-216.6748,1,483,0,51
76266715,1469,0.3950,-0.1455,0.8872,-69.2139,-761.6577,-207.3364,1,466,0,51
76272187,1470,2.3682,-0.7744,2.1128,-122.4365,-726.1352,-187.9883,1,490,0,51
76276714,1471,3.5913,-2.0117,4.1479,-174.4995,-300.9644,-194.3970,1,467,0,51
76282191,1472,1.9917,-2.4165,5.7876,-99.6704,12.6343,-183.8989,1,494,0,51
76287682,1473,0.1499,-1.9526,5.7520,-23.9868,-0.7324,-118.7744,1,474,0,51
76291713,1474,-0.3911,-1.6724,4.5444,-61.7065,81.9092,-98.9380,1,468,0,51
76297175,1475,-0.5684,-1.6655,3.1919,-44.9829,172.8515,-75.1343,1,494,0,51
76302665,1476,-0.8237,-1.5972,2.0957,2.8076,215.0268,-48.8892,1,483,0,51
76306712,1477,-1.0723,-1.4043,1.3062,15.6860,242.0044,-26.9775,1,468,0,51
76311717,1478,-1.2188,-1.1689,0.7925,34.9731,247.6196,-8.3618,1,467,0,51
76317680,1479,-1.2319,-0.9023,0.4956,60.3027,233.8867,6.0425,1,476,0,51
76323662,1480,-1.1187,-0.6265,0.3789,68.0542,214.8437,15.7471,1,482,0,51
76326713,1481,-0.9336,-0.3931,0.3945,66.4673,202.3315,20.7520,1,468,0,51
76332664,1482,-0.7510,-0.1978,0.4653,64.0869,198.5473,22.3389,1,483,0,51
76336717,1483,-0.6089,-0.0215,0.5234,55.1758,201.3550,20.3857,1,467,0,51
76341720,1484,-0.5005,0.1279,0.5312,41.7480,206.6040,15.3809,1,481,0,51
76347679,1485,-0.4185,0.2495,0.4814,27.0996,211.6089,7.2632,1,476,0,51
76353660,1486,-0.3750,0.3335,0.3931,8.6670,213.3179,-2.8687,1,483,0,51
76357047,1487,-0.3667,0.3442,0.3193,-13.6719,209.9609,-13.3057,1,464,0,51
76362662,1488,-0.3594,0.2563,0.3223,-36.0718,201.2939,-21.6675,1,483,0,51
76366713,1489,-0.3242,0.0718,0.4287,-54.8706,192.8100,-25.7568,1,468,0,51
76371720,1490,-0.2627,-0.1743,0.6147,-67.4438,187.3779,-25.2686,1,482,0,51
76376721,1491,-0.1821,-0.4399,0.8350,-73.5474,186.2182,-19.5312,1,482,0,51
76381717,1492,-0.0835,-0.6919,1.0454,-72.6318,191.6504,-8.1787,1,466,0,51
76387726,1493,0.0049,-0.9028,1.2119,-64.1479,203.1250,7.6294,1,476,0,51
76394658,1494,0.0830,-1.0771,1.3799,-32.4707,225.0976,47.0581,1,483,0,51
76400659,1495,0.1323,-1.0127,1.3945,-17.5171,234.3139,66.5894,1,483,0,51
76403010,1496,0.1323,-1.0127,1.3945,-17.5171,234.3139,66.5894,1,477,0,51
76409639,1497,0.3042,-0.6431,1.3213,-1.9531,250.4272,95.7031,1,483,0,51
76412039,1498,0.3042,-0.6431,1.3213,-1.9531,250.4272,95.7031,1,465,0,51
76417656,1499,0.3833,-0.3955,1.2241,-2.3193,255.5542,102.5391,1,483,0,51
76424655,1500,0.4639,0.0127,0.9805,-19.1040,253.2959,101.9897,1,483,0,51
76430657,1501,0.4795,0.1011,0.8862,-31.4941,247.3755,97.5342,1,483,0,51
76436667,1502,0.4810,0.1045,0.8467,-44.3726,239.4409,92.1631,1,484,0,51
76439081,1503,0.4814,0.0410,0.8892,-54.8706,230.4077,87.5244,1,483,0,51
76442494,1504,0.4814,0.0410,0.8892,-54.8706,230.4077,87.5244,1,496,0,51
76446721,1505,0.5054,-0.0591,1.0068,-60.3027,221.8628,85.2051,1,481,0,51
76453647,1506,0.6265,-0.2412,1.2827,-57.3120,217.7734,85.6323,1,483,0,51
76456716,1507,0.6265,-0.2412,1.2827,-57.3120,217.7734,85.6323,1,466,0,51
76461717,1508,0.6611,-0.2827,1.3682,-53.1006,219.8486,87.2803,1,466,0,51
76467674,1509,0.6641,-0.2842,1.4692,-47.3022,220.9473,91.1255,1,477,0,51
76471720,1510,0.6641,-0.2842,1.4692,-47.3022,220.9473,91.1255,1,481,0,51
76477684,1511,0.7236,-0.2739,1.5659,-46.5088,225.5249,93.8110,1,471,0,51
76481719,1512,0.7236,-0.2739,1.5659,-46.5088,225.5249,93.8110,1,482,0,51
76487662,1513,0.7642,-0.3291,1.5796,-45.8984,234.4971,95.8862,1,483,0,51
76493674,1514,0.7598,-0.3809,1.5547,-44.4336,237.5488,98.0225,1,477,0,51
76496716,1515,0.7598,-0.3809,1.5547,-44.4336,237.5488,98.0225,1,467,0,51
76503665,1516,0.7578,-0.4741,1.4561,-38.8184,240.2954,104.7974,1,483,0,51
76509665,1517,0.7471,-0.5015,1.3794,-35.2783,239.0137,108.7036,1,483,0,51
76511987,1518,0.7295,-0.5293,1.3188,-32.8979,234.5581,113.0371,1,483,0,51
76516716,1519,0.7251,-0.5757,1.3047,-31.6772,228.5156,118.5303,1,466,0,51
76521720,1520,0.7412,-0.6455,1.3389,-30.7617,223.2056,125.0610,1,481,0,51
76527211,1521,0.7720,-0.7271,1.4019,-29.2358,219.1772,132.8125,1,494,0,51
76531720,1522,0.8247,-0.7935,1.4360,-27.5879,216.7358,141.6626,1,482,0,51
76536719,1523,0.8594,-0.8716,1.5142,-28.0151,217.1020,151.6113,1,481,0,51
76542654,1524,0.9165,-0.9082,1.5918,-11.9629,206.9702,168.2739,1,483,0,51
76548666,1525,1.0039,-0.8594,1.5601,-11.6577,218.0176,165.8325,1,483,0,51
76551720,1526,1.0449,-0.8042,1.4810,-27.7710,219.9097,177.2461,1,480,0,51
76556718,1527,1.0562,-0.7432,1.3662,-19.8364,216.7358,183.5327,1,481,0,51
76561720,1528,1.0664,-0.6689,1.2402,-19.3481,209.5947,191.7114,1,481,0,51
76566717,1529,1.0913,-0.6123,1.1470,-18.4937,200.4394,195.9839,1,466,0,51
76571716,1530,1.1362,-0.5767,1.1040,-14.0991,189.7583,200.6225,1,467,0,51
76576716,1531,1.1953,-0.5625,1.1035,-14.4653,181.8848,204.1626,1,467,0,51
76581720,1532,1.2510,-0.5747,1.1304,-13.5498,174.5605,208.3740,1,481,0,51
76587667,1533,1.2998,-0.5933,1.1533,-7.9956,167.7246,212.8906,1,483,0,51
76591717,1534,1.3354,-0.6016,1.1494,-2.5635,162.0483,217.1020,1,466,0,51
76596715,1535,1.3608,-0.6006,1.1201,2.8687,155.9448,220.2759,1,466,0,51
76601715,1536,1.3799,-0.5918,1.0718,9.7046,149.4141,222.8393,1,467,0,51
76606720,1537,1.3906,-0.5718,1.0117,15.8081,142.8833,224.8535,1,481,0,51
76612661,1538,1.3960,-0.5425,0.9531,20.2637,135.2539,225.8911,1,483,0,51
76616715,1539,1.4136,-0.5171,0.8979,23.7427,127.0752,225.7080,1,467,0,51
76622671,1540,1.4395,-0.5039,0.8325,26.8555,119.6289,225.2197,1,479,0,51
76626712,1541,1.4526,-0.4956,0.7437,29.7241,111.3892,224.4263,1,469,0,51
76631720,1542,1.4507,-0.4878,0.6426,30.4565,101.5625,223.0835,1,480,0,51
76637654,1543,1.4429,-0.4893,0.5513,28.4424,90.6372,221.8017,1,483,0,51
76641717,1544,1.4365,-0.5059,0.4805,25.2686,79.1626,221.4966,1,482,0,51
76646716,1545,1.4302,-0.5327,0.4263,22.0947,67.1997,222.3511,1,467,0,51
76653656,1546,1.4146,-0.5645,0.3823,18.9209,54.6875,224.8535,1,483,0,51
76659660,1547,1.3628,-0.5791,0.3286,15.9302,26.1230,233.6426,1,483,0,51
76665670,1548,1.3462,-0.5312,0.3335,15.3198,11.3525,237.8540,1,479,0,51
76667124,1549,1.3462,-0.5312,0.3335,15.3198,11.3525,237.8540,1,534,0,51
76671717,1550,1.3467,-0.4468,0.3613,13.5498,-2.5024,240.8447,1,481,0,51
76680149,1551,1.3682,-0.2207,0.4443,7.2021,-21.9116,239.3799,1,495,0,51
76682543,1552,1.3682,-0.2207,0.4443,7.2021,-21.9116,239.3799,1,466,0,51
76687885,1553,1.3569,-0.1021,0.4771,2.0142,-30.3345,234.1919,1,470,0,51
76693653,1554,1.3315,0.0073,0.5059,-5.1270,-39.6729,225.9521,1,484,0,51
76699667,1555,1.2622,0.1753,0.6069,-17.6392,-58.8989,201.1719,1,483,0,51
76702080,1556,1.2622,0.1753,0.6069,-17.6392,-58.8989,201.1719,1,483,0,51
76706714,1557,1.2222,0.2324,0.6792,-18.6768,-67.8101,185.8520,1,466,0,51
76711714,1558,1.2939,0.6240,0.7446,-15.0757,-74.3408,169.6167,1,467,0,51
76718657,1559,0.3530,2.5806,0.4233,-83.3130,-83.7402,6.4087,1,554,0,51
76724661,1560,-0.6558,0.2192,0.3042,-234.8022,-131.8359,7.5073,1,484,0,51
76728016,1561,-0.6558,0.2192,0.3042,-234.8022,-131.8359,7.5073,1,467,0,51
76733417,1562,-1.0220,-0.6333,1.2544,29.6631,-142.2119,-4.8218,1,481,0,51
76737812,1563,-1.0220,-0.6333,1.2544,29.6631,-142.2119,-4.8218,1,477,0,51
76743672,1564,-0.5962,0.3560,0.7104,-26.5503,-143.0054,-29.2358,1,478,0,51
76747058,1565,-0.5962,0.3560,0.7104,-26.5503,-143.0054,-29.2358,1,483,0,51
76752677,1566,-0.3589,0.1011,0.3467,11.2305,-164.6728,-35.6445,1,476,0,51
76756717,1567,-0.2485,-0.0571,0.2109,12.1460,-183.1055,-35.9497,1,481,0,51
76761713,1568,-0.1523,-0.1694,0.3633,-7.9346,-198.7305,-34.5459,1,466,0,51
76766712,1569,-0.0049,-0.3691,0.7476,-32.7759,-202.5757,-28.3203,1,466,0,51
76773650,1570,0.2271,-0.7192,1.4922,-49.9878,-182.3730,-12.6343,1,483,0,51
76779653,1571,0.2290,-0.6772,1.5850,-45.7764,-168.5791,-5.8594,1,484,0,51
76782061,1572,0.2290,-0.6772,1.5850,-45.7764,-168.5791,-5.8594,1,483,0,51
76786717,1573,0.1860,-0.4775,1.5103,-39.3677,-156.8604,-2.3804,1,482,0,51
76792653,1574,0.1099,0.0474,1.3589,-36.2549,-146.0571,-2.1362,1,483,0,51
76799651,1575,0.0913,0.2583,1.4019,-35.4614,-138.4888,-8.3618,1,483,0,51
76803056,1576,0.0659,0.3950,1.4775,-37.2925,-132.6904,-16.5405,1,484,0,51
76806714,1577,0.0659,0.3950,1.4775,-37.2925,-132.6904,-16.5405,1,467,0,51
76811716,1578,0.0688,0.4336,1.5459,-40.4053,-128.0518,-26.4893,1,481,0,51
76817677,1579,0.1758,0.1948,1.5952,-49.3774,-113.7085,-41.0156,1,475,0,51
76824647,1580,0.2090,0.0103,1.5479,-52.1851,-103.6987,-44.9219,1,483,0,51
76830746,1581,0.0303,-0.4214,1.4712,-55.1758,-93.8721,-46.9971,1,477,0,51
76834185,1582,0.0664,-1.2109,1.8647,-72.6929,-98.6938,-29.7852,1,495,0,51
76836712,1583,0.5903,-1.7412,2.4673,-65.7349,-89.7217,-3.3569,1,467,0,51
76842670,1584,0.8232,-1.5771,2.3784,-2.2583,-17.4561,4.1504,1,479,0,51
76846720,1585,0.5005,-0.9668,1.7168,35.5835,-5.3101,16.9678,1,478,0,51
76851713,1586,0.0381,-0.3345,1.1001,38.4521,0.2441,14.2822,1,467,0,51
76856714,1587,-0.2339,0.0381,0.8926,29.9683,-4.3335,12.8174,1,467,0,51
76861713,1588,-0.2314,0.1299,1.0078,24.6582,-9.0332,9.0332,1,466,0,51
76867664,1589,-0.0664,0.0186,1.2261,18.9819,-7.6904,5.3711,1,484,0,51
76873064,1590,0.0918,-0.1807,1.3770,14.8926,-1.3428,4.3945,1,483,0,51
76876717,1591,0.1289,-0.3384,1.3604,16.3574,6.2866,5.0049,1,481,0,51
76883635,1592,0.0449,-0.3784,1.1948,22.3389,9.3384,6.7749,1,483,0,51
76890656,1593,-0.0923,-0.3071,1.0024,26.9775,7.9956,7.3853,1,484,0,51
76892019,1594,-0.2085,-0.1929,0.8848,32.8369,2.5635,7.2021,1,465,0,51
76902667,1595,-0.0991,-0.1621,1.0366,44.8608,-3.3569,2.8687,1,481,0,52
76906718,1596,-0.0386,-0.1279,1.0718,37.9028,-7.5684,5.9814,1,480,0,52
76911716,1597,-0.0317,-0.1323,1.0684,16.6016,-2.9907,0.0610,1,482,0,52
76916720,1598,-0.0576,-0.1577,1.0566,16.9067,-5.1880,2.0142,1,478,0,52
76923643,1599,-0.0723,-0.1753,1.0547,19.2871,-5.6763,1.4038,1,483,0,52
76926717,1600,-0.0742,-0.1719,1.0674,20.0195,-6.3477,2.3804,1,482,0,52
76932671,1601,-0.0674,-0.1470,1.0869,22.8882,-7.6294,3.7842,1,478,0,52
76936712,1602,-0.0615,-0.1133,1.0967,22.9492,-7.6294,5.0049,1,466,0,52
76941712,1603,-0.0669,-0.0913,1.0933,19.9585,-7.6294,4.6997,1,467,0,52
76947656,1604,-0.0786,-0.0942,1.0786,18.0664,-8.6060,3.6621,1,483,0,52
76954650,1605,-0.0825,-0.1221,1.0596,17.8833,-10.3760,2.5635,1,484,0,52
76959066,1606,-0.0659,-0.1602,1.0405,16.9067,-11.8408,1.5869,1,518,0,52
76961720,1607,-0.0415,-0.1846,1.0337,15.9302,-11.6577,0.9766,1,478,0,52
76966717,1608,-0.0352,-0.1821,1.0376,14.7095,-10.6201,0.2441,1,481,0,52
76971716,1609,-0.0454,-0.1753,1.0366,12.8784,-10.7422,-0.3052,1,481,0,52
76976717,1610,-0.0581,-0.1768,1.0259,12.5732,-11.5967,-0.5493,1,481,0,52
76981716,1611,-0.0605,-0.1807,1.0146,13.0615,-12.1460,-1.0376,1,481,0,52
76986712,1612,-0.0513,-0.1787,1.0200,13.0005,-11.7798,-1.4648,1,467,0,52
76991719,1613,-0.0430,-0.1670,1.0347,13.9160,-10.9863,-2.2583,1,480,0,52
76998655,1614,-0.0430,-0.1519,1.0327,14.6484,-11.2915,-2.3804,1,483,0,52
77002066,1615,-0.0527,-0.1318,1.0273,13.7939,-10.7422,-2.8687,1,483,0,52
77008634,1616,-0.0576,-0.1147,1.0337,11.1694,-11.1694,-3.4180,1,483,0,52
77015655,1617,-0.0488,-0.1289,1.0400,9.0332,-10.3149,-3.1738,1,483,0,52
77021049,1618,-0.0415,-0.1509,1.0366,9.0942,-10.3760,-2.0142,1,465,0,52
77023337,1619,-0.0415,-0.1509,1.0366,9.0942,-10.3760,-2.0142,1,478,0,52
77026715,1620,-0.0361,-0.1675,1.0347,9.8877,-9.1553,-1.4038,1,481,0,52
77031715,1621,-0.0342,-0.1665,1.0312,10.8643,-8.5449,-0.5493,1,482,0,52
77037680,1622,-0.0391,-0.1475,1.0254,11.2915,-7.1411,-0.3662,1,471,0,52
77042070,1623,-0.0469,-0.1299,1.0142,9.8877,-6.2866,0.0000,1,483,0,52
77046720,1624,-0.0522,-0.1274,1.0029,7.9956,-5.0049,-0.3052,1,479,0,52
77052662,1625,-0.0547,-0.1372,0.9956,6.4697,-4.7607,-0.4883,1,483,0,52
77058032,1626,-0.0518,-0.1396,1.0010,5.4932,-4.6997,-0.3662,1,465,0,52
77061721,1627,-0.0420,-0.1343,1.0181,4.3945,-4.2114,-0.7935,1,476,0,52
77066713,1628,-0.0322,-0.1338,1.0332,3.0518,-3.4180,-0.7324,1,466,0,52
77072651,1629,-0.0312,-0.1421,1.0352,2.5024,-2.6245,-0.4883,1,483,0,52
77076714,1630,-0.0356,-0.1494,1.0273,2.5024,-2.2583,-0.3662,1,467,0,52
77082662,1631,-0.0386,-0.1509,1.0234,2.3804,-1.8921,-0.4883,1,483,0,52
77086712,1632,-0.0361,-0.1484,1.0273,2.0142,-1.8311,-0.5493,1,466,0,52
77093657,1633,-0.0190,-0.1460,1.0454,1.0376,0.2441,-0.4272,1,483,0,52
77099661,1634,-0.0225,-0.1484,1.0405,0.9766,1.2207,-0.1831,1,483,0,52
77105672,1635,-0.0391,-0.1465,1.0220,1.4038,1.6479,-0.1221,1,478,0,52
77107012,1636,-0.0391,-0.1465,1.0220,1.4038,1.6479,-0.1221,1,469,0,52
77111719,1637,-0.0532,-0.1431,1.0024,0.7935,1.2207,-0.0610,1,478,0,52
77122669,1638,-0.0591,-0.1440,0.9966,0.4272,-0.1221,0.0610,1,478,0,53
77126715,1639,-0.0591,-0.1440,0.9966,0.4272,-0.1221,0.0610,1,481,0,53
77132680,1640,-0.0415,-0.1440,1.0161,-0.3052,-0.1831,0.3052,1,471,0,53
77136720,1641,-0.0415,-0.1440,1.0161,-0.3052,-0.1831,0.3052,1,478,0,53
77142657,1642,-0.0366,-0.1489,1.0234,-1.2817,1.4648,0.3662,1,466,0,53
77147050,1643,-0.0483,-0.1504,1.0127,-1.2207,1.0986,0.4272,1,464,0,53
77151720,1644,-0.0474,-0.1465,1.0093,-1.4648,0.6714,0.3052,1,477,0,53
77156716,1645,-0.0366,-0.1445,1.0171,-2.1362,1.8311,0.1221,1,481,0,53
77161712,1646,-0.0337,-0.1499,1.0229,-2.2583,2.5024,0.1831,1,467,0,53
77167651,1647,-0.0371,-0.1548,1.0200,-2.0142,2.4414,0.6714,1,483,0,53
77173663,1648,-0.0396,-0.1548,1.0176,-1.9531,2.2583,0.5493,1,483,0,53
77179677,1649,-0.0444,-0.1602,1.0142,-1.7700,2.5635,0.0610,1,473,0,53
77182023,1650,-0.0508,-0.1641,1.0073,-0.6714,1.4038,0.0000,1,465,0,53
77187670,1651,-0.0518,-0.1602,1.0020,0.5493,0.7935,-0.1831,1,478,0,53
77193041,1652,-0.0571,-0.1558,0.9980,1.1597,0.9155,-0.6104,1,465,0,53
77196718,1653,-0.0635,-0.1509,0.9980,1.7090,-0.9766,-0.4272,1,478,0,53
77202654,1654,-0.0596,-0.1504,1.0054,2.1973,-1.8921,-0.9766,1,483,0,53
77207018,1655,-0.0513,-0.1538,1.0103,2.8076,-2.5024,-1.0376,1,465,0,53
77212297,1656,-0.0459,-0.1528,1.0107,3.7231,-2.5635,-1.0376,1,489,0,53
77216712,1657,-0.0459,-0.1509,1.0098,4.0283,-2.8687,-0.9766,1,467,0,53
77221713,1658,-0.0498,-0.1494,1.0078,4.2725,-2.9907,-1.0376,1,482,0,53
77226713,1659,-0.0576,-0.1504,1.0039,5.0049,-3.9062,-1.2207,1,482,0,53
77232656,1660,-0.0620,-0.1519,1.0005,5.6152,-5.2490,-1.3428,1,483,0,53
77239653,1661,-0.0557,-0.1538,1.0020,5.8594,-5.7983,-1.5259,1,484,0,53
77243027,1662,-0.0464,-0.1562,1.0063,6.2256,-6.3477,-1.4648,1,465,0,53
77246719,1663,-0.0420,-0.1533,1.0117,6.8359,-6.5308,-1.2207,1,478,0,53
77251714,1664,-0.0410,-0.1499,1.0156,7.2021,-6.4697,-1.3428,1,481,0,53
77256713,1665,-0.0391,-0.1504,1.0166,7.5073,-6.7139,-1.2207,1,482,0,53
77261713,1666,-0.0400,-0.1475,1.0161,8.1787,-6.7139,-1.0986,1,482,0,53
77267074,1667,-0.0425,-0.1416,1.0151,8.3008,-7.3242,-1.0376,1,483,0,53
77271714,1668,-0.0435,-0.1416,1.0142,8.4229,-7.7515,-0.9766,1,482,0,53
77276719,1669,-0.0439,-0.1436,1.0151,8.9111,-8.0566,-1.0986,1,479,0,53
77282673,1670,-0.0386,-0.1455,1.0195,9.5215,-8.9722,-1.0986,1,477,0,53
77288653,1671,-0.0312,-0.1455,1.0249,10.0708,-8.6060,-0.9766,1,483,0,53
77294083,1672,-0.0303,-0.1421,1.0278,10.7422,-7.9956,-0.6714,1,483,0,53
77299671,1673,-0.0337,-0.1406,1.0200,11.7187,-8.2397,-0.3662,1,478,0,53
77304062,1674,-0.0337,-0.1406,1.0200,11.7187,-8.2397,-0.3662,1,484,0,53
77309495,1675,-0.0410,-0.1416,1.0039,13.3057,-8.0566,-0.1221,1,496,0,53
77314928,1676,-0.0449,-0.1406,1.0000,13.9770,-8.2397,-0.2441,1,468,0,53
77317250,1677,-0.0449,-0.1406,1.0000,13.9770,-8.2397,-0.2441,1,483,0,53
77322652,1678,-0.0430,-0.1353,1.0054,13.9770,-8.6060,-0.4883,1,483,0,53
77326718,1679,-0.0327,-0.1289,1.0161,13.6108,-8.5449,-0.6714,1,478,0,53
77331715,1680,-0.0254,-0.1235,1.0205,12.3901,-8.0566,-0.9766,1,482,0,53
77336720,1681,-0.0259,-0.1201,1.0176,10.8643,-7.7515,-1.2817,1,476,0,53
77342668,1682,-0.0288,-0.1196,1.0151,9.2773,-7.5073,-1.4648,1,478,0,53
77349635,1683,-0.0249,-0.1172,1.0229,6.3477,-7.6904,-2.0142,1,484,0,53
77354020,1684,-0.0234,-0.1138,1.0264,5.4932,-7.6294,-2.3193,1,465,0,53
77359391,1685,-0.0229,-0.1143,1.0264,4.6387,-7.8125,-2.3193,1,486,0,53
77364672,1686,-0.0234,-0.1147,1.0283,4.0894,-7.8125,-2.1973,1,476,0,53
77371639,1687,-0.0293,-0.1104,1.0264,3.7231,-8.1787,-2.0142,1,483,0,53
77377674,1688,-0.0347,-0.1074,1.0186,2.8687,-9.0332,-1.7700,1,475,0,54
77383011,1689,-0.0376,-0.1128,1.0093,2.4414,-9.8267,-1.6479,1,468,0,54
77386713,1690,-0.0449,-0.1235,0.9995,2.5635,-10.9253,-1.2207,1,481,0,54
77391712,1691,-0.0537,-0.1235,0.9956,2.6855,-12.8174,-0.5493,1,467,0,54
77396714,1692,-0.0552,-0.1138,0.9976,2.5024,-14.5874,-0.3662,1,481,0,54
77401713,1693,-0.0649,-0.1089,0.9961,2.3804,-15.7471,-1.0376,1,482,0,54
77407672,1694,-0.0913,-0.1089,0.9883,2.6855,-18.7378,-2.1362,1,476,0,54
77412063,1695,-0.0967,-0.1074,0.9829,2.5635,-23.1323,-2.7466,1,483,0,54
77417651,1696,-0.0498,-0.1079,1.0059,1.7090,-26.1841,-4.5776,1,483,0,54
77423663,1697,-0.0449,-0.1050,1.0107,0.9766,-27.7100,-5.2490,1,483,0,54
77429675,1698,-0.0386,-0.1162,1.0166,0.0000,-28.9917,-5.7373,1,473,0,54
77435722,1699,-0.0273,-0.1313,1.0254,0.2441,-28.6865,-6.2866,1,473,0,54
77438009,1700,-0.0317,-0.1318,1.0200,1.4648,-28.3203,-7.2021,1,469,0,54
77443527,1701,-0.0469,-0.1289,1.0083,0.8545,-29.4189,-7.5073,1,466,0,54
77446823,1702,-0.0469,-0.1289,1.0083,0.8545,-29.4189,-7.5073,1,483,0,54
77452721,1703,-0.0371,-0.1279,1.0166,1.0986,-32.8979,-7.8125,1,474,0,54
77456719,1704,-0.0371,-0.1279,1.0166,1.0986,-32.8979,-7.8125,1,476,0,54
77461712,1705,-0.0229,-0.1284,1.0239,0.9766,-32.5317,-8.3618,1,481,0,54
77466721,1706,-0.0322,-0.1270,1.0190,1.2817,-33.7524,-8.6060,1,474,0,54
77472029,1707,-0.0347,-0.1240,1.0186,0.9155,-37.2925,-9.4604,1,465,0,54
77476720,1708,-0.0186,-0.1265,1.0288,1.2817,-37.5977,-10.2539,1,475,0,54
77482040,1709,-0.0054,-0.1304,1.0381,1.2207,-38.3301,-10.5591,1,465,0,54
