t_us,seq,ax,ay,az,gx,gy,gz,valid,t_imu_us,t_serial_us,missed
11003386,10,0.0020,0.0376,1.0200,-0.3052,-0.0610,-0.1221,1,497,798,0
11008388,11,0.0015,0.0366,1.0190,-0.3052,0.0610,-0.1831,1,496,839,0
11013383,12,0.0015,0.0371,1.0181,-0.3052,0.0000,-0.1831,1,508,848,0
11018387,13,0.0010,0.0386,1.0186,-0.1831,-0.0610,-0.1221,1,464,819,0
11023381,14,0.0015,0.0391,1.0190,-0.1831,0.0610,-0.1221,1,464,891,0
11028389,15,0.0024,0.0391,1.0200,-0.2441,0.0610,-0.1831,1,464,859,0
11033388,16,0.0039,0.0391,1.0200,-0.1831,0.0000,-0.1221,1,463,869,0
11038386,17,0.0034,0.0376,1.0200,-0.2441,-0.0610,-0.1221,1,463,849,0
11043384,18,0.0034,0.0371,1.0200,-0.3052,0.0000,-0.0610,1,463,896,0
11048381,19,0.0029,0.0381,1.0190,-0.1831,0.0000,-0.1221,1,463,821,0
11053387,20,0.0020,0.0386,1.0181,-0.1221,-0.0610,-0.1221,1,464,849,0
11058383,21,0.0024,0.0381,1.0181,-0.2441,-0.0610,-0.1831,1,464,857,0
11063392,22,0.0029,0.0376,1.0195,-0.1831,0.0000,-0.1221,1,464,897,0
11068383,23,0.0020,0.0376,1.0210,-0.1221,0.0000,-0.0610,1,463,850,0
11073382,24,0.0024,0.0371,1.0215,-0.3052,0.0000,-0.1831,1,464,813,0
11078382,25,0.0034,0.0371,1.0205,-0.3052,0.0000,-0.1831,1,464,710,0
11083386,26,0.0044,0.0371,1.0195,-0.1831,-0.0610,-0.1831,1,503,749,0
11088381,27,0.0034,0.0376,1.0181,-0.2441,-0.0610,-0.1831,1,465,796,0
11093386,28,0.0029,0.0381,1.0176,-0.2441,-0.1831,0.0000,1,489,903,0
11098382,29,0.0029,0.0381,1.0186,-0.2441,0.0610,-0.1221,1,507,821,0
11103387,30,0.0029,0.0376,1.0195,-0.2441,0.0610,-0.1221,1,495,860,0
11108383,31,0.0029,0.0371,1.0200,-0.1221,-0.0610,-0.1831,1,491,791,0
11113388,32,0.0029,0.0366,1.0205,-0.3052,0.0000,-0.1831,1,481,820,0
11118387,33,0.0020,0.0371,1.0205,-0.3052,-0.0610,-0.1221,1,493,776,0
11123386,34,0.0010,0.0376,1.0200,-0.1831,0.0000,-0.0610,1,508,843,0
11128387,35,0.0015,0.0366,1.0205,-0.3052,0.0000,-0.1221,1,464,844,0
11133382,36,0.0015,0.0366,1.0190,-0.3052,0.0000,-0.1831,1,464,846,0
11138388,37,0.0010,0.0376,1.0186,-0.1831,-0.0610,-0.0610,1,464,821,0
11143381,38,0.0010,0.0386,1.0190,-0.1831,-0.0610,-0.0610,1,463,864,0
11148384,39,0.0020,0.0386,1.0200,-0.2441,0.0000,-0.0610,1,464,864,0
11153382,40,0.0015,0.0376,1.0200,-0.1831,0.0610,-0.1221,1,464,849,0
11158384,41,0.0015,0.0376,1.0200,-0.3052,0.0000,-0.1831,1,463,892,0
11163386,42,0.0020,0.0381,1.0205,-0.2441,-0.1221,-0.1221,1,464,817,0
11168388,43,0.0024,0.0386,1.0200,-0.1831,0.0000,-0.1831,1,464,863,0
11173390,44,0.0020,0.0371,1.0190,-0.2441,0.0000,-0.1831,1,464,854,0
11178386,45,0.0015,0.0366,1.0195,-0.1831,-0.1221,-0.1831,1,464,855,0
11183386,46,0.0020,0.0371,1.0205,-0.1221,-0.0610,-0.1831,1,464,869,0
11188384,47,0.0034,0.0376,1.0195,-0.1221,-0.1221,-0.0610,1,509,894,0
11193385,48,0.0024,0.0381,1.0190,-0.1221,-0.1831,0.0000,1,507,853,0
11198390,49,0.0015,0.0386,1.0205,-0.2441,-0.0610,-0.3052,1,467,880,0
11203385,50,0.0024,0.0391,1.0215,-0.1831,-0.0610,-0.1831,1,509,873,0
11208386,51,0.0029,0.0381,1.0210,-0.1221,-0.0610,-0.2441,1,494,858,0
11213381,52,0.0024,0.0381,1.0190,-0.1831,0.0000,-0.1831,1,495,860,0
11218389,53,0.0024,0.0376,1.0186,-0.2441,0.0610,-0.1831,1,490,779,0
11223385,54,0.0029,0.0371,1.0195,-0.2441,0.0000,-0.1831,1,496,853,0
11228384,55,0.0034,0.0366,1.0200,-0.1831,-0.0610,-0.1831,1,503,812,0
11233385,56,0.0024,0.0366,1.0195,-0.0610,-0.0610,-0.1831,1,508,855,0
11238389,57,0.0015,0.0366,1.0190,-0.1831,-0.0610,-0.1221,1,464,873,0
11243386,58,0.0020,0.0366,1.0186,-0.0610,-0.0610,-0.1831,1,463,896,0
11248385,59,0.0024,0.0376,1.0181,-0.1831,-0.0610,-0.1221,1,464,897,0
11253382,60,0.0024,0.0386,1.0186,-0.3662,0.0610,-0.3052,1,464,866,0
11258387,61,0.0029,0.0391,1.0195,-0.3662,-0.0610,-0.1221,1,463,866,0
11263383,62,0.0024,0.0386,1.0190,-0.1221,-0.0610,-0.1221,1,464,895,0
11268388,63,0.0024,0.0376,1.0186,-0.2441,-0.0610,-0.0610,1,464,893,0
11273386,64,0.0034,0.0366,1.0181,-0.2441,0.0000,-0.1831,1,464,868,0
11278388,65,0.0044,0.0371,1.0181,-0.3052,0.0000,-0.1831,1,464,828,0
11283392,66,0.0044,0.0386,1.0190,-0.3052,0.0000,-0.3052,1,464,819,0
11288429,67,0.0039,0.0391,1.0195,-0.3052,0.0610,-0.3052,1,464,842,0
11293385,68,0.0029,0.0381,1.0195,-0.2441,-0.0610,-0.0610,1,463,888,0
11298381,69,0.0024,0.0366,1.0195,-0.3662,0.0000,-0.0610,1,464,854,0
11303383,70,0.0020,0.0361,1.0210,-0.3662,0.1831,-0.1221,1,509,714,0
11308381,71,0.0020,0.0366,1.0200,-0.1221,-0.1221,-0.1831,1,472,876,0
11313386,72,0.0020,0.0376,1.0186,-0.3052,-0.0610,-0.3052,1,497,903,0
11318386,73,0.0015,0.0386,1.0190,-0.3052,-0.0610,-0.1831,1,477,855,0
11323381,74,0.0020,0.0386,1.0200,-0.2441,-0.1221,-0.1221,1,492,882,0
11328385,75,0.0029,0.0381,1.0205,-0.1831,-0.0610,-0.1831,1,503,815,0
11333388,76,0.0034,0.0381,1.0200,-0.1221,-0.0610,-0.0610,1,505,851,0
11338388,77,0.0024,0.0376,1.0190,-0.1221,-0.0610,-0.1831,1,501,842,0
11343383,78,0.0024,0.0371,1.0186,-0.1831,-0.0610,-0.0610,1,508,821,0
11348383,79,0.0029,0.0376,1.0195,-0.3052,-0.0610,-0.0610,1,463,898,0
11353388,80,0.0024,0.0376,1.0205,-0.3052,-0.1221,-0.1221,1,463,894,0
11358387,81,0.0024,0.0376,1.0200,-0.2441,-0.0610,-0.0610,1,463,862,0
11363387,82,0.0024,0.0371,1.0195,-0.2441,0.0610,-0.1221,1,464,898,0
11368381,83,0.0024,0.0381,1.0200,-0.2441,-0.0610,-0.2441,1,464,901,0
11373382,84,0.0024,0.0386,1.0200,-0.2441,-0.0610,-0.0610,1,464,899,0
11378381,85,0.0029,0.0381,1.0195,-0.0610,0.0000,-0.0610,1,464,869,0
11383384,86,0.0034,0.0376,1.0195,-0.2441,0.0000,-0.1221,1,464,846,0
11388384,87,0.0029,0.0371,1.0200,-0.1831,0.0610,-0.1831,1,464,823,0
11393412,88,0.0029,0.0381,1.0210,-0.0610,0.0000,-0.0610,1,464,870,0
11398384,89,0.0034,0.0381,1.0195,-0.1221,-0.1221,-0.0610,1,463,813,0
11403386,90,0.0039,0.0376,1.0186,-0.3052,0.0000,-0.1831,1,508,890,0
11408385,91,0.0034,0.0371,1.0190,-0.2441,0.0610,-0.1221,1,484,717,0
11413385,92,0.0020,0.0376,1.0205,-0.2441,0.0000,-0.1221,1,509,756,0
11418381,93,0.0020,0.0381,1.0210,-0.1831,-0.0610,-0.1221,1,495,879,0
11423382,94,0.0024,0.0391,1.0210,-0.1831,-0.0610,-0.1221,1,492,850,0
11428383,95,0.0034,0.0396,1.0200,-0.1221,0.0610,-0.1831,1,499,852,0
11433387,96,0.0034,0.0386,1.0190,-0.2441,0.0610,-0.0610,1,503,789,0
11438387,97,0.0029,0.0376,1.0200,-0.3662,0.0000,-0.1221,1,504,866,0
11443384,98,0.0020,0.0381,1.0205,-0.2441,0.0610,-0.1221,1,505,771,0
11448384,99,0.0029,0.0381,1.0200,-0.1221,0.0000,-0.1831,1,509,845,0
11453386,100,0.0044,0.0381,1.0200,-0.1221,0.0000,0.0000,1,464,843,0
11458387,101,0.0044,0.0386,1.0190,-0.3052,0.0000,-0.1221,1,464,769,0
11463387,102,0.0034,0.0386,1.0190,-0.4272,-0.0610,-0.1831,1,463,815,0
11468382,103,0.0029,0.0376,1.0195,-0.1831,0.0000,-0.1221,1,463,875,0
11473381,104,0.0020,0.0371,1.0205,-0.1831,-0.0610,-0.1221,1,464,823,0
11478389,105,0.0020,0.0371,1.0200,-0.3052,-0.0610,0.0000,1,464,868,0
11483385,106,0.0034,0.0376,1.0200,-0.1831,-0.1221,-0.1221,1,464,848,0
11488387,107,0.0039,0.0376,1.0205,-0.2441,-0.0610,-0.3052,1,464,863,0
11493385,108,0.0039,0.0376,1.0210,-0.1831,0.0000,-0.1831,1,463,896,0
11498431,109,0.0034,0.0376,1.0200,-0.1831,-0.1221,-0.0610,1,463,853,0
11503385,110,0.0029,0.0386,1.0190,-0.2441,0.0000,-0.1221,1,464,896,0
11508383,111,0.0034,0.0381,1.0190,-0.1831,0.0000,-0.2441,1,509,812,0
11513383,112,0.0029,0.0381,1.0190,-0.2441,-0.1221,-0.1221,1,507,713,0
11518382,113,0.0029,0.0376,1.0181,-0.2441,-0.1221,-0.1221,1,470,861,0
11523385,114,0.0039,0.0376,1.0181,-0.1221,-0.0610,-0.1831,1,507,883,0
11528386,115,0.0039,0.0376,1.0195,-0.1831,0.0000,-0.1831,1,490,834,0
11533383,116,0.0034,0.0376,1.0210,-0.2441,0.1221,-0.1831,1,502,827,0
11538389,117,0.0044,0.0386,1.0210,-0.2441,0.0000,-0.1221,1,492,821,0
11543381,118,0.0044,0.0386,1.0195,-0.3052,-0.0610,-0.1221,1,490,771,0
11548387,119,0.0029,0.0386,1.0190,-0.1831,0.0610,-0.2441,1,508,814,0
11553385,120,0.0024,0.0386,1.0200,-0.1831,0.1221,-0.2441,1,464,823,0
11558386,121,0.0010,0.0391,1.0205,-0.1831,0.0610,-0.0610,1,463,899,0
11563386,122,0.0005,0.0391,1.0195,-0.3052,0.0000,-0.1221,1,463,861,0
11568384,123,0.0015,0.0386,1.0195,-0.1831,0.0000,-0.1221,1,463,842,0
11573381,124,0.0029,0.0371,1.0200,-0.2441,0.0000,-0.2441,1,464,821,0
11578387,125,0.0029,0.0371,1.0200,-0.3052,-0.0610,-0.1831,1,464,858,0
11583385,126,0.0039,0.0391,1.0210,-0.1831,0.1221,-0.2441,1,464,867,0
11588383,127,0.0044,0.0391,1.0210,-0.1221,-0.0610,-0.1221,1,464,896,0
11593387,128,0.0029,0.0386,1.0210,-0.3662,-0.1221,-0.1221,1,464,856,0
11598390,129,0.0029,0.0381,1.0210,-0.2441,0.0000,-0.0610,1,464,863,0
11603431,130,0.0034,0.0376,1.0205,-0.2441,-0.0610,-0.1221,1,463,847,0
11608384,131,0.0029,0.0371,1.0200,-0.3052,0.0000,-0.2441,1,464,866,0
11613383,132,0.0020,0.0376,1.0186,-0.1831,0.0000,-0.1831,1,465,708,0
11618386,133,0.0020,0.0381,1.0190,-0.0610,-0.0610,-0.1221,1,509,705,0
11623384,134,0.0024,0.0396,1.0195,-0.1831,0.0000,-0.1831,1,471,868,0
11628388,135,0.0034,0.0396,1.0200,-0.2441,-0.1221,-0.1831,1,509,790,0
11633381,136,0.0034,0.0381,1.0205,-0.2441,0.0000,-0.2441,1,492,860,0
11638388,137,0.0024,0.0376,1.0205,-0.1221,0.0610,-0.1221,1,506,750,0
11643386,138,0.0015,0.0376,1.0205,-0.1221,0.0000,-0.0610,1,506,787,0
11648384,139,0.0010,0.0381,1.0205,-0.1831,0.0610,-0.1831,1,489,797,0
11653386,140,0.0015,0.0376,1.0200,-0.2441,0.0000,-0.1221,1,508,846,0
11658386,141,0.0020,0.0376,1.0190,-0.2441,-0.0610,-0.3052,1,508,771,0
11663386,142,0.0034,0.0366,1.0181,-0.1831,0.0000,-0.1831,1,464,907,0
11668381,143,0.0034,0.0366,1.0176,-0.1221,-0.0610,-0.1221,1,463,829,0
11673388,144,0.0020,0.0376,1.0181,-0.2441,-0.0610,-0.1831,1,464,896,0
11678386,145,0.0024,0.0376,1.0176,-0.1221,-0.0610,-0.2441,1,463,869,0
11683385,146,0.0039,0.0371,1.0176,-0.1221,0.0000,-0.1221,1,464,869,0
11688390,147,0.0039,0.0371,1.0195,-0.1221,0.0610,-0.1831,1,464,847,0
11693383,148,0.0029,0.0371,1.0215,-0.2441,0.0000,-0.1831,1,463,873,0
11698389,149,0.0029,0.0371,1.0210,-0.3052,0.0610,-0.1831,1,464,857,0
11703384,150,0.0029,0.0371,1.0205,-0.1831,0.0610,-0.1221,1,464,865,0
11708384,151,0.0029,0.0376,1.0205,-0.1831,0.0610,-0.1221,1,463,869,0
11713388,152,0.0039,0.0371,1.0205,-0.1221,0.0000,-0.1221,1,464,865,0
11718385,153,0.0039,0.0371,1.0210,-0.2441,0.0610,-0.2441,1,482,810,0
11723387,154,0.0039,0.0381,1.0220,-0.3052,0.1221,-0.1221,1,509,862,0
11728382,155,0.0044,0.0386,1.0225,-0.1221,0.0000,-0.0610,1,509,752,0
11733383,156,0.0039,0.0381,1.0220,-0.1221,-0.1221,-0.1221,1,509,805,0
11738384,157,0.0039,0.0376,1.0210,-0.1831,-0.1221,-0.1831,1,495,828,0
11743382,158,0.0044,0.0386,1.0200,-0.1831,0.0000,-0.1221,1,501,866,0
11748384,159,0.0049,0.0396,1.0210,-0.1831,-0.0610,-0.1831,1,508,772,0
11753388,160,0.0044,0.0396,1.0210,-0.3052,-0.0610,-0.1221,1,489,850,0
11758383,161,0.0034,0.0391,1.0200,-0.2441,0.0610,-0.1221,1,490,839,0
11763382,162,0.0029,0.0381,1.0181,-0.1221,0.1221,-0.1221,1,508,844,0
11768385,163,0.0039,0.0371,1.0181,-0.1831,-0.0610,-0.0610,1,464,855,0
11773385,164,0.0029,0.0381,1.0190,-0.1831,-0.0610,-0.1221,1,463,898,0
11778381,165,0.0010,0.0386,1.0190,-0.1831,-0.0610,-0.2441,1,463,866,0
11783388,166,0.0015,0.0376,1.0190,-0.2441,0.0610,-0.1221,1,464,868,0
11788383,167,0.0024,0.0366,1.0205,-0.2441,0.0000,-0.1221,1,463,894,0
11793386,168,0.0029,0.0361,1.0215,-0.0610,-0.1831,-0.1221,1,464,826,0
11798386,169,0.0029,0.0371,1.0210,-0.1831,-0.1221,-0.1221,1,464,870,0
11803381,170,0.0034,0.0381,1.0205,-0.2441,-0.0610,-0.0610,1,463,866,0
11808388,171,0.0034,0.0386,1.0200,-0.2441,0.0000,-0.1831,1,464,895,0
11813424,172,0.0029,0.0391,1.0200,-0.3052,0.1221,-0.3052,1,464,824,0
11818383,173,0.0029,0.0386,1.0195,-0.2441,0.0000,-0.2441,1,464,855,0
11823385,174,0.0024,0.0376,1.0195,-0.1831,-0.0610,-0.1831,1,508,826,0
11828386,175,0.0015,0.0366,1.0190,-0.1221,0.0610,-0.1221,1,478,864,0
11833385,176,0.0015,0.0376,1.0195,-0.1221,-0.1221,-0.1221,1,510,745,0
11838387,177,0.0024,0.0381,1.0205,-0.1831,-0.0610,-0.0610,1,500,879,0
11843388,178,0.0024,0.0381,1.0200,-0.1831,0.0000,-0.0610,1,505,828,0
11848384,179,0.0024,0.0381,1.0195,-0.2441,0.0000,-0.1221,1,491,745,0
11853384,180,0.0029,0.0386,1.0210,-0.1831,-0.0610,-0.1831,1,501,805,0
11858381,181,0.0044,0.0391,1.0205,-0.1831,-0.0610,-0.0610,1,508,851,0
11863386,182,0.0049,0.0386,1.0195,-0.1221,0.0610,0.0000,1,495,817,0
11868388,183,0.0034,0.0386,1.0186,-0.2441,0.0610,-0.1221,1,508,800,0
11873385,184,0.0020,0.0391,1.0186,-0.1831,0.0610,-0.1831,1,463,896,0
11878384,185,0.0020,0.0391,1.0195,-0.1221,0.0610,-0.1831,1,464,896,0
11883389,186,0.0029,0.0386,1.0205,-0.2441,0.1221,-0.1831,1,464,895,0
11888382,187,0.0034,0.0376,1.0210,-0.2441,0.0610,-0.1221,1,464,900,0
11893389,188,0.0029,0.0366,1.0210,-0.1831,0.0610,-0.1221,1,464,897,0
11898387,189,0.0010,0.0371,1.0215,-0.1831,0.1221,-0.1831,1,464,896,0
11903386,190,0.0000,0.0386,1.0210,-0.3052,0.0000,-0.1831,1,464,896,0
11908387,191,0.0015,0.0400,1.0220,-0.3052,-0.0610,-0.0610,1,463,808,0
11913385,192,0.0024,0.0396,1.0225,-0.1221,-0.1831,-0.1831,1,464,859,0
11918432,193,0.0024,0.0386,1.0210,-0.1831,0.0000,-0.1831,1,464,899,0
11923389,194,0.0034,0.0386,1.0200,-0.1831,0.0000,-0.1221,1,464,853,0
11928386,195,0.0039,0.0386,1.0195,-0.1221,-0.0610,-0.1831,1,507,840,0
11933382,196,0.0029,0.0386,1.0195,-0.2441,0.0610,-0.1221,1,486,888,0
11938388,197,0.0024,0.0376,1.0205,-0.3662,0.0000,-0.1831,1,508,754,0
11943386,198,0.0034,0.0371,1.0210,-0.1831,-0.1221,-0.1831,1,505,789,0
11948381,199,0.0039,0.0371,1.0220,-0.1221,-0.0610,0.0000,1,493,861,0
11953383,200,0.0029,0.0376,1.0225,-0.2441,-0.0610,-0.0610,1,506,746,0
11958382,201,0.0029,0.0381,1.0220,-0.1831,-0.1221,-0.1221,1,506,818,0
11963389,202,0.0029,0.0376,1.0205,-0.1831,0.0610,-0.1221,1,497,844,0
11968388,203,0.0024,0.0376,1.0200,-0.1831,-0.1221,0.0000,1,496,819,0
11973384,204,0.0024,0.0371,1.0195,-0.2441,-0.0610,-0.1221,1,508,804,0
11978382,205,0.0029,0.0371,1.0186,-0.2441,0.0000,-0.0610,1,464,914,0
11983384,206,0.0034,0.0376,1.0186,-0.2441,-0.0610,-0.1221,1,464,855,0
11988384,207,0.0024,0.0376,1.0195,-0.2441,0.1221,-0.2441,1,464,897,0
11993389,208,0.0020,0.0376,1.0205,-0.1221,-0.0610,-0.1221,1,463,904,0
11998381,209,0.0024,0.0381,1.0215,-0.1831,-0.1221,-0.1221,1,464,890,0
12003387,210,0.0029,0.0391,1.0205,-0.1831,-0.0610,-0.2441,1,464,895,0
12008386,211,0.0034,0.0386,1.0190,-0.1831,0.0000,-0.2441,1,464,869,0
12013389,212,0.0024,0.0376,1.0195,-0.2441,0.0610,-0.1221,1,464,828,0
12018390,213,0.0015,0.0371,1.0200,-0.1831,-0.0610,-0.1221,1,464,899,0
12023412,214,0.0024,0.0371,1.0200,-0.3052,0.0000,-0.1831,1,464,864,0
12028387,215,0.0039,0.0376,1.0190,-0.2441,0.0000,-0.1831,1,464,852,0
12033382,216,0.0029,0.0381,1.0200,-0.2441,0.0610,-0.1221,1,508,846,0
12038382,217,0.0015,0.0391,1.0215,-0.1221,-0.1221,-0.1221,1,497,853,0
12043389,218,0.0005,0.0391,1.0205,-0.2441,-0.0610,-0.1221,1,465,893,0
12048381,219,0.0005,0.0381,1.0190,-0.1831,0.0000,-0.1831,1,509,879,0
12053387,220,0.0034,0.0376,1.0210,-0.2441,-0.0610,-0.1831,1,502,818,0
12058388,221,0.0039,0.0381,1.0205,-0.3052,0.0000,-0.1831,1,501,832,0
12063382,222,0.0039,0.0381,1.0200,-0.1831,-0.0610,-0.2441,1,500,773,0
12068389,223,0.0039,0.0381,1.0205,-0.1221,-0.0610,-0.1221,1,492,822,0
12073386,224,0.0034,0.0391,1.0205,-0.2441,-0.0610,-0.1221,1,508,814,0
12078387,225,0.0034,0.0386,1.0210,-0.1221,0.1221,-0.1221,1,508,818,0
12083386,226,0.0029,0.0376,1.0215,-0.1831,0.0000,-0.1221,1,464,888,0
12088383,227,0.0024,0.0376,1.0210,-0.2441,0.0610,-0.2441,1,464,849,0
12093384,228,0.0024,0.0386,1.0215,-0.1831,0.0000,-0.1831,1,464,899,0
12098387,229,0.0024,0.0386,1.0220,-0.1221,-0.1221,-0.1831,1,464,828,0
12103385,230,0.0029,0.0381,1.0220,-0.1831,-0.1221,-0.1221,1,464,896,0
12108387,231,0.0034,0.0376,1.0210,-0.1221,0.0000,-0.1831,1,464,864,0
12113387,232,0.0024,0.0371,1.0215,-0.1831,0.0000,-0.1831,1,464,851,0
12118381,233,0.0015,0.0366,1.0220,-0.2441,0.0000,-0.2441,1,463,829,0
12123384,234,0.0020,0.0371,1.0215,-0.1831,-0.0610,-0.1221,1,464,855,0
12128381,235,0.0020,0.0381,1.0205,-0.1831,-0.0610,-0.1831,1,464,867,0
12133388,236,0.0020,0.0381,1.0200,-0.1831,-0.1831,-0.1831,1,464,865,0
12138388,237,0.0024,0.0376,1.0186,-0.1831,-0.1831,-0.1831,1,464,898,0
12143386,238,0.0020,0.0366,1.0171,-0.2441,0.0610,-0.2441,1,465,893,0
12148387,239,0.0015,0.0366,1.0176,-0.3052,-0.0610,-0.1221,1,510,860,0
12153382,240,0.0020,0.0366,1.0186,-0.3052,-0.0610,-0.0610,1,488,885,0
12158381,241,0.0024,0.0366,1.0200,-0.2441,0.0610,-0.1221,1,499,823,0
12163388,242,0.0024,0.0366,1.0215,-0.1831,-0.1221,-0.0610,1,499,867,0
12168387,243,0.0024,0.0376,1.0220,-0.3662,0.0000,-0.1831,1,501,794,0
12173389,244,0.0034,0.0386,1.0210,-0.1831,-0.0610,-0.2441,1,491,781,0
12178386,245,0.0034,0.0391,1.0190,-0.3052,0.0000,-0.2441,1,496,853,0
12183387,246,0.0029,0.0386,1.0186,-0.1831,0.0000,-0.1221,1,508,772,0
12188388,247,0.0029,0.0381,1.0200,-0.2441,0.0000,-0.1221,1,463,817,0
12193382,248,0.0029,0.0386,1.0210,-0.1831,-0.0610,-0.1831,1,463,819,0
12198389,249,0.0024,0.0381,1.0210,-0.0610,0.0000,-0.2441,1,464,868,0
12203386,250,0.0020,0.0366,1.0205,-0.3052,0.0610,-0.1221,1,464,849,0
12208388,251,0.0020,0.0366,1.0210,-0.2441,0.0000,-0.1831,1,464,863,0
12213383,252,0.0024,0.0371,1.0210,-0.2441,-0.1221,-0.0610,1,464,856,0
12218383,253,0.0029,0.0376,1.0195,-0.3052,0.0000,-0.1221,1,464,869,0
12223387,254,0.0020,0.0381,1.0200,-0.2441,0.0000,-0.0610,1,464,847,0
12228383,255,0.0020,0.0386,1.0215,-0.3052,-0.1221,-0.0610,1,464,848,0
12233382,256,0.0029,0.0391,1.0220,-0.1221,-0.1221,-0.2441,1,464,888,0
12238411,257,0.0024,0.0386,1.0205,-0.2441,-0.0610,-0.2441,1,464,862,0
12243389,258,0.0015,0.0381,1.0190,-0.1831,0.0610,-0.1221,1,464,901,0
12248388,259,0.0015,0.0376,1.0195,-0.3052,0.0000,-0.1221,1,507,860,0
12253382,260,0.0024,0.0381,1.0215,-0.2441,-0.0610,-0.1221,1,488,737,0
12258388,261,0.0029,0.0386,1.0220,-0.1831,0.0000,-0.1221,1,509,781,0
12263387,262,0.0034,0.0381,1.0220,-0.2441,0.0000,-0.2441,1,477,780,0
12268384,263,0.0039,0.0376,1.0220,-0.3052,0.0610,-0.2441,1,506,822,0
12273385,264,0.0034,0.0371,1.0225,-0.3052,-0.0610,-0.1221,1,494,857,0
12278382,265,0.0034,0.0371,1.0225,-0.2441,0.0000,-0.0610,1,502,863,0
12283382,266,0.0029,0.0381,1.0215,-0.2441,0.0000,-0.0610,1,490,808,0
12288388,267,0.0034,0.0381,1.0200,-0.3052,0.0000,-0.1221,1,494,801,0
12293384,268,0.0039,0.0376,1.0190,-0.2441,0.0000,-0.1831,1,507,768,0
12298387,269,0.0039,0.0381,1.0200,-0.1831,0.0610,-0.1221,1,463,827,0
12303381,270,0.0044,0.0381,1.0200,-0.1831,0.0610,-0.0610,1,463,893,0
12308386,271,0.0039,0.0381,1.0190,-0.1221,0.0000,-0.0610,1,464,894,0
12313389,272,0.0029,0.0381,1.0200,-0.2441,0.0610,-0.1831,1,464,818,0
12318388,273,0.0034,0.0381,1.0215,-0.3052,0.0610,-0.2441,1,464,897,0
12323384,274,0.0029,0.0381,1.0220,-0.3052,-0.0610,-0.1831,1,464,893,0
12328387,275,0.0015,0.0376,1.0210,-0.1831,-0.1221,-0.1221,1,463,893,0
12333388,276,0.0005,0.0366,1.0195,-0.1221,0.0000,-0.1221,1,464,890,0
12338381,277,0.0015,0.0366,1.0190,-0.2441,-0.0610,-0.0610,1,464,817,0
12343388,278,0.0034,0.0371,1.0200,-0.1221,-0.0610,-0.0610,1,464,868,0
12348412,279,0.0034,0.0371,1.0210,-0.1831,0.0610,-0.1831,1,464,894,0
12353381,280,0.0029,0.0381,1.0215,-0.2441,0.0000,-0.1831,1,464,901,0
12358387,281,0.0034,0.0386,1.0215,-0.2441,0.0000,-0.1221,1,507,822,0
12363386,282,0.0034,0.0386,1.0205,-0.3052,0.0000,-0.0610,1,491,737,0
12368381,283,0.0029,0.0386,1.0195,-0.1831,-0.0610,-0.0610,1,502,815,0
12373389,284,0.0034,0.0381,1.0200,-0.3052,0.0610,-0.2441,1,472,904,0
12378383,285,0.0039,0.0386,1.0200,-0.1831,-0.0610,-0.1831,1,490,854,0
12383384,286,0.0029,0.0386,1.0195,-0.1831,-0.0610,-0.1831,1,504,838,0
12388387,287,0.0020,0.0381,1.0215,-0.2441,-0.0610,-0.0610,1,510,871,0
12393385,288,0.0020,0.0376,1.0220,-0.1831,-0.0610,-0.1221,1,488,817,0
12398388,289,0.0029,0.0381,1.0200,-0.1831,-0.0610,-0.1831,1,472,846,0
12403384,290,0.0024,0.0381,1.0195,-0.3052,0.0610,-0.1221,1,489,850,0
12408384,291,0.0010,0.0381,1.0200,-0.3052,0.1221,-0.2441,1,508,845,0
12413382,292,0.0010,0.0381,1.0205,-0.2441,0.0000,-0.1831,1,464,886,0
12418387,293,0.0024,0.0376,1.0210,-0.3052,-0.0610,-0.1221,1,464,820,0
12423389,294,0.0044,0.0371,1.0215,-0.3052,-0.0610,-0.1831,1,464,891,0
12428388,295,0.0039,0.0376,1.0215,-0.1831,0.0000,-0.1221,1,464,869,0
12433388,296,0.0029,0.0381,1.0205,-0.2441,0.0000,-0.0610,1,464,852,0
12438387,297,0.0034,0.0381,1.0210,-0.2441,-0.0610,-0.1221,1,464,851,0
12443385,298,0.0039,0.0376,1.0205,-0.1831,-0.0610,-0.1831,1,464,896,0
12448386,299,0.0039,0.0381,1.0190,-0.2441,0.0610,-0.1831,1,464,871,0
12453386,300,0.0024,0.0381,1.0186,-0.1831,0.0000,-0.1831,1,463,898,0
12458397,301,0.0015,0.0386,1.0200,-0.3052,0.0000,-0.0610,1,464,854,0
12463388,302,0.0020,0.0386,1.0215,-0.2441,0.0610,-0.1221,1,464,813,0
12468383,303,0.0024,0.0386,1.0210,-0.3052,0.0610,-0.1831,1,481,892,0
12473390,304,0.0024,0.0386,1.0215,-0.2441,0.0000,-0.0610,1,474,854,0
12478389,305,0.0020,0.0381,1.0220,-0.1831,0.0000,-0.1221,1,509,766,0
12483384,306,0.0029,0.0376,1.0220,-0.3052,-0.0610,-0.1221,1,484,778,0
12488389,307,0.0039,0.0381,1.0215,-0.1831,-0.0610,-0.1831,1,497,849,0
12493386,308,0.0034,0.0386,1.0205,-0.3052,0.0000,-0.1831,1,498,859,0
12498386,309,0.0024,0.0391,1.0205,-0.3662,0.0000,-0.0610,1,485,775,0
12503381,310,0.0015,0.0391,1.0200,-0.2441,0.0610,-0.0610,1,508,774,0
12508384,311,0.0015,0.0381,1.0195,-0.2441,0.0000,-0.1831,1,496,841,0
12513389,312,0.0015,0.0371,1.0195,-0.1221,0.0000,-0.1221,1,508,776,0
12518382,313,0.0024,0.0366,1.0190,-0.2441,0.0610,-0.1221,1,464,844,0
12523383,314,0.0029,0.0371,1.0200,-0.1831,-0.0610,-0.1831,1,463,872,0
12528386,315,0.0029,0.0371,1.0210,-0.1221,0.0610,-0.1831,1,464,873,0
12533384,316,0.0029,0.0381,1.0200,-0.1831,0.0610,-0.1221,1,464,868,0
12538386,317,0.0039,0.0391,1.0186,-0.1831,-0.1221,-0.1221,1,464,863,0
12543383,318,0.0034,0.0391,1.0186,-0.1831,-0.1221,-0.1221,1,464,894,0
12548386,319,0.0024,0.0381,1.0190,-0.2441,0.0000,-0.0610,1,463,892,0
12553387,320,0.0029,0.0366,1.0200,-0.1221,-0.0610,-0.1221,1,464,853,0
12558381,321,0.0044,0.0371,1.0205,-0.1831,0.0000,-0.0610,1,464,864,0
12563381,322,0.0049,0.0381,1.0210,-0.2441,0.0000,-0.0610,1,464,824,0
12568385,323,0.0034,0.0386,1.0215,-0.1831,-0.2441,-0.1221,1,464,816,0
12573384,324,0.0029,0.0381,1.0215,-0.3052,-0.0610,-0.0610,1,464,868,0
12578382,325,0.0029,0.0376,1.0210,-0.1831,-0.0610,-0.1221,1,507,859,0
12583390,326,0.0029,0.0381,1.0205,-0.0610,-0.0610,-0.1221,1,485,853,0
12588389,327,0.0029,0.0381,1.0200,-0.1221,0.0000,-0.0610,1,509,850,0
12593382,328,0.0044,0.0376,1.0200,-0.1221,-0.0610,-0.1221,1,494,804,0
12598385,329,0.0044,0.0376,1.0210,-0.1221,-0.1221,-0.2441,1,488,829,0
12603385,330,0.0024,0.0376,1.0225,-0.2441,-0.0610,-0.1221,1,489,860,0
12608389,331,0.0020,0.0376,1.0210,-0.3052,0.0610,-0.1831,1,489,791,0
12613384,332,0.0024,0.0376,1.0190,-0.2441,0.0610,-0.1831,1,495,815,0
12618384,333,0.0020,0.0386,1.0186,-0.1831,0.0000,-0.1831,1,508,826,0
12623382,334,0.0015,0.0381,1.0190,-0.1221,0.0000,-0.1221,1,508,805,0
12628387,335,0.0024,0.0371,1.0200,-0.2441,0.0000,-0.1831,1,464,811,0
12633384,336,0.0039,0.0376,1.0210,-0.3052,0.0000,-0.1221,1,464,857,0
12638388,337,0.0049,0.0376,1.0205,-0.2441,-0.0610,-0.1831,1,464,846,0
12643382,338,0.0034,0.0381,1.0205,-0.3052,-0.0610,-0.1831,1,464,900,0
12648387,339,0.0034,0.0386,1.0205,-0.2441,0.0000,-0.1831,1,464,866,0
12653384,340,0.0039,0.0381,1.0210,-0.1831,0.0610,-0.1221,1,464,857,0
12658381,341,0.0044,0.0376,1.0215,-0.2441,0.0000,-0.1221,1,464,894,0
12663387,342,0.0039,0.0371,1.0215,-0.2441,0.0610,-0.1221,1,464,848,0
12668387,343,0.0034,0.0371,1.0200,-0.2441,0.0000,-0.1831,1,463,870,0
12673393,344,0.0029,0.0371,1.0186,-0.1221,-0.0610,-0.1221,1,464,858,0
12678387,345,0.0029,0.0376,1.0190,-0.1221,-0.0610,-0.1221,1,464,861,0
12683388,346,0.0020,0.0386,1.0200,-0.1831,-0.1221,-0.1221,1,464,889,0
12688386,347,0.0005,0.0391,1.0205,-0.2441,0.0610,-0.1831,1,466,882,0
12693382,348,0.0005,0.0381,1.0205,-0.1831,-0.0610,-0.1221,1,509,882,0
12698383,349,0.0020,0.0376,1.0215,-0.1831,0.0000,0.0000,1,480,908,0
12703382,350,0.0024,0.0381,1.0215,-0.2441,0.1221,-0.0610,1,483,792,0
12708384,351,0.0029,0.0376,1.0220,-0.3052,0.0610,-0.1221,1,490,862,0
12713385,352,0.0029,0.0376,1.0220,-0.3052,0.0000,-0.1831,1,492,813,0
12718382,353,0.0029,0.0376,1.0205,-0.1831,0.0000,-0.1221,1,501,802,0
12723386,354,0.0039,0.0366,1.0190,-0.1221,0.0000,-0.1831,1,488,805,0
12728383,355,0.0039,0.0366,1.0181,-0.3052,-0.0610,-0.1831,1,505,808,0
12733389,356,0.0024,0.0376,1.0190,-0.1831,-0.0610,-0.1831,1,464,894,0
12738384,357,0.0020,0.0381,1.0205,0.0000,0.0610,-0.1221,1,464,873,0
12743385,358,0.0024,0.0381,1.0195,-0.1221,0.0610,-0.0610,1,463,817,0
12748382,359,0.0024,0.0391,1.0181,-0.1831,0.0610,-0.0610,1,464,866,0
12753387,360,0.0015,0.0396,1.0190,-0.2441,-0.0610,-0.2441,1,464,865,0
12758387,361,0.0015,0.0391,1.0205,-0.2441,-0.0610,-0.1221,1,464,897,0
12763381,362,0.0024,0.0381,1.0205,-0.1221,0.0000,-0.1221,1,464,891,0
12768383,363,0.0029,0.0376,1.0205,-0.2441,-0.1221,-0.1831,1,464,816,0
12773389,364,0.0020,0.0371,1.0210,-0.1221,-0.0610,-0.1221,1,463,913,0
12778400,365,0.0024,0.0371,1.0205,-0.1831,0.0610,-0.1831,1,463,891,0
12783381,366,0.0029,0.0371,1.0205,-0.1831,0.0000,-0.2441,1,464,903,0
12788384,367,0.0029,0.0381,1.0210,-0.2441,-0.1221,-0.1831,1,507,855,0
12793383,368,0.0024,0.0381,1.0215,-0.2441,0.0000,-0.0610,1,484,855,0
12798386,369,0.0010,0.0376,1.0215,-0.2441,-0.0610,-0.1221,1,506,820,0
12803388,370,0.0005,0.0376,1.0215,-0.1831,0.0000,-0.1221,1,465,832,0
12808383,371,0.0015,0.0376,1.0210,-0.2441,0.0610,-0.0610,1,483,807,0
12813386,372,0.0015,0.0386,1.0200,-0.1221,-0.1221,-0.0610,1,491,861,0
12818386,373,0.0020,0.0386,1.0195,-0.2441,-0.0610,-0.1831,1,493,875,0
12823388,374,0.0029,0.0381,1.0200,-0.1831,0.0000,-0.1221,1,500,854,0
12828385,375,0.0029,0.0381,1.0200,-0.1831,0.0610,-0.2441,1,495,798,0
12833386,376,0.0029,0.0386,1.0195,-0.3052,0.0000,-0.2441,1,504,820,0
12838385,377,0.0029,0.0396,1.0195,-0.1831,-0.1221,-0.1221,1,491,823,0
12843389,378,0.0029,0.0396,1.0200,-0.2441,-0.0610,-0.1831,1,463,866,0
12848383,379,0.0029,0.0386,1.0210,-0.2441,0.0000,-0.1831,1,464,900,0
12853386,380,0.0034,0.0391,1.0205,-0.2441,-0.1221,-0.1221,1,464,826,0
12858383,381,0.0039,0.0386,1.0195,-0.1831,-0.0610,-0.0610,1,463,895,0
12863386,382,0.0024,0.0386,1.0195,-0.1221,-0.1831,-0.1221,1,464,872,0
12868385,383,0.0015,0.0391,1.0190,-0.0610,-0.0610,-0.1221,1,464,869,0
12873383,384,0.0020,0.0391,1.0190,-0.0610,0.1221,-0.2441,1,464,857,0
12878385,385,0.0034,0.0376,1.0195,-0.2441,0.0000,-0.1831,1,463,863,0
12883384,386,0.0039,0.0381,1.0205,-0.4272,0.0000,-0.1221,1,464,859,0
12888429,387,0.0034,0.0391,1.0225,-0.2441,-0.0610,-0.1221,1,464,850,0
12893389,388,0.0020,0.0386,1.0229,-0.2441,-0.1221,-0.2441,1,464,865,0
12898382,389,0.0010,0.0381,1.0220,-0.1831,-0.1221,-0.1221,1,507,900,0
12903389,390,0.0024,0.0386,1.0210,-0.1221,0.0610,-0.1221,1,490,848,0
12908381,391,0.0044,0.0391,1.0195,-0.1831,0.0000,-0.1221,1,492,858,0
12913386,392,0.0044,0.0391,1.0190,-0.1831,0.0000,-0.1221,1,473,817,0
12918384,393,0.0034,0.0386,1.0210,-0.1831,-0.0610,-0.1831,1,476,742,0
12923389,394,0.0024,0.0386,1.0215,-0.1221,0.0000,-0.1221,1,504,860,0
12928381,395,0.0024,0.0386,1.0195,-0.1831,-0.1221,-0.1221,1,490,798,0
12933384,396,0.0024,0.0381,1.0195,-0.1831,-0.1221,-0.1831,1,495,850,0
12938385,397,0.0034,0.0371,1.0200,-0.3052,-0.0610,-0.0610,1,499,854,0
12943390,398,0.0039,0.0371,1.0205,-0.1831,-0.0610,-0.0610,1,492,847,0
12948384,399,0.0039,0.0386,1.0195,-0.2441,-0.1221,-0.1221,1,463,873,0
12953386,400,0.0039,0.0381,1.0195,-0.2441,-0.0610,-0.3662,1,464,898,0
12958381,401,0.0039,0.0371,1.0200,-0.3052,-0.0610,-0.1831,1,464,874,0
12963383,402,0.0039,0.0371,1.0200,-0.2441,-0.0610,-0.1831,1,464,871,0
12968381,403,0.0034,0.0376,1.0195,-0.1831,-0.1221,-0.1221,1,464,904,0
12973382,404,0.0020,0.0381,1.0190,-0.1831,0.0610,-0.1221,1,464,898,0
12978388,405,0.0015,0.0381,1.0195,-0.2441,0.0610,-0.2441,1,464,894,0
12983381,406,0.0015,0.0381,1.0210,-0.1831,-0.0610,-0.0610,1,464,899,0
12988382,407,0.0020,0.0381,1.0215,-0.1831,0.0000,-0.0610,1,464,861,0
12993423,408,0.0024,0.0381,1.0205,-0.3052,0.0610,-0.1221,1,464,846,0
12998388,409,0.0020,0.0376,1.0200,-0.3052,0.0000,-0.1831,1,464,861,0
13003384,410,0.0015,0.0366,1.0210,-0.1831,0.0000,-0.1221,1,508,838,0
13008388,411,0.0015,0.0361,1.0215,-0.1831,0.0610,-0.1831,1,483,815,0
13013389,412,0.0015,0.0371,1.0215,-0.2441,-0.0610,-0.1831,1,509,795,0
13018385,413,0.0024,0.0391,1.0205,-0.1831,-0.0610,-0.1221,1,480,930,0
13023388,414,0.0024,0.0396,1.0200,-0.1221,-0.0610,-0.1221,1,489,864,0
13028389,415,0.0020,0.0396,1.0200,-0.1221,-0.1221,-0.2441,1,490,852,0
13033382,416,0.0024,0.0391,1.0210,-0.1831,-0.0610,-0.1831,1,491,843,0
13038389,417,0.0034,0.0376,1.0210,-0.2441,0.0610,-0.1221,1,500,850,0
13043382,418,0.0034,0.0366,1.0200,-0.1221,-0.1221,0.0000,1,489,846,0
13048386,419,0.0034,0.0366,1.0186,-0.1221,-0.0610,-0.1221,1,508,774,0
13053382,420,0.0029,0.0371,1.0181,-0.0610,-0.1221,-0.1831,1,464,865,0
13058389,421,0.0024,0.0376,1.0186,-0.1831,-0.0610,-0.1221,1,464,867,0
13063389,422,0.0020,0.0371,1.0186,-0.1831,-0.1221,-0.1831,1,464,897,0
13068384,423,0.0020,0.0361,1.0190,-0.1221,-0.0610,-0.1831,1,464,873,0
13073385,424,0.0020,0.0361,1.0195,-0.3052,-0.0610,-0.1221,1,464,870,0
13078382,425,0.0029,0.0366,1.0200,-0.3052,-0.0610,-0.1221,1,464,866,0
13083388,426,0.0029,0.0366,1.0195,-0.1221,0.0610,-0.1831,1,464,893,0
13088384,427,0.0020,0.0371,1.0190,-0.1221,-0.0610,-0.1221,1,464,901,0
13093389,428,0.0024,0.0381,1.0200,-0.1221,-0.0610,-0.0610,1,463,865,0
13098402,429,0.0029,0.0386,1.0220,-0.1831,0.0000,-0.0610,1,463,892,0
13103411,430,0.0034,0.0386,1.0234,-0.3052,0.0000,-0.0610,1,463,850,0
13108381,431,0.0039,0.0386,1.0229,-0.2441,-0.0610,-0.1831,1,480,849,0
13113383,432,0.0044,0.0381,1.0220,-0.2441,-0.0610,-0.1831,1,479,865,0
13118385,433,0.0034,0.0371,1.0215,-0.3052,0.0000,-0.1221,1,510,887,0
13123387,434,0.0020,0.0371,1.0220,-0.1831,0.0000,-0.1221,1,481,789,0
13128382,435,0.0024,0.0371,1.0210,-0.2441,-0.0610,-0.1221,1,506,820,0
13133390,436,0.0029,0.0376,1.0190,-0.3052,-0.0610,-0.1221,1,489,868,0
13138381,437,0.0024,0.0386,1.0190,-0.2441,-0.1221,-0.1221,1,507,852,0
13143384,438,0.0024,0.0391,1.0210,-0.0610,-0.0610,-0.0610,1,497,821,0
13148384,439,0.0029,0.0381,1.0215,-0.1831,0.0000,0.0000,1,498,844,0
13153381,440,0.0020,0.0381,1.0205,-0.1831,0.0000,-0.0610,1,509,758,0
13158384,441,0.0005,0.0386,1.0200,-0.3052,0.0610,-0.1831,1,464,816,0
13163384,442,0.0010,0.0396,1.0210,-0.3662,0.0000,-0.0610,1,464,859,0
13168389,443,0.0024,0.0400,1.0220,-0.2441,-0.0610,-0.1831,1,463,847,0
13173384,444,0.0034,0.0391,1.0215,-0.1221,-0.0610,-0.1831,1,464,873,0
13178381,445,0.0039,0.0381,1.0205,-0.2441,-0.1221,-0.0610,1,464,865,0
13183389,446,0.0034,0.0371,1.0200,-0.1831,-0.1221,-0.0610,1,463,868,0
13188383,447,0.0024,0.0371,1.0195,-0.1831,-0.1221,-0.1221,1,464,899,0
13193386,448,0.0020,0.0381,1.0200,-0.0610,-0.1221,-0.2441,1,463,873,0
13198381,449,0.0020,0.0386,1.0215,-0.1831,0.0000,-0.1831,1,464,891,0
13203384,450,0.0020,0.0386,1.0225,-0.3662,0.0610,-0.1831,1,463,854,0
13208386,451,0.0024,0.0381,1.0215,-0.2441,-0.1221,-0.1831,1,463,898,0
13213386,452,0.0039,0.0376,1.0205,-0.0610,-0.0610,-0.2441,1,464,897,0
13218386,453,0.0039,0.0371,1.0205,-0.1221,0.0000,0.0000,1,507,869,0
13223384,454,0.0044,0.0376,1.0210,-0.1831,-0.1221,-0.0610,1,480,830,0
13228388,455,0.0044,0.0391,1.0195,-0.1831,-0.0610,-0.1221,1,509,880,0
13233386,456,0.0024,0.0386,1.0195,-0.1831,0.0610,-0.1831,1,477,834,0
13238383,457,0.0024,0.0391,1.0200,-0.2441,0.0000,-0.2441,1,484,872,0
13243382,458,0.0024,0.0396,1.0195,-0.2441,0.0610,-0.1221,1,491,821,0
13248384,459,0.0024,0.0386,1.0205,-0.3052,0.0000,-0.1221,1,495,822,0
13253385,460,0.0034,0.0381,1.0215,-0.3052,0.0000,-0.1831,1,497,800,0
13258387,461,0.0034,0.0376,1.0210,-0.1831,-0.0610,-0.1221,1,488,802,0
13263383,462,0.0024,0.0376,1.0190,-0.2441,0.0610,-0.1831,1,509,848,0
13268382,463,0.0015,0.0371,1.0181,-0.2441,-0.0610,-0.1831,1,463,887,0
13273384,464,0.0024,0.0376,1.0195,-0.1831,-0.1221,-0.1221,1,464,898,0
13278385,465,0.0029,0.0381,1.0205,-0.1831,-0.0610,-0.1221,1,464,870,0
13283381,466,0.0024,0.0391,1.0210,-0.3052,-0.0610,-0.1831,1,464,865,0
13288385,467,0.0024,0.0391,1.0210,-0.2441,-0.0610,-0.1221,1,464,863,0
13293382,468,0.0029,0.0381,1.0200,-0.1831,-0.0610,0.0000,1,464,893,0
13298383,469,0.0029,0.0381,1.0190,-0.3052,-0.0610,-0.0610,1,463,852,0
13303385,470,0.0024,0.0386,1.0186,-0.2441,-0.0610,-0.1221,1,464,889,0
13308386,471,0.0029,0.0386,1.0186,-0.1221,0.0610,-0.1221,1,464,898,0
13313388,472,0.0039,0.0386,1.0181,-0.1221,0.0000,-0.1221,1,464,889,0
13318408,473,0.0034,0.0386,1.0176,-0.2441,-0.1221,-0.1221,1,464,814,0
13323387,474,0.0024,0.0381,1.0181,-0.2441,-0.0610,-0.1221,1,480,894,0
13328383,475,0.0015,0.0371,1.0195,-0.1831,0.0000,-0.1831,1,491,892,0
13333387,476,0.0010,0.0371,1.0205,-0.3052,-0.1221,-0.1831,1,481,854,0
13338384,477,0.0015,0.0376,1.0215,-0.3052,-0.1221,-0.1221,1,493,889,0
13343385,478,0.0029,0.0381,1.0215,-0.1831,0.0000,-0.1831,1,480,824,0
13348383,479,0.0024,0.0386,1.0215,-0.3052,0.0000,-0.1831,1,497,813,0
13353381,480,0.0024,0.0391,1.0220,-0.2441,0.0610,-0.1831,1,501,818,0
13358384,481,0.0044,0.0386,1.0210,-0.3052,0.0000,-0.1831,1,483,852,0
13363386,482,0.0044,0.0381,1.0200,-0.2441,0.0000,-0.1221,1,481,798,0
13368383,483,0.0034,0.0381,1.0195,-0.1831,0.0610,-0.1831,1,494,799,0
13373382,484,0.0029,0.0376,1.0205,-0.1831,0.0610,-0.1831,1,507,825,0
13378384,485,0.0010,0.0371,1.0220,-0.1221,0.0000,-0.0610,1,463,871,0
13383387,486,0.0010,0.0376,1.0225,-0.1831,0.0000,-0.0610,1,463,817,0
13388383,487,0.0024,0.0386,1.0215,-0.1221,0.0610,-0.1221,1,464,846,0
13393381,488,0.0029,0.0391,1.0205,-0.2441,0.0000,-0.0610,1,464,894,0
13398389,489,0.0029,0.0381,1.0205,-0.3052,0.0610,-0.1221,1,464,821,0
13403382,490,0.0029,0.0371,1.0200,-0.2441,0.0610,-0.1831,1,464,889,0
13408385,491,0.0020,0.0371,1.0200,-0.1831,-0.0610,-0.1831,1,464,872,0
13413383,492,0.0010,0.0371,1.0200,-0.2441,-0.1221,0.0000,1,464,903,0
13418389,493,0.0015,0.0371,1.0205,-0.1221,-0.0610,-0.1221,1,464,820,0
13423382,494,0.0024,0.0376,1.0210,-0.1831,-0.0610,-0.1831,1,464,861,0
13428424,495,0.0029,0.0376,1.0205,-0.2441,0.0610,-0.1221,1,464,902,0
13433385,496,0.0029,0.0371,1.0195,-0.3052,-0.0610,-0.1221,1,464,865,0
13438382,497,0.0024,0.0371,1.0195,-0.2441,-0.0610,-0.0610,1,480,893,0
13443386,498,0.0020,0.0376,1.0210,-0.1831,-0.1221,-0.0610,1,481,863,0
13448382,499,0.0024,0.0391,1.0215,-0.2441,-0.1221,0.0610,1,510,853,0
13453384,500,0.0024,0.0396,1.0210,-0.1831,-0.0610,-0.1221,1,480,835,0
13458383,501,0.0024,0.0391,1.0205,-0.2441,0.0000,-0.1831,1,501,837,0
13463387,502,0.0020,0.0386,1.0200,-0.1221,0.0000,-0.2441,1,482,799,0
13468383,503,0.0020,0.0386,1.0210,-0.3052,0.1221,-0.2441,1,501,800,0
13473388,504,0.0020,0.0386,1.0210,-0.2441,0.0000,-0.1831,1,485,844,0
13478388,505,0.0024,0.0381,1.0215,-0.1831,-0.0610,-0.2441,1,483,775,0
13483389,506,0.0024,0.0381,1.0225,-0.0610,0.0610,-0.1221,1,502,822,0
13488381,507,0.0024,0.0371,1.0220,-0.0610,-0.1221,-0.1221,1,492,861,0
13493388,508,0.0034,0.0366,1.0200,-0.3052,-0.1221,-0.1831,1,464,866,0
13498389,509,0.0029,0.0376,1.0195,-0.2441,0.0000,-0.2441,1,463,898,0
13503388,510,0.0020,0.0386,1.0195,-0.3052,0.0610,-0.1221,1,463,859,0
13508384,511,0.0020,0.0391,1.0200,-0.3662,-0.0610,-0.1831,1,464,892,0
13513383,512,0.0029,0.0391,1.0210,-0.1221,-0.1221,-0.1221,1,464,868,0
13518390,513,0.0049,0.0396,1.0215,-0.1831,-0.1221,-0.1831,1,464,856,0
13523382,514,0.0044,0.0396,1.0205,-0.1831,0.0000,-0.1831,1,463,871,0
13528387,515,0.0029,0.0386,1.0210,-0.2441,-0.0610,-0.2441,1,464,855,0
13533382,516,0.0034,0.0381,1.0210,-0.3052,0.0000,-0.2441,1,464,900,0
13538389,517,0.0039,0.0386,1.0205,-0.1831,0.0610,-0.1221,1,463,847,0
13543389,518,0.0039,0.0386,1.0210,-0.1831,-0.1221,-0.1221,1,480,896,0
13548386,519,0.0029,0.0376,1.0205,-0.0610,-0.1221,-0.0610,1,507,894,0
13553388,520,0.0024,0.0371,1.0205,-0.0610,0.0610,-0.2441,1,480,852,0
13558382,521,0.0024,0.0376,1.0205,-0.2441,0.0000,-0.1831,1,509,861,0
13563383,522,0.0020,0.0386,1.0200,-0.2441,-0.0610,-0.1221,1,487,826,0
13568384,523,0.0029,0.0391,1.0205,-0.1831,0.0000,-0.1831,1,487,854,0
13573384,524,0.0039,0.0376,1.0210,-0.3052,0.0000,-0.1831,1,489,797,0
13578389,525,0.0024,0.0366,1.0220,-0.3052,0.0610,-0.1831,1,491,801,0
13583381,526,0.0015,0.0371,1.0229,-0.2441,0.0000,-0.0610,1,492,851,0
13588386,527,0.0015,0.0376,1.0215,-0.1831,0.0610,-0.2441,1,496,777,0
13593381,528,0.0029,0.0381,1.0205,-0.3052,0.0000,-0.2441,1,507,848,0
13598385,529,0.0044,0.0381,1.0210,-0.1221,0.0610,-0.1831,1,491,818,0
13603389,530,0.0044,0.0376,1.0210,-0.1221,0.0000,-0.1831,1,464,891,0
13608388,531,0.0039,0.0376,1.0205,-0.2441,0.0000,-0.1221,1,464,849,0
13613381,532,0.0044,0.0376,1.0200,-0.1831,0.0000,-0.3052,1,464,825,0
13618388,533,0.0044,0.0376,1.0190,-0.1221,0.0000,-0.1831,1,464,820,0
13623389,534,0.0034,0.0376,1.0186,-0.1221,-0.1221,-0.1221,1,464,852,0
13628381,535,0.0024,0.0376,1.0205,-0.2441,-0.1221,-0.1831,1,464,888,0
13633386,536,0.0020,0.0376,1.0215,-0.2441,-0.0610,-0.1221,1,464,873,0
13638385,537,0.0020,0.0371,1.0205,-0.3052,0.0000,-0.1831,1,464,895,0
13643387,538,0.0024,0.0371,1.0205,-0.1831,-0.0610,-0.2441,1,464,852,0
13648405,539,0.0020,0.0376,1.0215,-0.1831,-0.1831,-0.1831,1,464,904,0
13653402,540,0.0024,0.0376,1.0210,-0.2441,-0.0610,-0.0610,1,464,873,0
13658381,541,0.0024,0.0386,1.0210,-0.2441,0.0000,-0.1221,1,480,866,0
13663389,542,0.0020,0.0391,1.0210,-0.3052,0.0000,-0.1221,1,491,810,0
13668387,543,0.0010,0.0381,1.0210,-0.3662,0.0000,-0.1221,1,482,838,0
13673387,544,0.0015,0.0371,1.0205,-0.3052,0.0610,-0.2441,1,493,783,0
13678382,545,0.0034,0.0376,1.0210,-0.2441,-0.0610,-0.1831,1,473,825,0
13683385,546,0.0034,0.0376,1.0215,-0.1831,0.0610,-0.1831,1,482,861,0
13688382,547,0.0029,0.0376,1.0225,-0.2441,0.0000,-0.1831,1,505,796,0
13693389,548,0.0034,0.0391,1.0205,-0.1831,-0.1221,-0.1221,1,488,779,0
13698382,549,0.0024,0.0391,1.0200,-0.2441,-0.0610,-0.1221,1,480,847,0
13703386,550,0.0015,0.0381,1.0210,-0.2441,0.0000,-0.2441,1,493,816,0
13708382,551,0.0015,0.0376,1.0205,-0.2441,-0.0610,-0.1831,1,508,802,0
13713384,552,0.0024,0.0381,1.0205,-0.1221,0.0610,-0.1831,1,464,898,0
13718383,553,0.0029,0.0381,1.0210,-0.1831,0.0610,-0.1831,1,464,895,0
13723382,554,0.0024,0.0386,1.0220,-0.2441,-0.1221,-0.1831,1,464,867,0
13728388,555,0.0024,0.0371,1.0215,-0.3052,0.0000,-0.2441,1,464,902,0
13733382,556,0.0034,0.0356,1.0210,-0.1831,0.0000,-0.2441,1,463,827,0
13738381,557,0.0039,0.0356,1.0200,-0.1221,0.0000,-0.1831,1,464,858,0
13743383,558,0.0029,0.0371,1.0205,-0.1221,-0.0610,-0.1831,1,463,854,0
13748386,559,0.0029,0.0386,1.0215,-0.3662,0.0000,-0.2441,1,464,899,0
13753382,560,0.0024,0.0391,1.0210,-0.3052,0.0610,-0.2441,1,464,856,0
13758388,561,0.0020,0.0391,1.0200,-0.1831,-0.0610,-0.1221,1,464,891,0
13763383,562,0.0020,0.0386,1.0200,-0.1221,-0.0610,-0.0610,1,464,890,0
13768384,563,0.0024,0.0381,1.0215,-0.2441,-0.0610,-0.1221,1,507,889,0
13773383,564,0.0024,0.0381,1.0225,-0.1221,-0.0610,-0.0610,1,491,885,0
13778381,565,0.0024,0.0381,1.0215,-0.2441,-0.0610,-0.1831,1,495,777,0
13783389,566,0.0024,0.0381,1.0210,-0.2441,-0.1831,-0.1221,1,472,812,0
13788386,567,0.0024,0.0381,1.0210,-0.1831,-0.1221,-0.0610,1,489,856,0
13793381,568,0.0024,0.0371,1.0210,-0.2441,0.0610,-0.1221,1,491,863,0
13798381,569,0.0029,0.0376,1.0210,-0.2441,0.0000,-0.1221,1,498,813,0
13803381,570,0.0029,0.0386,1.0210,-0.3662,0.1221,-0.1221,1,503,802,0
13808381,571,0.0020,0.0391,1.0210,-0.3052,0.0000,-0.1221,1,479,844,0
13813388,572,0.0024,0.0386,1.0215,-0.2441,0.0610,-0.2441,1,491,793,0
13818388,573,0.0034,0.0386,1.0215,-0.3052,0.0000,-0.1831,1,491,825,0
13823388,574,0.0034,0.0391,1.0205,-0.2441,0.0000,-0.0610,1,464,822,0
13828389,575,0.0034,0.0391,1.0200,-0.2441,0.0000,-0.0610,1,464,823,0
13833388,576,0.0039,0.0391,1.0200,-0.2441,-0.0610,-0.1831,1,463,822,0
13838389,577,0.0044,0.0376,1.0200,-0.3662,0.0610,-0.1831,1,463,871,0
13843382,578,0.0054,0.0366,1.0195,-0.2441,0.0000,-0.2441,1,464,899,0
13848381,579,0.0044,0.0381,1.0200,-0.1221,-0.1221,-0.0610,1,464,830,0
13853381,580,0.0029,0.0386,1.0210,-0.1831,-0.1221,-0.1221,1,464,860,0
13858385,581,0.0015,0.0376,1.0210,-0.1831,-0.0610,-0.1831,1,464,891,0
13863385,582,0.0015,0.0376,1.0205,-0.1831,0.0610,-0.0610,1,464,896,0
13868385,583,0.0029,0.0381,1.0190,-0.2441,0.0610,0.0000,1,464,895,0
13873411,584,0.0039,0.0376,1.0195,-0.3052,0.0610,-0.0610,1,481,849,0
13878389,585,0.0039,0.0376,1.0205,-0.1831,-0.1221,-0.0610,1,481,891,0
13883381,586,0.0024,0.0376,1.0210,-0.2441,-0.0610,-0.1221,1,482,887,0
13888386,587,0.0010,0.0376,1.0210,-0.2441,0.0000,-0.1221,1,493,861,0
13893386,588,0.0020,0.0371,1.0205,-0.1831,-0.0610,-0.0610,1,482,775,0
13898386,589,0.0015,0.0371,1.0205,-0.2441,-0.0610,-0.1221,1,506,852,0
13903389,590,0.0005,0.0381,1.0205,-0.2441,0.0610,-0.1831,1,487,792,0
13908382,591,0.0010,0.0391,1.0205,-0.1831,0.0000,0.0000,1,508,861,0
13913388,592,0.0024,0.0386,1.0205,-0.1831,-0.0610,0.0000,1,497,723,0
13918387,593,0.0039,0.0376,1.0210,-0.3662,0.0000,-0.2441,1,490,777,0
13923386,594,0.0039,0.0381,1.0210,-0.2441,0.0000,-0.1831,1,507,805,0
13928385,595,0.0024,0.0381,1.0210,-0.1221,-0.1221,-0.1221,1,463,794,0
13933384,596,0.0020,0.0371,1.0195,-0.1831,-0.0610,-0.1831,1,463,859,0
13938381,597,0.0024,0.0366,1.0181,-0.2441,-0.0610,-0.1831,1,464,875,0
13943387,598,0.0029,0.0381,1.0171,-0.2441,0.0000,-0.1221,1,464,874,0
13948382,599,0.0044,0.0400,1.0186,-0.2441,0.0000,-0.1221,1,464,845,0
13953388,600,0.0044,0.0396,1.0205,-0.3052,-0.0610,-0.1221,1,463,848,0
13958382,601,0.0034,0.0386,1.0215,-0.1831,-0.1221,0.0000,1,464,890,0
13963384,602,0.0034,0.0376,1.0215,-0.1831,-0.0610,-0.1831,1,463,853,0
13968388,603,0.0034,0.0376,1.0210,-0.1831,-0.0610,-0.1221,1,464,872,0
13973395,604,0.0039,0.0376,1.0210,-0.1221,-0.0610,-0.1831,1,464,866,0
13978383,605,0.0039,0.0371,1.0205,-0.2441,0.0610,-0.1831,1,464,864,0
13983388,606,0.0029,0.0376,1.0195,-0.1221,0.0000,-0.2441,1,480,874,0
13988387,607,0.0029,0.0376,1.0195,-0.2441,0.0610,-0.0610,1,491,811,0
13993381,608,0.0034,0.0381,1.0200,-0.3662,0.0610,0.0000,1,484,858,0
13998388,609,0.0029,0.0381,1.0210,-0.3052,0.0000,-0.0610,1,492,753,0
14003389,610,0.0024,0.0371,1.0210,-0.2441,-0.1221,-0.1221,1,476,782,0
14008385,611,0.0034,0.0371,1.0205,-0.2441,0.0000,-0.1831,1,497,857,0
14013389,612,0.0034,0.0376,1.0200,-0.3662,-0.0610,-0.1831,1,506,783,0
14018385,613,0.0020,0.0376,1.0195,-0.2441,-0.1221,-0.1831,1,483,854,0
14023381,614,0.0015,0.0381,1.0190,-0.2441,0.0610,-0.0610,1,486,852,0
14028382,615,0.0020,0.0391,1.0190,-0.1831,-0.0610,-0.1831,1,507,845,0
14033389,616,0.0034,0.0396,1.0200,-0.1831,-0.1221,-0.1831,1,484,848,0
14038381,617,0.0039,0.0386,1.0200,-0.1831,-0.1221,-0.1831,1,491,842,0
14043383,618,0.0029,0.0386,1.0195,-0.2441,-0.1221,-0.0610,1,464,871,0
14048386,619,0.0020,0.0386,1.0200,-0.2441,0.1221,-0.1221,1,464,899,0
14053384,620,0.0020,0.0391,1.0210,-0.1831,-0.0610,-0.1221,1,464,894,0
14058389,621,0.0024,0.0391,1.0220,-0.1221,-0.0610,-0.1221,1,463,892,0
14063382,622,0.0024,0.0386,1.0220,-0.1221,0.0610,-0.1831,1,463,862,0
14068384,623,0.0029,0.0376,1.0210,-0.1831,0.0000,-0.1221,1,464,898,0
14073384,624,0.0024,0.0381,1.0210,-0.1831,-0.1221,-0.1221,1,463,851,0
14078388,625,0.0020,0.0381,1.0215,-0.2441,0.0000,-0.1831,1,463,864,0
14083396,626,0.0024,0.0381,1.0225,-0.1831,0.0610,-0.0610,1,463,822,0
14088394,627,0.0024,0.0391,1.0225,-0.2441,0.0610,-0.1831,1,464,865,0
14093384,628,0.0020,0.0396,1.0215,-0.2441,-0.0610,-0.1831,1,481,868,0
14098384,629,0.0029,0.0391,1.0210,-0.2441,-0.0610,-0.2441,1,491,867,0
14103384,630,0.0029,0.0381,1.0210,-0.2441,0.0000,-0.1221,1,482,885,0
14108388,631,0.0029,0.0371,1.0205,-0.3662,0.0000,-0.1831,1,493,759,0
14113387,632,0.0029,0.0366,1.0195,-0.3052,0.0000,-0.1831,1,476,790,0
14118382,633,0.0024,0.0366,1.0195,-0.2441,0.0000,-0.1221,1,502,750,0
14123386,634,0.0029,0.0371,1.0200,-0.1831,0.0000,-0.0610,1,489,810,0
14128383,635,0.0029,0.0376,1.0200,-0.1831,0.0610,-0.1221,1,487,833,0
14133388,636,0.0024,0.0381,1.0205,-0.1831,0.0000,-0.2441,1,473,818,0
14138390,637,0.0029,0.0381,1.0210,-0.1831,-0.0610,-0.1831,1,507,809,0
14143382,638,0.0034,0.0376,1.0210,-0.1831,0.1221,-0.1221,1,487,848,0
14148385,639,0.0024,0.0381,1.0200,-0.3662,0.0610,-0.1221,1,463,864,0
14153382,640,0.0020,0.0386,1.0200,-0.3662,-0.0610,-0.1221,1,464,893,0
14158387,641,0.0020,0.0376,1.0210,-0.3052,-0.0610,-0.1831,1,464,865,0
14163383,642,0.0024,0.0371,1.0210,-0.1831,-0.0610,-0.1831,1,464,864,0
14168381,643,0.0024,0.0376,1.0210,-0.1221,-0.1221,-0.0610,1,463,904,0
14173386,644,0.0020,0.0381,1.0215,-0.2441,-0.1221,-0.1221,1,464,892,0
14178381,645,0.0010,0.0381,1.0210,-0.2441,-0.0610,-0.0610,1,464,863,0
14183382,646,0.0010,0.0376,1.0210,-0.1831,-0.0610,-0.1831,1,463,889,0
14188381,647,0.0015,0.0366,1.0205,-0.1831,0.0610,-0.1221,1,464,895,0
14193382,648,0.0020,0.0371,1.0200,-0.2441,0.0000,-0.1221,1,464,896,0
14198416,649,0.0029,0.0386,1.0205,-0.1831,0.0000,-0.2441,1,464,819,0
14203383,650,0.0029,0.0386,1.0205,-0.1221,-0.1221,-0.1221,1,480,854,0
14208385,651,0.0024,0.0386,1.0205,-0.1831,0.0000,-0.1221,1,491,851,0
14213386,652,0.0020,0.0391,1.0210,-0.1221,0.0000,-0.2441,1,466,746,0
14218381,653,0.0020,0.0391,1.0205,-0.1831,-0.0610,-0.2441,1,493,786,0
14223386,654,0.0029,0.0391,1.0200,-0.2441,-0.1831,-0.1831,1,497,866,0
14228383,655,0.0029,0.0381,1.0200,-0.1221,-0.0610,-0.0610,1,495,860,0
14233381,656,0.0029,0.0376,1.0205,-0.1831,-0.0610,-0.1221,1,478,834,0
14238382,657,0.0029,0.0381,1.0215,-0.2441,-0.0610,-0.2441,1,483,869,0
14243382,658,0.0024,0.0386,1.0220,-0.1831,0.0610,-0.1221,1,483,821,0
14248386,659,0.0020,0.0381,1.0215,-0.2441,0.0610,-0.1221,1,509,819,0
14253388,660,0.0024,0.0371,1.0205,-0.1221,0.0000,-0.0610,1,491,862,0
14258389,661,0.0039,0.0376,1.0200,-0.2441,0.0610,-0.1831,1,464,852,0
14263385,662,0.0034,0.0391,1.0200,-0.1831,0.0000,-0.1831,1,464,901,0
14268388,663,0.0020,0.0391,1.0200,-0.3052,0.0000,-0.1221,1,464,853,0
14273390,664,0.0015,0.0381,1.0205,-0.3662,-0.0610,-0.0610,1,464,842,0
14278386,665,0.0015,0.0376,1.0210,-0.3052,0.0000,-0.1221,1,463,893,0
14283387,666,0.0020,0.0371,1.0215,-0.3052,-0.0610,-0.0610,1,464,842,0
14288383,667,0.0020,0.0371,1.0205,-0.1831,-0.0610,-0.0610,1,464,864,0
14293386,668,0.0020,0.0371,1.0200,-0.3052,0.0000,-0.0610,1,463,900,0
14298390,669,0.0020,0.0376,1.0200,-0.1831,0.0000,-0.0610,1,464,817,0
14303383,670,0.0029,0.0376,1.0210,-0.1831,-0.0610,-0.0610,1,463,851,0
14308409,671,0.0024,0.0371,1.0220,-0.1831,0.0000,-0.1831,1,480,895,0
14313383,672,0.0015,0.0371,1.0220,-0.1831,-0.1221,-0.1831,1,463,851,0
14318384,673,0.0024,0.0381,1.0215,-0.1831,0.0000,-0.1221,1,482,859,0
14323382,674,0.0039,0.0381,1.0205,-0.1831,-0.0610,-0.0610,1,493,753,0
14328389,675,0.0034,0.0376,1.0205,-0.1831,-0.1221,-0.1221,1,473,837,0
14333387,676,0.0020,0.0376,1.0200,-0.2441,-0.1221,-0.2441,1,493,846,0
14338383,677,0.0010,0.0376,1.0186,-0.3052,-0.0610,-0.1221,1,498,792,0
14343388,678,0.0015,0.0381,1.0200,-0.1831,-0.0610,-0.1831,1,483,835,0
14348384,679,0.0024,0.0386,1.0215,-0.3052,-0.1221,-0.1831,1,481,848,0
14353385,680,0.0020,0.0381,1.0210,-0.3662,-0.0610,-0.2441,1,489,817,0
14358388,681,0.0015,0.0371,1.0195,-0.1221,-0.1221,-0.1831,1,509,817,0
14363389,682,0.0010,0.0376,1.0190,-0.1831,-0.0610,-0.1831,1,464,870,0
14368388,683,0.0015,0.0376,1.0200,-0.1831,-0.1221,-0.0610,1,464,868,0
14373384,684,0.0010,0.0376,1.0220,-0.1221,-0.0610,-0.1221,1,464,864,0
14378384,685,0.0010,0.0371,1.0220,-0.2441,0.0000,-0.1221,1,464,888,0
14383385,686,0.0024,0.0371,1.0210,-0.2441,-0.0610,-0.1221,1,464,851,0
14388388,687,0.0034,0.0371,1.0220,-0.1831,0.0000,-0.1831,1,464,899,0
14393388,688,0.0034,0.0371,1.0220,-0.3052,0.0610,-0.2441,1,464,859,0
14398383,689,0.0034,0.0376,1.0210,-0.2441,0.0000,-0.1221,1,464,900,0
14403382,690,0.0029,0.0386,1.0195,-0.2441,0.0610,-0.1221,1,464,822,0
14408384,691,0.0015,0.0391,1.0195,-0.2441,0.0000,-0.1831,1,463,869,0
14413391,692,0.0010,0.0396,1.0200,-0.2441,0.0000,-0.1831,1,464,821,0
14418382,693,0.0010,0.0386,1.0205,-0.0610,0.0000,-0.0610,1,464,840,0
14423381,694,0.0015,0.0376,1.0200,-0.3052,-0.1221,-0.1221,1,491,736,0
14428389,695,0.0029,0.0371,1.0195,-0.2441,-0.0610,-0.2441,1,476,881,0
14433381,696,0.0034,0.0371,1.0205,-0.1831,0.0610,-0.1221,1,492,904,0
14438381,697,0.0024,0.0376,1.0225,-0.1221,0.0000,-0.1221,1,472,849,0
14443382,698,0.0015,0.0381,1.0225,-0.2441,-0.1221,-0.1221,1,497,771,0
14448386,699,0.0010,0.0376,1.0205,-0.2441,-0.0610,-0.0610,1,478,813,0
14453381,700,0.0024,0.0371,1.0205,-0.2441,0.0000,-0.1831,1,479,867,0
14458381,701,0.0024,0.0376,1.0210,-0.2441,0.0000,-0.1221,1,483,813,0
14463382,702,0.0024,0.0376,1.0200,-0.3052,-0.0610,-0.0610,1,495,774,0
14468382,703,0.0024,0.0376,1.0205,-0.1831,0.0000,-0.1831,1,490,833,0
14473386,704,0.0015,0.0376,1.0210,-0.1831,-0.0610,-0.3052,1,463,827,0
14478387,705,0.0015,0.0376,1.0205,-0.2441,-0.0610,-0.1831,1,463,861,0
14483389,706,0.0024,0.0376,1.0200,-0.1831,-0.0610,-0.2441,1,464,898,0
14488384,707,0.0029,0.0386,1.0195,-0.1831,0.0000,-0.0610,1,464,872,0
14493387,708,0.0029,0.0386,1.0205,-0.1831,0.0610,-0.0610,1,463,826,0
14498387,709,0.0024,0.0376,1.0215,-0.3052,0.0000,-0.1221,1,464,868,0
14503383,710,0.0024,0.0376,1.0220,-0.3052,-0.0610,-0.1221,1,464,846,0
14508381,711,0.0024,0.0381,1.0215,-0.3662,0.0000,-0.1221,1,464,894,0
14513387,712,0.0024,0.0376,1.0186,-0.1831,-0.1831,0.0000,1,463,820,0
14518385,713,0.0029,0.0371,1.0200,-0.2441,0.0000,-0.0610,1,464,856,0
14523384,714,0.0034,0.0371,1.0215,-0.3052,0.0610,-0.2441,1,480,822,0
14528386,715,0.0024,0.0381,1.0225,-0.2441,-0.0610,-0.1831,1,463,897,0
14533389,716,0.0024,0.0381,1.0220,-0.3662,0.0610,-0.1221,1,483,860,0
14538386,717,0.0015,0.0391,1.0205,-0.1221,-0.0610,-0.0610,1,471,892,0
14543387,718,0.0020,0.0391,1.0181,-0.1221,-0.0610,-0.1221,1,495,781,0
14548387,719,0.0029,0.0376,1.0186,-0.1221,-0.0610,-0.1221,1,495,817,0
14553384,720,0.0029,0.0371,1.0205,-0.2441,0.0000,-0.3052,1,477,859,0
14558390,721,0.0034,0.0371,1.0215,-0.2441,0.0610,-0.3052,1,487,806,0
14563389,722,0.0039,0.0386,1.0210,-0.2441,-0.0610,-0.1831,1,506,852,0
14568384,723,0.0029,0.0391,1.0205,-0.1831,0.0000,-0.1831,1,494,853,0
14573381,724,0.0029,0.0391,1.0195,-0.2441,0.0000,-0.2441,1,481,793,0
14578383,725,0.0029,0.0386,1.0190,-0.1831,-0.0610,-0.1221,1,491,825,0
14583383,726,0.0029,0.0391,1.0205,-0.1831,0.0000,-0.0610,1,464,897,0
14588382,727,0.0029,0.0391,1.0205,-0.2441,-0.0610,0.0000,1,464,822,0
14593383,728,0.0034,0.0376,1.0205,-0.2441,-0.1221,-0.0610,1,464,852,0
14598385,729,0.0024,0.0381,1.0195,-0.1221,-0.0610,-0.1831,1,464,898,0
14603386,730,0.0020,0.0386,1.0190,-0.1831,-0.1221,-0.1831,1,464,869,0
14608389,731,0.0020,0.0386,1.0205,-0.3662,-0.0610,-0.2441,1,463,900,0
14613382,732,0.0020,0.0376,1.0220,-0.3052,-0.0610,-0.1221,1,464,898,0
14618384,733,0.0024,0.0361,1.0220,-0.1831,-0.1221,-0.1221,1,464,889,0
14623404,734,0.0029,0.0361,1.0205,-0.2441,-0.0610,-0.0610,1,464,870,0
14628398,735,0.0020,0.0371,1.0200,-0.2441,0.0000,-0.1221,1,464,870,0
14633387,736,0.0024,0.0381,1.0205,-0.3052,0.0000,-0.1831,1,480,840,0
14638386,737,0.0039,0.0386,1.0210,-0.1831,-0.0610,-0.1221,1,492,810,0
14643384,738,0.0044,0.0391,1.0205,-0.2441,-0.1221,-0.1221,1,466,890,0
14648385,739,0.0039,0.0396,1.0190,-0.1221,-0.0610,-0.2441,1,495,901,0
14653386,740,0.0034,0.0391,1.0190,-0.1831,0.0610,-0.2441,1,475,866,0
14658389,741,0.0024,0.0376,1.0205,-0.2441,-0.1221,-0.0610,1,475,795,0
14663381,742,0.0010,0.0381,1.0210,-0.2441,-0.1221,-0.1221,1,493,793,0
14668384,743,0.0005,0.0386,1.0205,-0.2441,-0.0610,-0.1831,1,507,811,0
14673384,744,0.0015,0.0376,1.0205,-0.1831,-0.1221,-0.1221,1,503,876,0
14678383,745,0.0015,0.0371,1.0210,-0.1831,0.0000,-0.1221,1,488,815,0
14683388,746,0.0005,0.0366,1.0210,-0.2441,-0.0610,0.0000,1,491,818,0
14688386,747,0.0005,0.0376,1.0200,-0.2441,-0.0610,-0.1831,1,463,821,0
14693381,748,0.0010,0.0386,1.0195,-0.2441,0.0000,-0.1831,1,464,864,0
14698386,749,0.0020,0.0376,1.0200,-0.1831,0.0000,-0.1221,1,464,855,0
14703384,750,0.0024,0.0366,1.0200,-0.1831,-0.1221,-0.1831,1,463,849,0
14708381,751,0.0029,0.0376,1.0195,-0.2441,0.0000,-0.1831,1,464,874,0
14713389,752,0.0024,0.0376,1.0190,-0.3052,-0.0610,-0.1221,1,463,859,0
14718385,753,0.0024,0.0381,1.0195,-0.1221,-0.1221,-0.1221,1,464,892,0
14723388,754,0.0029,0.0376,1.0200,-0.3052,0.0000,-0.1831,1,463,891,0
14728387,755,0.0029,0.0366,1.0200,-0.3052,-0.0610,-0.1831,1,464,849,0
14733389,756,0.0029,0.0376,1.0210,-0.2441,-0.0610,-0.1831,1,463,898,0
14738381,757,0.0034,0.0386,1.0210,-0.3662,-0.0610,-0.1831,1,481,898,0
14743384,758,0.0034,0.0391,1.0205,-0.1221,-0.0610,-0.1221,1,463,888,0
14748389,759,0.0034,0.0386,1.0200,-0.3052,-0.1221,-0.1221,1,493,879,0
14753382,760,0.0034,0.0381,1.0210,-0.3052,-0.0610,-0.1831,1,465,877,0
14758383,761,0.0029,0.0371,1.0215,-0.2441,0.0610,-0.1831,1,503,903,0
14763387,762,0.0024,0.0361,1.0200,-0.2441,-0.0610,-0.1221,1,480,873,0
14768386,763,0.0024,0.0366,1.0190,-0.1831,-0.1221,-0.1831,1,498,877,0
14773382,764,0.0020,0.0376,1.0190,-0.2441,0.0000,-0.1831,1,481,827,0
14778383,765,0.0020,0.0376,1.0190,-0.1831,-0.0610,-0.1831,1,508,779,0
14783385,766,0.0029,0.0381,1.0186,-0.1831,0.0000,-0.1221,1,482,824,0
14788385,767,0.0034,0.0381,1.0195,-0.1831,-0.0610,-0.1221,1,496,771,0
14793383,768,0.0029,0.0371,1.0205,-0.2441,-0.1221,-0.1221,1,490,868,0
14798390,769,0.0034,0.0361,1.0205,-0.1831,0.0610,-0.1221,1,463,867,0
14803384,770,0.0039,0.0361,1.0205,-0.2441,-0.0610,-0.0610,1,463,900,0
14808382,771,0.0034,0.0371,1.0205,-0.1831,0.0000,-0.1221,1,463,904,0
14813386,772,0.0024,0.0386,1.0200,-0.1831,0.0000,-0.2441,1,464,826,0
14818383,773,0.0015,0.0396,1.0195,-0.3052,0.0000,-0.1221,1,464,856,0
14823388,774,0.0010,0.0396,1.0205,-0.1831,0.0610,0.0000,1,464,846,0
14828383,775,0.0010,0.0391,1.0215,-0.1831,-0.0610,-0.1221,1,464,818,0
14833383,776,0.0010,0.0381,1.0210,-0.2441,-0.0610,-0.1831,1,464,887,0
14838388,777,0.0020,0.0371,1.0195,-0.2441,0.0610,-0.1831,1,463,892,0
14843389,778,0.0039,0.0371,1.0190,-0.1831,0.0000,-0.0610,1,464,904,0
14848382,779,0.0044,0.0376,1.0200,-0.2441,-0.0610,-0.1221,1,464,826,0
14853389,780,0.0039,0.0381,1.0215,-0.2441,0.0000,-0.2441,1,464,883,0
14858382,781,0.0024,0.0381,1.0220,-0.2441,-0.0610,-0.1831,1,491,814,0
14863384,782,0.0015,0.0371,1.0210,-0.3052,-0.0610,-0.1221,1,464,869,0
14868381,783,0.0024,0.0366,1.0200,-0.2441,0.0000,-0.1831,1,493,899,0
14873386,784,0.0029,0.0371,1.0205,-0.2441,0.0000,-0.1831,1,471,753,0
14878384,785,0.0024,0.0376,1.0205,-0.2441,-0.0610,-0.1221,1,492,827,0
14883382,786,0.0024,0.0381,1.0200,-0.2441,-0.0610,-0.1221,1,491,792,0
14888381,787,0.0029,0.0381,1.0195,-0.1221,0.0000,-0.1221,1,493,838,0
14893382,788,0.0034,0.0381,1.0205,-0.1831,-0.0610,-0.1831,1,491,797,0
14898382,789,0.0039,0.0386,1.0215,-0.1831,0.0000,-0.2441,1,507,852,0
14903385,790,0.0034,0.0386,1.0215,-0.1221,0.0000,-0.1831,1,491,809,0
14908384,791,0.0039,0.0371,1.0205,-0.1831,0.0610,-0.3052,1,491,796,0
14913388,792,0.0044,0.0371,1.0195,-0.2441,0.0000,-0.1221,1,464,899,0
14918384,793,0.0039,0.0381,1.0195,-0.3052,0.0000,-0.0610,1,463,856,0
14923383,794,0.0044,0.0381,1.0200,-0.3052,-0.0610,-0.1221,1,463,850,0
14928383,795,0.0044,0.0386,1.0210,-0.1831,-0.1221,-0.1831,1,464,887,0
14933382,796,0.0034,0.0396,1.0210,-0.0610,-0.0610,-0.1221,1,464,868,0
14938387,797,0.0034,0.0396,1.0210,-0.2441,-0.1221,-0.1831,1,464,864,0
14943388,798,0.0029,0.0381,1.0210,-0.1831,0.0000,-0.1831,1,464,869,0
14948390,799,0.0024,0.0381,1.0210,-0.3052,-0.1221,-0.1221,1,464,852,0
14953391,800,0.0029,0.0386,1.0200,-0.3052,0.0610,-0.1831,1,463,889,0
14958389,801,0.0034,0.0386,1.0195,-0.2441,0.0610,-0.2441,1,464,864,0
14963383,802,0.0024,0.0376,1.0190,-0.1221,-0.0610,-0.1831,1,480,872,0
14968382,803,0.0024,0.0376,1.0200,-0.1831,0.0610,-0.1831,1,464,867,0
14973385,804,0.0024,0.0366,1.0210,-0.1831,-0.1221,-0.1831,1,509,861,0
14978382,805,0.0010,0.0356,1.0210,-0.2441,-0.0610,-0.2441,1,473,900,0
14983382,806,0.0010,0.0371,1.0210,-0.1831,0.0000,-0.1831,1,502,782,0
14988386,807,0.0015,0.0376,1.0215,-0.1221,0.0000,-0.0610,1,504,812,0
14993386,808,0.0024,0.0366,1.0205,-0.0610,-0.0610,-0.1221,1,483,767,0
14998381,809,0.0044,0.0366,1.0200,-0.3662,-0.0610,-0.1221,1,486,850,0
15003387,810,0.0049,0.0366,1.0215,-0.3052,0.0000,-0.0610,1,473,820,0
15008388,811,0.0034,0.0381,1.0229,-0.1831,-0.0610,-0.1221,1,505,801,0
15013384,812,0.0020,0.0391,1.0225,-0.1831,-0.0610,-0.1221,1,469,868,0
15018386,813,0.0015,0.0391,1.0210,-0.3052,0.0000,-0.1831,1,491,834,0
15023389,814,0.0024,0.0381,1.0200,-0.2441,0.0000,-0.1221,1,464,844,0
15028389,815,0.0024,0.0371,1.0200,-0.1221,-0.0610,-0.2441,1,464,850,0
15033384,816,0.0024,0.0371,1.0205,-0.2441,-0.0610,-0.1831,1,464,900,0
15038384,817,0.0024,0.0381,1.0220,-0.0610,-0.1221,-0.1221,1,464,877,0
15043387,818,0.0024,0.0391,1.0229,-0.2441,-0.0610,-0.0610,1,464,891,0
15048389,819,0.0039,0.0386,1.0215,-0.1831,0.0000,-0.2441,1,464,898,0
15053387,820,0.0039,0.0371,1.0200,-0.1221,-0.1221,-0.3052,1,464,857,0
15058383,821,0.0044,0.0366,1.0190,-0.1831,-0.1221,-0.2441,1,464,891,0
15063398,822,0.0044,0.0371,1.0195,-0.1831,0.0610,-0.1221,1,463,903,0
15068382,823,0.0029,0.0376,1.0210,-0.1221,0.0000,-0.1221,1,464,870,0
15073399,824,0.0020,0.0381,1.0220,-0.1831,-0.0610,-0.1221,1,481,803,0
15078386,825,0.0024,0.0376,1.0215,-0.2441,-0.0610,-0.2441,1,464,854,0
15083382,826,0.0039,0.0376,1.0205,-0.2441,-0.1221,-0.1221,1,509,863,0
15088382,827,0.0039,0.0376,1.0195,-0.1831,0.0000,-0.1221,1,481,895,0
15093382,828,0.0039,0.0371,1.0195,-0.3052,0.0610,-0.1831,1,480,823,0
15098384,829,0.0034,0.0376,1.0200,-0.2441,0.0000,-0.1831,1,482,841,0
15103388,830,0.0029,0.0381,1.0220,-0.3052,-0.0610,-0.1221,1,481,801,0
15108385,831,0.0039,0.0386,1.0229,-0.1831,-0.0610,-0.1831,1,481,811,0
15113384,832,0.0044,0.0386,1.0220,-0.1831,0.0000,-0.0610,1,486,854,0
15118383,833,0.0039,0.0376,1.0220,-0.3052,0.0000,-0.1831,1,502,802,0
15123382,834,0.0034,0.0366,1.0225,-0.2441,-0.0610,-0.1221,1,474,820,0
15128386,835,0.0034,0.0376,1.0210,-0.1831,-0.1831,-0.1221,1,491,873,0
15133388,836,0.0034,0.0391,1.0200,-0.1831,-0.0610,-0.1831,1,464,870,0
15138381,837,0.0024,0.0391,1.0215,-0.1831,0.0000,-0.0610,1,464,898,0
15143382,838,0.0020,0.0376,1.0225,-0.2441,0.0000,-0.1221,1,463,853,0
15148382,839,0.0015,0.0366,1.0215,0.0000,0.0000,-0.1221,1,464,822,0
15153388,840,0.0015,0.0371,1.0200,-0.1831,0.0610,-0.1831,1,464,801,0
15158382,841,0.0029,0.0371,1.0195,-0.2441,-0.0610,-0.1221,1,464,899,0
15163387,842,0.0034,0.0366,1.0205,-0.1831,-0.1221,-0.1831,1,464,901,0
15168385,843,0.0039,0.0366,1.0215,-0.2441,-0.0610,-0.1221,1,464,904,0
15173398,844,0.0044,0.0376,1.0210,-0.2441,-0.0610,-0.1221,1,464,899,0
15178384,845,0.0044,0.0386,1.0200,-0.1221,-0.0610,-0.1221,1,463,864,0
15183402,846,0.0029,0.0386,1.0195,-0.1221,-0.0610,-0.0610,1,481,858,0
15188381,847,0.0015,0.0381,1.0200,-0.3052,0.0000,-0.1831,1,464,884,0
15193381,848,0.0015,0.0371,1.0210,-0.1221,0.0000,-0.1831,1,509,813,0
15198390,849,0.0020,0.0371,1.0215,-0.1831,0.1221,-0.0610,1,486,761,0
15203381,850,0.0020,0.0371,1.0215,-0.2441,0.0000,-0.0610,1,493,782,0
15208389,851,0.0015,0.0376,1.0205,-0.3052,-0.0610,-0.1221,1,481,776,0
15213385,852,0.0015,0.0376,1.0205,-0.1831,-0.0610,-0.1221,1,497,857,0
15218386,853,0.0020,0.0386,1.0200,-0.2441,0.1221,-0.1221,1,481,816,0
15223385,854,0.0020,0.0396,1.0200,-0.1831,0.0000,-0.1221,1,483,866,0
15228381,855,0.0024,0.0391,1.0195,-0.2441,-0.0610,-0.2441,1,501,800,0
15233387,856,0.0034,0.0371,1.0195,-0.2441,0.0000,-0.1831,1,478,871,0
15238388,857,0.0044,0.0366,1.0210,-0.2441,0.0000,-0.1831,1,490,834,0
15243384,858,0.0044,0.0376,1.0215,-0.3052,-0.1221,-0.1221,1,464,828,0
15248385,859,0.0034,0.0381,1.0200,-0.1221,0.0000,-0.1221,1,464,888,0
15253381,860,0.0024,0.0376,1.0195,-0.1221,0.0000,-0.1831,1,464,846,0
15258386,861,0.0015,0.0366,1.0200,-0.2441,-0.0610,-0.1221,1,464,827,0
15263386,862,0.0029,0.0366,1.0210,-0.3052,0.0000,-0.1831,1,464,896,0
15268386,863,0.0039,0.0371,1.0215,-0.2441,0.0000,-0.1831,1,464,823,0
15273385,864,0.0034,0.0371,1.0210,-0.1221,-0.0610,-0.1221,1,464,830,0
15278382,865,0.0029,0.0361,1.0205,-0.3052,0.0000,-0.2441,1,463,894,0
15283384,866,0.0020,0.0361,1.0205,-0.3052,-0.0610,-0.3052,1,464,823,0
15288386,867,0.0010,0.0371,1.0205,-0.2441,-0.0610,-0.1831,1,464,861,0
15293388,868,0.0015,0.0376,1.0210,-0.1831,-0.0610,-0.1221,1,464,896,0
15298382,869,0.0024,0.0381,1.0210,-0.2441,0.0610,-0.1831,1,464,852,0
15303386,870,0.0029,0.0376,1.0205,-0.1831,0.0000,-0.1221,1,467,895,0
15308385,871,0.0024,0.0376,1.0205,-0.3052,-0.1221,-0.1831,1,494,743,0
15313386,872,0.0010,0.0376,1.0195,-0.2441,0.0000,-0.1221,1,477,809,0
15318389,873,0.0024,0.0376,1.0186,-0.2441,0.0610,-0.3052,1,480,772,0
15323387,874,0.0034,0.0371,1.0210,-0.3662,0.0000,-0.1221,1,482,840,0
15328387,875,0.0034,0.0371,1.0215,-0.3052,-0.0610,-0.1221,1,509,832,0
15333387,876,0.0034,0.0376,1.0215,-0.1221,-0.0610,-0.0610,1,486,874,0
15338384,877,0.0029,0.0391,1.0205,-0.1831,-0.0610,-0.1831,1,501,846,0
15343384,878,0.0024,0.0391,1.0205,-0.1831,0.0610,-0.1831,1,482,841,0
15348386,879,0.0020,0.0386,1.0205,-0.2441,0.0000,-0.1221,1,492,870,0
15353385,880,0.0024,0.0376,1.0210,-0.2441,0.0000,-0.1221,1,463,822,0
15358388,881,0.0024,0.0371,1.0215,-0.3052,-0.1221,-0.1831,1,463,854,0
15363382,882,0.0020,0.0366,1.0215,-0.2441,-0.0610,-0.0610,1,464,900,0
15368386,883,0.0029,0.0371,1.0215,-0.3052,-0.1221,-0.1221,1,464,900,0
15373383,884,0.0039,0.0381,1.0210,-0.2441,0.0000,-0.0610,1,464,892,0
15378382,885,0.0034,0.0386,1.0200,-0.2441,0.0000,-0.1221,1,463,850,0
15383384,886,0.0020,0.0381,1.0195,-0.1831,0.0000,-0.1221,1,464,852,0
15388390,887,0.0020,0.0376,1.0195,-0.1831,-0.1221,-0.2441,1,464,819,0
15393385,888,0.0034,0.0376,1.0195,-0.1831,-0.0610,-0.1831,1,464,871,0
15398408,889,0.0039,0.0376,1.0190,-0.1831,-0.1221,-0.1831,1,480,874,0
15403386,890,0.0029,0.0386,1.0190,-0.2441,-0.1221,-0.1221,1,464,899,0
15408388,891,0.0010,0.0391,1.0205,-0.3052,0.0000,-0.1831,1,505,855,0
15413389,892,0.0005,0.0386,1.0220,-0.3052,0.0610,-0.1831,1,467,737,0
15418382,893,0.0024,0.0376,1.0215,-0.2441,0.0000,-0.1831,1,493,746,0
15423382,894,0.0029,0.0386,1.0195,-0.2441,0.0610,-0.1831,1,478,752,0
15428387,895,0.0029,0.0391,1.0186,-0.1221,0.1221,-0.0610,1,484,797,0
15433388,896,0.0024,0.0391,1.0190,-0.2441,-0.0610,-0.1221,1,503,839,0
15438388,897,0.0020,0.0386,1.0200,-0.2441,-0.0610,-0.1831,1,505,818,0
15443382,898,0.0020,0.0381,1.0205,-0.2441,0.0610,-0.1221,1,503,878,0
15448387,899,0.0024,0.0381,1.0205,-0.3052,0.0000,-0.2441,1,486,861,0
15453386,900,0.0020,0.0386,1.0210,-0.1221,0.0000,-0.1831,1,491,794,0
15458383,901,0.0024,0.0386,1.0200,-0.1831,0.0000,-0.1831,1,463,820,0
15463381,902,0.0029,0.0376,1.0190,-0.2441,0.0000,-0.1221,1,463,858,0
15468383,903,0.0034,0.0381,1.0190,-0.1831,-0.0610,-0.1831,1,463,853,0
15473381,904,0.0024,0.0386,1.0205,-0.1221,-0.0610,-0.3052,1,464,903,0
15478385,905,0.0015,0.0386,1.0205,-0.2441,-0.0610,-0.0610,1,464,864,0
15483384,906,0.0015,0.0376,1.0215,-0.2441,-0.0610,-0.1221,1,464,867,0
15488389,907,0.0020,0.0366,1.0225,-0.1221,-0.0610,-0.1831,1,463,864,0
15493388,908,0.0029,0.0371,1.0215,-0.3052,-0.0610,-0.0610,1,463,868,0
15498402,909,0.0029,0.0381,1.0195,-0.1831,-0.1221,-0.1221,1,464,865,0
15503383,910,0.0034,0.0386,1.0190,-0.2441,0.0000,-0.1831,1,464,866,0
15508400,911,0.0034,0.0381,1.0190,-0.2441,0.0000,-0.1221,1,463,848,0
15513381,912,0.0029,0.0381,1.0195,-0.3052,0.0610,-0.3052,1,465,744,0
15518382,913,0.0024,0.0386,1.0200,-0.3052,0.1221,-0.1221,1,509,850,0
15523388,914,0.0029,0.0386,1.0200,-0.3052,0.0610,-0.0610,1,492,901,0
15528388,915,0.0024,0.0386,1.0210,-0.3662,-0.0610,-0.0610,1,509,747,0
15533385,916,0.0015,0.0381,1.0210,-0.4272,-0.1221,-0.1221,1,490,865,0
15538385,917,0.0020,0.0376,1.0210,-0.2441,0.0000,-0.1831,1,491,811,0
15543382,918,0.0024,0.0376,1.0205,-0.2441,0.0000,-0.1221,1,475,826,0
15548387,919,0.0029,0.0371,1.0200,-0.1831,-0.0610,-0.1831,1,498,775,0
15553385,920,0.0024,0.0371,1.0195,-0.2441,0.0000,-0.1221,1,504,854,0
15558381,921,0.0020,0.0376,1.0200,-0.4272,0.0000,0.0000,1,474,826,0
15563381,922,0.0015,0.0381,1.0215,-0.1831,0.0000,-0.0610,1,491,777,0
15568388,923,0.0010,0.0381,1.0215,-0.0610,-0.0610,-0.1831,1,464,847,0
15573382,924,0.0010,0.0371,1.0215,-0.1831,-0.1221,-0.0610,1,464,890,0
15578389,925,0.0024,0.0376,1.0205,-0.1831,0.0610,-0.0610,1,464,894,0
15583384,926,0.0034,0.0386,1.0200,-0.1221,0.0610,-0.1221,1,464,900,0
15588389,927,0.0034,0.0381,1.0210,-0.2441,-0.0610,-0.0610,1,464,892,0
15593389,928,0.0029,0.0381,1.0215,-0.3052,0.1221,-0.1831,1,464,896,0
15598383,929,0.0034,0.0381,1.0210,-0.2441,0.0610,-0.1831,1,464,863,0
15603385,930,0.0029,0.0381,1.0200,-0.1221,-0.0610,-0.0610,1,464,898,0
15608389,931,0.0024,0.0381,1.0190,-0.1831,0.1221,-0.1221,1,464,891,0
15613387,932,0.0020,0.0381,1.0190,-0.2441,0.0000,-0.1831,1,481,893,0
15618416,933,0.0029,0.0371,1.0190,-0.1831,-0.0610,-0.0610,1,464,815,0
15623382,934,0.0034,0.0361,1.0190,-0.3052,0.0000,-0.0610,1,464,860,0
15628382,935,0.0024,0.0366,1.0205,-0.2441,0.0000,-0.1221,1,465,764,0
15633384,936,0.0020,0.0371,1.0220,-0.1221,-0.0610,-0.2441,1,508,769,0
15638386,937,0.0020,0.0371,1.0229,-0.1831,-0.0610,-0.2441,1,469,773,0
15643382,938,0.0020,0.0371,1.0215,-0.1831,0.0610,-0.1831,1,491,855,0
15648385,939,0.0020,0.0366,1.0195,-0.1221,0.0000,-0.1221,1,481,854,0
15653383,940,0.0020,0.0371,1.0190,-0.3052,-0.0610,-0.1221,1,501,802,0
15658389,941,0.0024,0.0381,1.0195,-0.1831,0.0000,-0.1221,1,494,817,0
15663384,942,0.0024,0.0386,1.0195,-0.2441,0.0000,-0.1221,1,478,805,0
15668387,943,0.0020,0.0386,1.0200,-0.1831,-0.0610,-0.1221,1,491,798,0
15673383,944,0.0029,0.0381,1.0200,-0.3052,-0.0610,-0.1221,1,491,837,0
15678382,945,0.0034,0.0366,1.0215,-0.3052,-0.0610,-0.0610,1,463,859,0
15683384,946,0.0029,0.0356,1.0215,-0.3052,-0.0610,-0.1831,1,464,898,0
15688386,947,0.0029,0.0371,1.0215,-0.3662,-0.0610,-0.1831,1,463,899,0
15693383,948,0.0029,0.0386,1.0215,-0.3052,0.0000,-0.0610,1,464,903,0
15698389,949,0.0020,0.0391,1.0229,-0.3052,-0.0610,-0.1831,1,464,847,0
15703386,950,0.0015,0.0396,1.0229,-0.1831,-0.1221,-0.1221,1,464,893,0
15708384,951,0.0020,0.0396,1.0225,-0.1831,0.0000,-0.1831,1,464,867,0
15713406,952,0.0024,0.0391,1.0220,-0.3052,0.1221,-0.2441,1,464,854,0
15718384,953,0.0020,0.0391,1.0215,-0.2441,-0.0610,-0.1221,1,464,863,0
15723405,954,0.0024,0.0391,1.0215,-0.1221,-0.0610,-0.2441,1,464,861,0
15728384,955,0.0034,0.0386,1.0205,-0.1831,0.0000,-0.1831,1,464,855,0
15733389,956,0.0034,0.0386,1.0186,-0.2441,-0.0610,-0.1221,1,509,826,0
15738386,957,0.0029,0.0386,1.0186,-0.1221,-0.0610,-0.0610,1,490,892,0
15743382,958,0.0034,0.0391,1.0195,-0.1221,0.0610,-0.1221,1,496,784,0
15748386,959,0.0029,0.0391,1.0205,-0.1221,-0.0610,-0.1831,1,483,851,0
15753383,960,0.0024,0.0391,1.0205,-0.2441,-0.1221,-0.1831,1,503,816,0
15758385,961,0.0020,0.0386,1.0210,-0.1831,0.0000,-0.1221,1,491,852,0
15763384,962,0.0015,0.0381,1.0205,-0.1831,-0.1221,-0.1221,1,489,770,0
15768386,963,0.0015,0.0381,1.0210,-0.2441,0.0000,-0.1221,1,475,842,0
15773388,964,0.0024,0.0381,1.0220,-0.3662,0.0000,-0.2441,1,491,816,0
15778381,965,0.0029,0.0381,1.0215,-0.2441,0.0000,-0.1831,1,492,798,0
15783384,966,0.0029,0.0376,1.0210,-0.2441,0.0000,-0.1831,1,464,853,0
15788388,967,0.0029,0.0376,1.0210,-0.1221,0.0000,-0.2441,1,464,826,0
15793387,968,0.0024,0.0381,1.0210,-0.1831,-0.1221,-0.2441,1,464,821,0
15798388,969,0.0020,0.0381,1.0205,-0.1831,-0.1221,-0.0610,1,464,869,0
15803383,970,0.0029,0.0381,1.0205,-0.1831,0.0000,-0.3052,1,463,865,0
15808382,971,0.0029,0.0381,1.0195,-0.3052,0.0000,-0.1831,1,464,849,0
15813382,972,0.0015,0.0386,1.0186,-0.3052,-0.1221,-0.2441,1,464,850,0
15818388,973,0.0010,0.0386,1.0186,-0.1221,-0.1221,-0.2441,1,464,891,0
15823390,974,0.0010,0.0386,1.0200,-0.2441,0.0000,-0.1221,1,464,888,0
15828411,975,0.0015,0.0386,1.0200,-0.2441,0.0000,-0.1831,1,463,806,0
15833389,976,0.0024,0.0376,1.0200,-0.1831,-0.0610,-0.1831,1,463,772,0
15838384,977,0.0034,0.0366,1.0210,-0.2441,-0.0610,-0.1831,1,465,870,0
15843389,978,0.0039,0.0371,1.0210,-0.1831,-0.1221,-0.0610,1,500,900,0
15848386,979,0.0039,0.0391,1.0200,-0.3052,-0.0610,-0.1221,1,497,813,0
15853385,980,0.0039,0.0400,1.0205,-0.1831,-0.0610,-0.1221,1,482,848,0
15858387,981,0.0034,0.0391,1.0205,-0.2441,-0.0610,-0.1221,1,503,819,0
15863384,982,0.0029,0.0376,1.0190,-0.3052,0.0000,-0.1831,1,503,846,0
15868389,983,0.0029,0.0361,1.0181,-0.2441,-0.0610,-0.2441,1,481,773,0
15873388,984,0.0029,0.0361,1.0186,-0.1831,-0.0610,-0.1221,1,500,822,0
15878386,985,0.0029,0.0381,1.0195,-0.1221,0.0000,-0.1831,1,481,867,0
15883383,986,0.0024,0.0386,1.0205,-0.2441,0.0000,-0.1221,1,491,793,0
15888386,987,0.0024,0.0386,1.0205,-0.1831,-0.1221,0.0000,1,464,853,0
15893389,988,0.0029,0.0381,1.0195,-0.2441,0.0000,-0.1221,1,464,826,0
15898389,989,0.0039,0.0376,1.0195,-0.2441,0.0000,-0.0610,1,464,822,0
15903387,990,0.0044,0.0381,1.0195,-0.3052,0.0000,-0.0610,1,464,857,0
15908384,991,0.0039,0.0391,1.0186,-0.3052,0.0000,-0.1221,1,464,847,0
15913386,992,0.0020,0.0391,1.0200,-0.2441,0.0000,-0.1221,1,463,844,0
15918390,993,0.0010,0.0386,1.0220,-0.3052,0.0000,-0.0610,1,464,817,0
15923388,994,0.0005,0.0381,1.0234,-0.2441,-0.1831,-0.1831,1,463,813,0
15928383,995,0.0020,0.0381,1.0229,-0.2441,-0.1831,-0.2441,1,464,871,0
15933389,996,0.0039,0.0381,1.0220,-0.1831,-0.0610,-0.1221,1,480,903,0
15938389,997,0.0044,0.0386,1.0200,-0.1221,-0.0610,-0.1831,1,464,885,0
15943387,998,0.0039,0.0381,1.0195,-0.1831,-0.1221,-0.1831,1,466,853,0
15948383,999,0.0034,0.0381,1.0195,-0.2441,-0.1221,-0.0610,1,509,892,0
15953384,1000,0.0020,0.0376,1.0190,-0.2441,0.0000,-0.1221,1,494,929,0
15958385,1001,0.0010,0.0376,1.0181,-0.1831,0.0610,-0.1831,1,476,746,0
15963383,1002,0.0020,0.0371,1.0190,-0.1831,-0.0610,-0.0610,1,501,854,0
15968381,1003,0.0024,0.0366,1.0215,-0.2441,-0.0610,0.0000,1,486,854,0
15973382,1004,0.0034,0.0366,1.0220,-0.2441,-0.0610,-0.1831,1,489,780,0
15978384,1005,0.0034,0.0366,1.0220,-0.1221,0.0000,-0.2441,1,502,878,0
15983382,1006,0.0039,0.0371,1.0215,-0.1831,0.0000,-0.1831,1,471,796,0
15988388,1007,0.0029,0.0386,1.0210,-0.1221,0.0610,-0.1221,1,491,802,0
15993388,1008,0.0020,0.0386,1.0215,-0.1831,-0.0610,-0.1831,1,464,832,0
15998381,1009,0.0020,0.0386,1.0225,-0.2441,-0.0610,-0.1221,1,464,870,0
16003388,1010,0.0024,0.0386,1.0220,-0.2441,0.0000,-0.1221,1,464,866,0
16008381,1011,0.0015,0.0381,1.0210,-0.1831,-0.0610,-0.0610,1,464,853,0
16013385,1012,0.0010,0.0376,1.0205,-0.1221,-0.0610,-0.1221,1,464,863,0
16018386,1013,0.0010,0.0371,1.0205,-0.3052,0.0000,-0.1831,1,464,860,0
16023385,1014,0.0010,0.0381,1.0210,-0.3052,0.0000,-0.1221,1,463,850,0
16028383,1015,0.0015,0.0376,1.0215,-0.2441,-0.0610,-0.2441,1,464,838,0
16033384,1016,0.0020,0.0371,1.0215,-0.1831,-0.0610,-0.2441,1,463,869,0
16038388,1017,0.0024,0.0366,1.0210,-0.2441,-0.0610,-0.1831,1,464,872,0
16043388,1018,0.0024,0.0371,1.0220,-0.2441,0.0610,-0.2441,1,464,904,0
16048386,1019,0.0020,0.0376,1.0210,-0.2441,-0.0610,-0.1831,1,480,895,0
16053386,1020,0.0024,0.0376,1.0195,-0.1221,0.0000,-0.1221,1,508,859,0
16058389,1021,0.0029,0.0376,1.0190,-0.2441,0.0000,-0.0610,1,469,763,0
16063383,1022,0.0020,0.0371,1.0195,-0.1831,0.0000,-0.1221,1,493,794,0
16068382,1023,0.0015,0.0371,1.0195,-0.2441,0.0000,-0.1221,1,499,777,0
16073383,1024,0.0015,0.0371,1.0190,-0.3662,0.0610,-0.0610,1,480,798,0
16078386,1025,0.0015,0.0376,1.0200,-0.2441,0.0000,-0.2441,1,484,851,0
16083382,1026,0.0020,0.0386,1.0210,-0.1831,-0.0610,-0.1831,1,479,776,0
16088389,1027,0.0020,0.0386,1.0220,-0.1831,-0.0610,-0.1221,1,508,849,0
16093383,1028,0.0015,0.0376,1.0225,-0.1221,0.0000,-0.1221,1,491,863,0
16098385,1029,0.0020,0.0371,1.0220,-0.1831,-0.0610,-0.1221,1,491,816,0
16103386,1030,0.0024,0.0381,1.0200,-0.2441,0.0000,-0.1831,1,464,869,0
16108382,1031,0.0029,0.0386,1.0195,-0.1831,0.0000,-0.1831,1,464,855,0
16113381,1032,0.0039,0.0386,1.0200,-0.1221,-0.1221,-0.1221,1,464,858,0
16118384,1033,0.0044,0.0391,1.0205,-0.3052,0.0000,-0.1221,1,464,862,0
16123386,1034,0.0044,0.0386,1.0215,-0.2441,0.1221,-0.1221,1,463,844,0
16128383,1035,0.0039,0.0371,1.0215,-0.1221,-0.0610,-0.1221,1,464,893,0
16133390,1036,0.0034,0.0361,1.0215,-0.2441,-0.1221,-0.1831,1,464,866,0
16138405,1037,0.0034,0.0361,1.0220,-0.2441,0.0000,-0.2441,1,463,875,0
16143387,1038,0.0034,0.0361,1.0220,-0.0610,-0.0610,-0.1831,1,464,831,0
16148381,1039,0.0034,0.0376,1.0210,-0.1831,-0.0610,-0.1831,1,481,871,0
16153385,1040,0.0020,0.0381,1.0195,-0.3052,-0.0610,-0.0610,1,481,890,0
16158387,1041,0.0015,0.0381,1.0195,-0.3662,0.0000,-0.1831,1,508,777,0
16163382,1042,0.0015,0.0381,1.0205,-0.1221,0.0000,-0.1831,1,467,766,0
16168384,1043,0.0015,0.0376,1.0220,-0.1831,-0.0610,-0.1831,1,497,826,0
16173383,1044,0.0010,0.0376,1.0215,-0.1831,-0.0610,-0.1221,1,500,765,0
16178389,1045,0.0015,0.0376,1.0195,-0.2441,0.0610,-0.1221,1,502,862,0
16183387,1046,0.0034,0.0376,1.0186,-0.3052,0.0000,-0.2441,1,503,819,0
16188383,1047,0.0039,0.0371,1.0195,-0.2441,-0.0610,-0.2441,1,481,774,0
16193389,1048,0.0034,0.0371,1.0205,-0.1831,0.0000,-0.0610,1,508,830,0
16198382,1049,0.0024,0.0381,1.0210,-0.2441,-0.0610,-0.0610,1,491,825,0
16203382,1050,0.0024,0.0391,1.0210,-0.1831,0.0000,-0.0610,1,491,869,0
16208389,1051,0.0024,0.0381,1.0200,-0.1831,-0.0610,-0.0610,1,464,820,0
16213388,1052,0.0024,0.0371,1.0195,-0.1221,-0.0610,-0.0610,1,464,867,0
16218383,1053,0.0020,0.0371,1.0205,-0.2441,0.0000,-0.1221,1,464,900,0
16223387,1054,0.0024,0.0371,1.0205,-0.3052,0.0610,-0.2441,1,464,854,0
16228381,1055,0.0034,0.0371,1.0210,-0.1831,0.0610,-0.0610,1,464,871,0
16233384,1056,0.0039,0.0371,1.0210,-0.2441,-0.0610,0.0000,1,464,899,0
16238389,1057,0.0034,0.0376,1.0215,-0.1831,-0.1221,-0.0610,1,464,827,0
16243399,1058,0.0034,0.0381,1.0225,-0.2441,0.1221,-0.1831,1,464,896,0
16248383,1059,0.0029,0.0386,1.0225,-0.3662,0.0610,-0.1221,1,463,870,0
16253388,1060,0.0020,0.0386,1.0220,-0.1221,-0.0610,-0.1221,1,481,865,0
16258381,1061,0.0015,0.0376,1.0205,-0.1221,-0.1221,-0.1831,1,464,878,0
16263384,1062,0.0015,0.0371,1.0200,-0.1831,-0.0610,-0.0610,1,481,853,0
16268384,1063,0.0020,0.0376,1.0205,-0.1831,0.0000,-0.2441,1,474,893,0
16273381,1064,0.0024,0.0376,1.0215,-0.0610,0.0000,-0.1221,1,496,767,0
16278383,1065,0.0024,0.0376,1.0215,-0.2441,-0.0610,-0.1221,1,478,817,0
16283389,1066,0.0024,0.0376,1.0205,-0.2441,-0.1221,0.0000,1,497,848,0
16288383,1067,0.0029,0.0376,1.0200,-0.3052,0.0000,-0.1221,1,490,808,0
16293385,1068,0.0024,0.0376,1.0190,-0.3052,-0.0610,-0.3052,1,499,817,0
16298381,1069,0.0024,0.0371,1.0181,-0.1831,-0.0610,-0.1831,1,492,873,0
16303388,1070,0.0024,0.0376,1.0186,-0.2441,0.0610,-0.1221,1,503,855,0
16308389,1071,0.0034,0.0381,1.0195,-0.2441,0.0000,-0.1221,1,481,870,0
16313389,1072,0.0034,0.0376,1.0210,-0.1831,-0.0610,-0.0610,1,490,796,0
16318388,1073,0.0024,0.0376,1.0220,-0.2441,-0.0610,-0.1221,1,464,868,0
16323388,1074,0.0029,0.0386,1.0210,-0.3052,-0.1221,-0.1831,1,464,868,0
16328382,1075,0.0034,0.0386,1.0210,-0.3662,0.0610,-0.0610,1,463,863,0
16333385,1076,0.0029,0.0371,1.0215,-0.2441,-0.0610,-0.0610,1,464,898,0
16338388,1077,0.0020,0.0371,1.0225,-0.2441,0.0000,-0.0610,1,463,900,0
16343382,1078,0.0024,0.0381,1.0225,-0.2441,-0.0610,0.0000,1,463,854,0
16348384,1079,0.0044,0.0386,1.0220,-0.2441,0.0000,-0.0610,1,464,824,0
16353390,1080,0.0054,0.0396,1.0210,-0.3052,0.0000,-0.1831,1,463,821,0
16358388,1081,0.0044,0.0396,1.0205,-0.1831,0.0000,-0.1221,1,464,847,0
16363386,1082,0.0029,0.0386,1.0205,-0.1221,0.0000,-0.0610,1,481,848,0
16368382,1083,0.0024,0.0381,1.0200,-0.1831,-0.0610,-0.1831,1,464,741,0
16373386,1084,0.0015,0.0381,1.0195,-0.2441,-0.0610,-0.0610,1,481,891,0
16378382,1085,0.0024,0.0381,1.0205,-0.3052,-0.0610,-0.2441,1,470,893,0
16383384,1086,0.0029,0.0371,1.0210,-0.2441,0.0610,-0.0610,1,479,845,0
16388381,1087,0.0034,0.0371,1.0225,-0.2441,0.0000,-0.1831,1,481,773,0
16393387,1088,0.0029,0.0381,1.0229,-0.1831,-0.0610,-0.2441,1,489,812,0
16398385,1089,0.0020,0.0386,1.0215,-0.2441,-0.0610,-0.1221,1,487,825,0
16403385,1090,0.0020,0.0381,1.0190,-0.2441,-0.0610,-0.1831,1,493,848,0
16408383,1091,0.0029,0.0376,1.0186,-0.2441,-0.0610,-0.1831,1,499,849,0
16413385,1092,0.0029,0.0381,1.0200,-0.1831,0.0610,-0.1221,1,484,840,0
16418382,1093,0.0024,0.0376,1.0210,-0.2441,0.0610,-0.0610,1,484,836,0
16423382,1094,0.0024,0.0376,1.0210,-0.2441,-0.0610,-0.0610,1,491,870,0
16428385,1095,0.0024,0.0371,1.0210,-0.1831,-0.1221,-0.1221,1,464,899,0
16433386,1096,0.0024,0.0371,1.0205,-0.1221,-0.1831,-0.1831,1,464,870,0
16438388,1097,0.0024,0.0366,1.0210,-0.3052,-0.0610,-0.1831,1,464,907,0
16443382,1098,0.0034,0.0371,1.0215,-0.2441,-0.0610,-0.1831,1,463,900,0
16448381,1099,0.0034,0.0381,1.0220,-0.2441,0.0000,-0.1831,1,463,905,0
16453387,1100,0.0020,0.0386,1.0225,-0.3052,0.0610,-0.2441,1,464,856,0
16458386,1101,0.0015,0.0391,1.0225,-0.1221,0.0610,-0.1221,1,464,894,0
16463387,1102,0.0024,0.0381,1.0225,-0.1831,0.0000,-0.0610,1,463,887,0
16468386,1103,0.0034,0.0376,1.0220,-0.1221,0.0000,0.0000,1,480,851,0
16473402,1104,0.0039,0.0376,1.0220,-0.2441,-0.0610,-0.1221,1,464,801,0
16478389,1105,0.0034,0.0376,1.0215,-0.1831,-0.1221,-0.1831,1,470,857,0
16483382,1106,0.0024,0.0381,1.0195,-0.2441,0.0610,-0.1831,1,482,861,0
16488388,1107,0.0020,0.0396,1.0190,-0.2441,-0.1221,0.0000,1,481,929,0
16493386,1108,0.0024,0.0396,1.0215,-0.1221,-0.0610,0.0000,1,500,729,0
16498386,1109,0.0029,0.0391,1.0229,-0.1831,0.0000,-0.0610,1,485,818,0
16503382,1110,0.0034,0.0386,1.0220,-0.2441,-0.0610,-0.1221,1,488,804,0
16508383,1111,0.0039,0.0376,1.0215,-0.2441,-0.1221,-0.1221,1,475,850,0
16513386,1112,0.0044,0.0371,1.0210,-0.3052,0.0000,-0.1221,1,489,846,0
16518383,1113,0.0044,0.0376,1.0215,-0.3662,0.1831,-0.1831,1,495,797,0
16523385,1114,0.0039,0.0371,1.0215,-0.2441,0.0000,-0.1831,1,488,875,0
16528382,1115,0.0024,0.0366,1.0205,-0.1221,0.0610,-0.1831,1,491,802,0
16533387,1116,0.0020,0.0376,1.0200,-0.1221,0.1221,-0.1831,1,464,901,0
16538384,1117,0.0034,0.0391,1.0200,-0.1221,0.0000,-0.1831,1,464,865,0
16543384,1118,0.0044,0.0396,1.0195,-0.2441,0.0610,-0.1221,1,463,851,0
16548385,1119,0.0044,0.0381,1.0205,-0.1831,0.0000,-0.0610,1,463,899,0
16553386,1120,0.0039,0.0376,1.0205,-0.1221,0.0000,-0.1831,1,464,850,0
16558388,1121,0.0029,0.0381,1.0210,-0.1831,0.0000,-0.1831,1,463,825,0
16563389,1122,0.0029,0.0376,1.0229,-0.3052,0.1221,-0.1221,1,464,823,0
16568402,1123,0.0034,0.0376,1.0229,-0.1831,-0.1221,-0.0610,1,464,863,0
16573390,1124,0.0034,0.0376,1.0220,-0.2441,-0.1221,-0.0610,1,463,901,0
16578383,1125,0.0029,0.0371,1.0205,-0.1221,0.0000,0.0000,1,480,899,0
16583416,1126,0.0029,0.0381,1.0205,-0.0610,-0.0610,-0.1221,1,474,816,0
16588389,1127,0.0024,0.0391,1.0215,-0.1831,0.0000,-0.1831,1,481,850,0
16593386,1128,0.0024,0.0396,1.0220,-0.2441,0.0610,-0.1221,1,493,761,0
16598384,1129,0.0039,0.0391,1.0215,-0.2441,-0.1221,-0.1221,1,510,929,0
16603387,1130,0.0049,0.0386,1.0205,-0.1831,-0.1221,-0.0610,1,471,853,0
16608389,1131,0.0044,0.0386,1.0200,-0.1831,0.0000,-0.0610,1,494,801,0
16613381,1132,0.0039,0.0381,1.0195,-0.2441,0.0610,-0.1831,1,494,803,0
16618385,1133,0.0034,0.0381,1.0186,-0.3052,0.1221,-0.1221,1,481,845,0
16623387,1134,0.0024,0.0381,1.0186,-0.2441,-0.0610,-0.1221,1,503,840,0
16628382,1135,0.0015,0.0386,1.0195,-0.2441,-0.0610,-0.1221,1,489,866,0
16633388,1136,0.0015,0.0381,1.0210,-0.1831,-0.0610,-0.2441,1,491,838,0
16638383,1137,0.0020,0.0381,1.0215,-0.1831,0.0000,-0.1831,1,463,864,0
16643385,1138,0.0029,0.0376,1.0200,-0.1831,0.0000,-0.0610,1,464,852,0
16648387,1139,0.0034,0.0376,1.0186,-0.2441,0.0000,-0.1221,1,464,852,0
16653388,1140,0.0029,0.0376,1.0195,-0.1831,-0.0610,-0.0610,1,464,823,0
16658382,1141,0.0034,0.0376,1.0205,0.0000,-0.0610,-0.1831,1,464,899,0
16663388,1142,0.0034,0.0376,1.0210,-0.1831,-0.1831,-0.1221,1,464,856,0
16668381,1143,0.0029,0.0381,1.0210,-0.3052,-0.0610,-0.1831,1,464,898,0
16673386,1144,0.0029,0.0386,1.0200,-0.2441,0.0000,-0.2441,1,464,893,0
16678384,1145,0.0039,0.0391,1.0200,-0.2441,0.0610,-0.1221,1,464,855,0
16683388,1146,0.0034,0.0396,1.0205,-0.1831,0.0610,-0.1221,1,480,864,0
16688400,1147,0.0015,0.0391,1.0215,-0.3052,-0.0610,-0.2441,1,464,888,0
16693383,1148,0.0015,0.0381,1.0220,-0.3052,0.0000,-0.2441,1,482,850,0
16698389,1149,0.0029,0.0381,1.0210,-0.1221,0.0000,-0.2441,1,492,890,0
16703386,1150,0.0044,0.0386,1.0205,-0.1221,-0.0610,-0.1831,1,494,696,0
16708381,1151,0.0044,0.0381,1.0205,-0.3052,-0.0610,-0.1221,1,480,864,0
16713388,1152,0.0039,0.0381,1.0215,-0.2441,-0.0610,-0.1221,1,489,812,0
16718381,1153,0.0024,0.0376,1.0210,-0.3052,0.0000,0.0000,1,488,819,0
16723385,1154,0.0015,0.0371,1.0205,-0.3662,-0.1221,-0.0610,1,474,725,0
16728385,1155,0.0015,0.0371,1.0210,-0.2441,-0.0610,-0.1221,1,495,819,0
16733382,1156,0.0015,0.0381,1.0210,-0.1831,0.0000,-0.1221,1,486,834,0
16738383,1157,0.0020,0.0386,1.0205,-0.1831,-0.0610,-0.1831,1,490,816,0
16743386,1158,0.0020,0.0371,1.0210,-0.2441,0.0610,-0.1831,1,464,871,0
16748389,1159,0.0020,0.0356,1.0200,-0.1221,-0.0610,-0.1221,1,464,899,0
16753386,1160,0.0029,0.0366,1.0186,-0.2441,0.0000,-0.1221,1,464,865,0
16758389,1161,0.0034,0.0381,1.0195,-0.1831,-0.0610,-0.1221,1,464,855,0
16763383,1162,0.0024,0.0386,1.0200,-0.2441,-0.0610,-0.1831,1,464,899,0
16768389,1163,0.0015,0.0391,1.0195,-0.2441,0.0000,-0.1221,1,464,874,0
16773386,1164,0.0015,0.0391,1.0190,-0.2441,0.0000,-0.2441,1,464,847,0
16778386,1165,0.0020,0.0396,1.0200,-0.1831,0.0000,-0.1831,1,464,823,0
16783390,1166,0.0029,0.0396,1.0215,-0.3052,0.0000,-0.1831,1,464,824,0
16788387,1167,0.0034,0.0386,1.0205,-0.3052,-0.1221,-0.1831,1,464,848,0
16793385,1168,0.0029,0.0381,1.0195,-0.2441,-0.0610,-0.1831,1,463,865,0
16798381,1169,0.0029,0.0386,1.0200,-0.1831,-0.0610,-0.3052,1,481,891,0
16803389,1170,0.0024,0.0386,1.0215,-0.2441,-0.0610,-0.1831,1,508,886,0
16808388,1171,0.0015,0.0386,1.0225,-0.3052,0.0000,-0.2441,1,474,929,0
16813389,1172,0.0010,0.0386,1.0220,-0.3052,0.0000,-0.1221,1,498,696,0
16818384,1173,0.0020,0.0386,1.0205,-0.3662,-0.0610,-0.1831,1,478,794,0
16823386,1174,0.0024,0.0376,1.0195,-0.0610,0.0610,-0.1831,1,484,823,0
16828386,1175,0.0024,0.0361,1.0205,-0.2441,0.1221,-0.1831,1,488,853,0
16833382,1176,0.0034,0.0366,1.0225,-0.1831,-0.0610,-0.1221,1,484,853,0
16838384,1177,0.0034,0.0381,1.0229,-0.2441,0.0610,-0.1831,1,503,823,0
16843386,1178,0.0024,0.0386,1.0220,-0.3052,0.1221,-0.2441,1,491,843,0
16848388,1179,0.0029,0.0381,1.0205,-0.2441,0.0610,-0.0610,1,486,839,0
16853386,1180,0.0029,0.0381,1.0195,-0.1831,0.0000,-0.1221,1,491,867,0
16858386,1181,0.0024,0.0381,1.0200,-0.2441,0.0000,-0.1831,1,464,822,0
16863381,1182,0.0015,0.0381,1.0205,-0.3052,0.0000,-0.1221,1,464,855,0
16868381,1183,0.0015,0.0381,1.0205,-0.3662,0.0000,-0.1831,1,464,813,0
16873383,1184,0.0024,0.0381,1.0220,-0.1221,0.0000,-0.1221,1,464,854,0
16878389,1185,0.0024,0.0381,1.0220,-0.1831,-0.0610,-0.1831,1,464,819,0
16883384,1186,0.0020,0.0376,1.0215,-0.1831,-0.0610,-0.0610,1,464,872,0
16888382,1187,0.0024,0.0376,1.0210,-0.1831,0.0000,-0.1831,1,464,866,0
16893385,1188,0.0034,0.0371,1.0215,-0.1221,0.1221,-0.2441,1,464,825,0
16898387,1189,0.0044,0.0371,1.0220,-0.2441,-0.0610,-0.0610,1,463,897,0
16903390,1190,0.0044,0.0381,1.0210,-0.3052,-0.0610,-0.1221,1,475,858,0
16908387,1191,0.0044,0.0391,1.0195,-0.1831,-0.0610,-0.1221,1,481,875,0
16913387,1192,0.0049,0.0391,1.0190,-0.1831,-0.0610,-0.1831,1,466,929,0
16918385,1193,0.0044,0.0386,1.0205,-0.3662,-0.1221,-0.1221,1,489,858,0
16923382,1194,0.0024,0.0381,1.0220,-0.1221,0.0000,-0.1831,1,493,771,0
16928386,1195,0.0005,0.0376,1.0225,-0.0610,0.0000,-0.2441,1,477,795,0
16933386,1196,0.0005,0.0376,1.0215,-0.1831,0.0000,-0.1221,1,496,790,0
16938389,1197,0.0000,0.0381,1.0200,-0.2441,0.0000,-0.1831,1,500,799,0
16943390,1198,0.0005,0.0386,1.0205,-0.1831,-0.0610,-0.1831,1,505,737,0
16948389,1199,0.0020,0.0391,1.0225,-0.1831,-0.0610,-0.0610,1,486,837,0
16953385,1200,0.0039,0.0386,1.0229,-0.2441,-0.0610,0.0000,1,492,863,0
16958381,1201,0.0054,0.0376,1.0220,-0.3052,0.0610,-0.1831,1,491,800,0
16963387,1202,0.0044,0.0366,1.0220,-0.3052,0.0000,-0.1831,1,463,893,0
16968381,1203,0.0024,0.0361,1.0210,-0.1221,-0.0610,-0.1221,1,464,853,0
16973389,1204,0.0020,0.0371,1.0195,-0.1831,-0.1221,0.0610,1,463,896,0
16978383,1205,0.0024,0.0381,1.0195,-0.1831,-0.1831,-0.0610,1,464,899,0
16983388,1206,0.0029,0.0376,1.0200,-0.2441,-0.1221,0.0000,1,463,874,0
16988381,1207,0.0029,0.0386,1.0200,-0.3662,0.0610,-0.1221,1,463,853,0
16993386,1208,0.0024,0.0386,1.0200,-0.3052,-0.0610,-0.0610,1,463,865,0
16998385,1209,0.0024,0.0381,1.0195,-0.2441,-0.0610,-0.0610,1,464,893,0
17003388,1210,0.0029,0.0381,1.0215,-0.2441,0.0000,-0.1221,1,480,900,0
17008407,1211,0.0034,0.0376,1.0220,-0.1831,-0.1221,-0.1221,1,464,839,0
17013385,1212,0.0029,0.0381,1.0205,-0.1831,-0.0610,-0.1221,1,479,857,0
17018383,1213,0.0029,0.0376,1.0205,-0.3052,-0.0610,-0.1831,1,465,864,0
17023388,1214,0.0039,0.0366,1.0210,-0.1831,-0.1221,-0.1831,1,470,857,0
17028390,1215,0.0034,0.0371,1.0205,-0.1831,-0.0610,-0.1831,1,493,857,0
17033387,1216,0.0029,0.0371,1.0200,-0.1831,0.0610,-0.0610,1,471,810,0
17038386,1217,0.0039,0.0366,1.0195,-0.1221,0.0610,-0.1831,1,480,851,0
17043384,1218,0.0034,0.0371,1.0195,-0.1221,-0.0610,-0.1221,1,505,853,0
17048383,1219,0.0034,0.0376,1.0205,-0.1221,-0.0610,-0.1221,1,497,872,0
17053385,1220,0.0039,0.0371,1.0200,-0.1831,-0.1221,-0.1831,1,483,834,0
17058389,1221,0.0029,0.0361,1.0186,-0.3052,-0.1221,-0.1831,1,490,874,0
17063381,1222,0.0020,0.0361,1.0186,-0.2441,0.0000,-0.1221,1,492,869,0
17068384,1223,0.0005,0.0371,1.0205,-0.2441,0.0000,-0.1221,1,464,825,0
17073383,1224,0.0015,0.0381,1.0220,-0.2441,-0.0610,-0.0610,1,464,822,0
17078381,1225,0.0029,0.0386,1.0220,-0.3662,0.0000,-0.1221,1,464,866,0
17083389,1226,0.0029,0.0391,1.0215,-0.3052,-0.0610,-0.1221,1,463,823,0
17088389,1227,0.0034,0.0381,1.0220,-0.1831,-0.0610,-0.0610,1,464,859,0
17093382,1228,0.0029,0.0366,1.0234,-0.2441,0.0000,-0.0610,1,464,898,0
17098381,1229,0.0024,0.0371,1.0229,-0.2441,0.1221,-0.0610,1,464,858,0
17103389,1230,0.0015,0.0381,1.0210,-0.2441,0.1221,-0.1831,1,463,903,0
17108384,1231,0.0015,0.0391,1.0195,-0.1221,-0.0610,-0.1221,1,480,864,0
17113385,1232,0.0015,0.0396,1.0200,-0.0610,-0.0610,-0.1221,1,463,850,0
17118386,1233,0.0010,0.0391,1.0210,-0.2441,-0.1221,-0.1221,1,481,850,0
17123385,1234,0.0020,0.0391,1.0205,-0.3662,-0.0610,-0.1221,1,465,884,0
17128386,1235,0.0020,0.0391,1.0215,-0.3052,-0.0610,-0.1221,1,468,881,0
17133383,1236,0.0020,0.0381,1.0225,-0.2441,0.0000,-0.0610,1,492,735,0
17138384,1237,0.0020,0.0376,1.0220,-0.2441,0.0000,-0.0610,1,479,771,0
17143384,1238,0.0029,0.0371,1.0215,-0.1831,-0.0610,-0.1831,1,484,802,0
17148386,1239,0.0034,0.0371,1.0210,-0.2441,0.0000,-0.1221,1,505,856,0
17153388,1240,0.0024,0.0376,1.0215,-0.1831,0.1831,-0.1831,1,504,776,0
17158384,1241,0.0020,0.0381,1.0210,-0.1221,0.0610,0.0000,1,475,844,0
17163389,1242,0.0020,0.0391,1.0205,-0.2441,0.0000,0.0000,1,486,814,0
17168386,1243,0.0024,0.0396,1.0210,-0.3662,0.0000,-0.1831,1,491,776,0
17173381,1244,0.0029,0.0386,1.0210,-0.2441,-0.0610,-0.2441,1,464,854,0
17178387,1245,0.0034,0.0371,1.0210,-0.2441,0.0000,-0.3052,1,464,902,0
17183389,1246,0.0034,0.0366,1.0205,-0.0610,-0.1221,-0.1221,1,463,825,0
17188390,1247,0.0029,0.0366,1.0205,-0.2441,-0.0610,-0.2441,1,464,869,0
17193381,1248,0.0015,0.0376,1.0210,-0.3052,0.0610,-0.1221,1,463,906,0
17198381,1249,0.0005,0.0381,1.0220,-0.2441,-0.0610,-0.0610,1,464,886,0
17203384,1250,0.0015,0.0386,1.0225,-0.3662,-0.0610,-0.1221,1,464,890,0
17208381,1251,0.0024,0.0386,1.0225,-0.1221,-0.0610,-0.1221,1,464,864,0
17213384,1252,0.0039,0.0376,1.0220,-0.2441,-0.1221,-0.1221,1,464,863,0
17218385,1253,0.0034,0.0371,1.0215,-0.3662,-0.0610,-0.1221,1,481,897,0
17223398,1254,0.0020,0.0376,1.0210,-0.2441,-0.0610,-0.1221,1,473,861,0
17228384,1255,0.0015,0.0386,1.0210,-0.2441,-0.0610,-0.1831,1,481,854,0
17233385,1256,0.0010,0.0396,1.0215,-0.0610,-0.0610,-0.1831,1,493,894,0
17238387,1257,0.0020,0.0386,1.0210,-0.2441,0.0000,-0.3662,1,485,792,0
17243389,1258,0.0034,0.0376,1.0200,-0.3662,-0.0610,-0.1831,1,465,786,0
17248384,1259,0.0039,0.0371,1.0186,-0.1831,-0.1221,-0.0610,1,489,819,0
17253385,1260,0.0034,0.0366,1.0190,-0.1221,0.0000,-0.1221,1,481,852,0
17258386,1261,0.0015,0.0366,1.0215,-0.1221,0.0610,-0.1221,1,502,803,0
17263386,1262,0.0005,0.0376,1.0225,-0.1831,0.0000,-0.0610,1,491,814,0
17268387,1263,0.0015,0.0381,1.0220,-0.3052,-0.0610,-0.0610,1,480,818,0
17273389,1264,0.0024,0.0381,1.0210,-0.3052,-0.1221,-0.1221,1,484,859,0
17278381,1265,0.0034,0.0381,1.0200,-0.2441,-0.0610,-0.1221,1,491,861,0
17283388,1266,0.0034,0.0371,1.0195,-0.1221,-0.1221,-0.1831,1,463,867,0
17288385,1267,0.0020,0.0366,1.0195,-0.2441,-0.0610,-0.1221,1,463,903,0
17293389,1268,0.0010,0.0376,1.0195,-0.1831,-0.0610,-0.1831,1,463,901,0
17298382,1269,0.0020,0.0386,1.0195,-0.1831,0.0610,-0.0610,1,464,871,0
17303385,1270,0.0039,0.0386,1.0200,-0.2441,-0.0610,-0.0610,1,464,899,0
17308386,1271,0.0039,0.0386,1.0190,-0.3052,-0.1221,-0.1831,1,464,897,0
17313396,1272,0.0034,0.0386,1.0190,-0.1831,-0.0610,-0.0610,1,464,897,0
17318384,1273,0.0020,0.0386,1.0195,-0.1831,-0.0610,-0.2441,1,464,900,0
17323388,1274,0.0010,0.0386,1.0200,-0.1831,0.0000,-0.0610,1,480,901,0
17328398,1275,0.0015,0.0386,1.0200,-0.1831,-0.1221,-0.1221,1,470,815,0
17333383,1276,0.0029,0.0391,1.0200,-0.2441,-0.0610,-0.1831,1,481,881,0
17338386,1277,0.0029,0.0386,1.0195,-0.1221,0.0000,-0.1831,1,493,895,0
17343384,1278,0.0029,0.0386,1.0195,-0.1221,0.0000,-0.1221,1,490,729,0
17348384,1279,0.0034,0.0381,1.0200,-0.1831,0.0000,-0.1221,1,476,801,0
17353389,1280,0.0034,0.0376,1.0210,-0.2441,-0.0610,-0.1831,1,481,774,0
17358384,1281,0.0034,0.0371,1.0215,-0.2441,0.0610,-0.1221,1,483,853,0
17363389,1282,0.0029,0.0371,1.0220,-0.3662,0.0610,-0.2441,1,485,852,0
17368384,1283,0.0029,0.0386,1.0225,-0.2441,-0.0610,-0.1221,1,498,875,0
17373384,1284,0.0024,0.0391,1.0215,-0.2441,-0.0610,-0.1221,1,475,868,0
17378382,1285,0.0029,0.0386,1.0210,-0.1221,0.0000,-0.1221,1,491,867,0
17383385,1286,0.0029,0.0386,1.0210,-0.2441,0.0000,0.0610,1,492,817,0
17388384,1287,0.0020,0.0381,1.0215,-0.1831,-0.1221,0.0000,1,464,822,0
17393383,1288,0.0015,0.0381,1.0210,-0.1831,-0.0610,-0.0610,1,464,821,0
17398386,1289,0.0020,0.0386,1.0215,-0.1221,0.0000,-0.0610,1,464,862,0
17403384,1290,0.0034,0.0381,1.0205,-0.2441,0.0000,0.0000,1,464,848,0
17408386,1291,0.0034,0.0381,1.0190,-0.3052,-0.0610,-0.1831,1,464,778,0
17413385,1292,0.0034,0.0381,1.0186,-0.3052,0.0000,-0.2441,1,463,868,0
17418403,1293,0.0039,0.0371,1.0186,-0.1831,0.0000,-0.0610,1,463,850,0
17423390,1294,0.0034,0.0376,1.0195,-0.0610,0.0000,-0.0610,1,463,826,0
17428381,1295,0.0029,0.0371,1.0200,-0.3052,0.0000,-0.1221,1,480,841,0
17433400,1296,0.0029,0.0366,1.0200,-0.1831,0.0610,-0.1221,1,479,816,0
17438381,1297,0.0039,0.0376,1.0210,-0.2441,-0.1221,-0.1831,1,482,857,0
17443385,1298,0.0034,0.0386,1.0220,-0.3052,-0.1221,-0.1831,1,493,897,0
17448389,1299,0.0024,0.0381,1.0215,-0.1831,-0.0610,-0.0610,1,487,884,0
17453387,1300,0.0020,0.0376,1.0200,-0.2441,-0.1221,-0.1221,1,493,772,0
17458382,1301,0.0024,0.0366,1.0190,-0.1221,0.0000,-0.1221,1,473,862,0
17463385,1302,0.0039,0.0371,1.0190,-0.1221,0.0000,-0.1221,1,503,804,0
17468387,1303,0.0044,0.0381,1.0200,-0.3052,-0.1221,-0.1831,1,504,802,0
17473381,1304,0.0044,0.0381,1.0205,-0.1221,-0.0610,-0.1221,1,492,871,0
17478382,1305,0.0044,0.0376,1.0200,-0.1221,-0.1221,-0.1831,1,486,829,0
17483385,1306,0.0034,0.0381,1.0200,-0.1831,-0.0610,-0.1831,1,488,866,0
17488386,1307,0.0029,0.0391,1.0205,-0.1831,0.0000,-0.1831,1,491,870,0
17493387,1308,0.0024,0.0391,1.0210,-0.2441,-0.0610,-0.0610,1,464,823,0
17498386,1309,0.0010,0.0386,1.0210,-0.3052,-0.1221,-0.1221,1,464,896,0
17503384,1310,0.0005,0.0381,1.0200,-0.3052,-0.0610,-0.2441,1,464,884,0
17508383,1311,0.0000,0.0386,1.0200,-0.2441,-0.0610,-0.1221,1,464,859,0
17513386,1312,0.0015,0.0391,1.0205,-0.1831,-0.0610,-0.1831,1,464,825,0
17518386,1313,0.0024,0.0386,1.0200,-0.2441,0.0610,-0.1221,1,463,869,0
17523386,1314,0.0024,0.0376,1.0205,-0.2441,0.0000,-0.1831,1,464,868,0
17528386,1315,0.0024,0.0366,1.0215,-0.2441,-0.1221,-0.3052,1,464,859,0
17533387,1316,0.0024,0.0381,1.0215,-0.2441,0.0000,-0.1221,1,463,870,0
17538385,1317,0.0029,0.0391,1.0210,-0.1831,0.0000,-0.1221,1,463,811,0
17543416,1318,0.0029,0.0381,1.0210,-0.3052,0.0000,-0.2441,1,481,816,0
17548384,1319,0.0029,0.0381,1.0215,-0.2441,0.0610,-0.1831,1,481,845,0
17553388,1320,0.0029,0.0386,1.0225,-0.2441,0.0000,-0.1831,1,470,929,0
17558384,1321,0.0029,0.0386,1.0220,-0.2441,-0.0610,-0.1831,1,468,713,0
17563383,1322,0.0024,0.0381,1.0200,-0.3052,0.0000,-0.1831,1,498,758,0
17568383,1323,0.0029,0.0386,1.0186,-0.2441,-0.0610,-0.1831,1,504,773,0
17573382,1324,0.0039,0.0391,1.0190,-0.2441,-0.0610,-0.0610,1,488,853,0
17578386,1325,0.0044,0.0391,1.0200,-0.1831,-0.0610,-0.1831,1,487,848,0
17583383,1326,0.0039,0.0381,1.0205,-0.2441,0.0000,-0.1831,1,508,850,0
17588386,1327,0.0039,0.0376,1.0195,-0.2441,-0.0610,-0.1221,1,473,799,0
17593384,1328,0.0034,0.0381,1.0186,-0.3052,0.0610,-0.0610,1,469,843,0
17598387,1329,0.0024,0.0381,1.0190,-0.3052,0.0000,-0.1221,1,491,862,0
17603385,1330,0.0020,0.0376,1.0200,-0.2441,0.0000,-0.1221,1,463,849,0
17608385,1331,0.0020,0.0381,1.0210,-0.1831,0.0000,0.0000,1,463,851,0
17613385,1332,0.0010,0.0381,1.0210,-0.1831,-0.0610,-0.1221,1,464,804,0
17618387,1333,0.0005,0.0381,1.0210,-0.1831,-0.1221,-0.1831,1,464,890,0
17623383,1334,0.0015,0.0386,1.0210,-0.1831,-0.0610,-0.1831,1,464,892,0
17628383,1335,0.0034,0.0386,1.0215,-0.2441,-0.0610,-0.1831,1,464,896,0
17633382,1336,0.0029,0.0376,1.0215,-0.2441,-0.0610,-0.1831,1,464,904,0
17638386,1337,0.0010,0.0376,1.0205,-0.1831,-0.1221,-0.1221,1,464,871,0
17643388,1338,0.0005,0.0376,1.0205,-0.2441,-0.0610,-0.2441,1,480,862,0
17648389,1339,0.0020,0.0376,1.0210,-0.3052,-0.0610,-0.3052,1,464,897,0
17653390,1340,0.0029,0.0381,1.0220,-0.1831,-0.1221,-0.1831,1,481,878,0
17658389,1341,0.0034,0.0391,1.0220,-0.1831,-0.0610,-0.1831,1,465,865,0
17663386,1342,0.0039,0.0391,1.0205,-0.2441,-0.0610,-0.1221,1,493,898,0
17668382,1343,0.0039,0.0381,1.0200,-0.1831,-0.0610,-0.1831,1,475,851,0
17673390,1344,0.0029,0.0381,1.0205,-0.2441,0.0000,-0.2441,1,481,756,0
17678384,1345,0.0024,0.0386,1.0210,-0.1831,-0.0610,-0.1221,1,493,778,0
17683388,1346,0.0024,0.0381,1.0215,-0.3052,0.0610,-0.1831,1,479,848,0
17688385,1347,0.0034,0.0371,1.0205,-0.3052,0.0000,-0.1221,1,494,817,0
17693382,1348,0.0029,0.0366,1.0200,-0.2441,-0.1221,-0.1221,1,508,831,0
17698386,1349,0.0024,0.0366,1.0205,-0.2441,0.0610,-0.0610,1,480,893,0
17703385,1350,0.0024,0.0376,1.0210,-0.3052,-0.0610,-0.0610,1,478,845,0
17708387,1351,0.0024,0.0381,1.0210,-0.2441,-0.0610,-0.1221,1,491,834,0
17713385,1352,0.0024,0.0386,1.0210,-0.3052,-0.0610,-0.0610,1,464,894,0
17718382,1353,0.0034,0.0381,1.0200,-0.2441,0.0610,-0.1221,1,464,893,0
17723382,1354,0.0039,0.0376,1.0195,-0.1221,0.0610,-0.1221,1,464,896,0
17728389,1355,0.0034,0.0376,1.0195,-0.1831,-0.0610,-0.1221,1,463,895,0
17733386,1356,0.0024,0.0376,1.0205,-0.3052,-0.1221,0.0000,1,464,902,0
17738385,1357,0.0024,0.0376,1.0210,-0.2441,0.0000,-0.0610,1,463,850,0
17743384,1358,0.0024,0.0376,1.0210,-0.0610,0.0000,-0.1221,1,464,821,0
17748400,1359,0.0024,0.0371,1.0215,-0.1831,-0.0610,-0.1831,1,464,847,0
17753382,1360,0.0034,0.0361,1.0220,-0.1831,-0.0610,-0.1221,1,464,877,0
17758385,1361,0.0034,0.0356,1.0225,-0.2441,-0.1221,-0.1831,1,480,900,0
17763385,1362,0.0034,0.0371,1.0210,-0.2441,-0.0610,-0.1221,1,465,894,0
17768387,1363,0.0034,0.0386,1.0195,-0.2441,0.0610,-0.0610,1,482,860,0
17773389,1364,0.0029,0.0391,1.0195,-0.2441,-0.1831,-0.1221,1,465,868,0
17778386,1365,0.0029,0.0386,1.0200,-0.2441,-0.1221,-0.1221,1,469,858,0
17783386,1366,0.0029,0.0386,1.0205,-0.1221,0.0000,-0.1831,1,496,853,0
17788384,1367,0.0024,0.0376,1.0215,-0.1221,-0.1221,-0.1221,1,497,787,0
17793387,1368,0.0034,0.0376,1.0220,-0.3052,-0.1221,-0.1221,1,500,844,0
17798382,1369,0.0029,0.0376,1.0220,-0.3052,0.0000,-0.2441,1,475,843,0
17803383,1370,0.0020,0.0376,1.0215,-0.2441,0.0610,-0.1831,1,494,830,0
17808389,1371,0.0020,0.0376,1.0205,-0.1831,0.0610,-0.1831,1,502,874,0
17813384,1372,0.0024,0.0376,1.0205,-0.1221,-0.0610,-0.1831,1,483,872,0
17818383,1373,0.0020,0.0391,1.0210,-0.1831,0.0610,-0.3052,1,486,872,0
17823385,1374,0.0020,0.0376,1.0210,-0.1831,-0.0610,-0.2441,1,491,862,0
17828385,1375,0.0020,0.0366,1.0200,-0.3052,-0.1221,-0.1221,1,464,869,0
17833387,1376,0.0024,0.0376,1.0200,-0.2441,-0.0610,-0.1221,1,464,861,0
17838388,1377,0.0029,0.0381,1.0210,-0.3052,-0.1221,-0.1221,1,463,870,0
17843385,1378,0.0024,0.0376,1.0215,-0.3052,0.0610,-0.1831,1,464,857,0
17848387,1379,0.0024,0.0376,1.0205,-0.3052,0.0000,-0.1831,1,464,898,0
17853390,1380,0.0024,0.0381,1.0195,-0.1831,0.0000,-0.1831,1,464,853,0
17858387,1381,0.0029,0.0381,1.0195,-0.1831,0.0610,-0.2441,1,463,829,0
17863384,1382,0.0034,0.0386,1.0200,-0.3052,0.1221,-0.1221,1,464,901,0
17868387,1383,0.0024,0.0386,1.0215,-0.2441,-0.0610,-0.1831,1,464,889,0
17873382,1384,0.0015,0.0391,1.0210,-0.1831,0.0000,-0.1221,1,481,873,0
17878394,1385,0.0020,0.0396,1.0200,-0.1221,0.0000,-0.1831,1,475,813,0
17883411,1386,0.0024,0.0391,1.0195,-0.1831,-0.0610,-0.1221,1,482,848,0
17888385,1387,0.0020,0.0381,1.0195,-0.0610,-0.0610,-0.0610,1,465,894,0
17893386,1388,0.0015,0.0376,1.0195,-0.1221,-0.0610,-0.1831,1,479,853,0
17898385,1389,0.0020,0.0381,1.0205,-0.1831,-0.0610,-0.1831,1,501,856,0
17903385,1390,0.0029,0.0391,1.0215,-0.1831,-0.0610,-0.1831,1,464,832,0
17908385,1391,0.0039,0.0391,1.0220,-0.4272,-0.0610,-0.2441,1,484,821,0
17913382,1392,0.0039,0.0376,1.0210,-0.2441,-0.0610,-0.1831,1,506,851,0
17918388,1393,0.0024,0.0371,1.0210,-0.1221,0.0000,-0.1831,1,494,853,0
17923385,1394,0.0020,0.0366,1.0210,-0.1831,0.0000,-0.1221,1,506,777,0
17928381,1395,0.0015,0.0366,1.0210,-0.3662,0.0610,-0.3052,1,477,823,0
17933387,1396,0.0020,0.0371,1.0205,-0.3662,0.0000,-0.2441,1,482,866,0
17938382,1397,0.0034,0.0361,1.0205,-0.1831,-0.0610,-0.1831,1,491,800,0
17943390,1398,0.0034,0.0356,1.0215,-0.3052,0.0610,-0.2441,1,464,876,0
17948385,1399,0.0024,0.0366,1.0205,-0.1831,0.0000,-0.0610,1,463,901,0
17953383,1400,0.0020,0.0371,1.0205,-0.3052,0.0000,-0.1221,1,464,857,0
17958389,1401,0.0024,0.0376,1.0210,-0.3052,0.0000,-0.1221,1,464,819,0
17963385,1402,0.0039,0.0376,1.0195,-0.1221,0.0610,-0.1221,1,464,846,0
17968384,1403,0.0039,0.0376,1.0181,-0.1831,0.0000,-0.1831,1,464,895,0
17973389,1404,0.0029,0.0376,1.0181,-0.2441,-0.1831,-0.0610,1,464,856,0
17978384,1405,0.0020,0.0371,1.0195,-0.1831,-0.0610,-0.0610,1,464,899,0
17983387,1406,0.0015,0.0371,1.0205,-0.2441,0.0000,-0.1221,1,481,899,0
17988388,1407,0.0005,0.0381,1.0210,-0.2441,0.0000,-0.1221,1,464,813,0
17993395,1408,0.0000,0.0386,1.0205,-0.1221,-0.1221,-0.2441,1,482,811,0
17998384,1409,0.0024,0.0391,1.0200,-0.1221,-0.0610,-0.1831,1,465,881,0
18003385,1410,0.0039,0.0396,1.0200,-0.2441,-0.0610,-0.0610,1,494,893,0
18008382,1411,0.0034,0.0386,1.0200,-0.3662,0.0000,-0.1831,1,469,858,0
18013387,1412,0.0029,0.0376,1.0200,-0.2441,-0.0610,-0.2441,1,494,742,0
18018386,1413,0.0024,0.0376,1.0205,-0.2441,-0.1221,-0.1831,1,490,777,0
18023381,1414,0.0024,0.0381,1.0200,-0.1831,-0.0610,-0.0610,1,492,826,0
18028387,1415,0.0034,0.0381,1.0190,-0.1831,-0.0610,-0.0610,1,499,848,0
18033390,1416,0.0039,0.0376,1.0195,-0.3052,-0.0610,-0.1831,1,505,821,0
18038385,1417,0.0039,0.0371,1.0220,-0.1221,-0.0610,-0.1221,1,489,822,0
18043387,1418,0.0024,0.0376,1.0229,-0.2441,-0.0610,-0.1831,1,478,838,0
18048388,1419,0.0020,0.0376,1.0210,-0.3052,-0.0610,-0.1221,1,491,879,0
18053389,1420,0.0024,0.0381,1.0200,-0.4272,0.0000,-0.1221,1,492,861,0
18058382,1421,0.0034,0.0381,1.0205,-0.1831,0.0000,-0.1831,1,464,852,0
18063387,1422,0.0039,0.0376,1.0210,-0.1221,0.0610,-0.1221,1,464,827,0
18068381,1423,0.0039,0.0386,1.0210,-0.2441,-0.0610,-0.0610,1,464,890,0
18073389,1424,0.0039,0.0386,1.0210,-0.2441,-0.1221,-0.1831,1,463,868,0
18078384,1425,0.0029,0.0376,1.0205,-0.3052,-0.0610,-0.2441,1,464,900,0
18083383,1426,0.0020,0.0371,1.0200,-0.2441,-0.0610,-0.1221,1,464,867,0
18088401,1427,0.0015,0.0376,1.0205,-0.1831,-0.1221,-0.1831,1,464,868,0
18093385,1428,0.0029,0.0376,1.0215,-0.2441,-0.0610,-0.0610,1,464,896,0
18098384,1429,0.0039,0.0371,1.0215,-0.2441,0.0000,-0.0610,1,480,868,0
18103381,1430,0.0039,0.0366,1.0200,-0.3662,0.0000,-0.1831,1,466,816,0
18108388,1431,0.0029,0.0366,1.0186,-0.1831,-0.1221,-0.1221,1,482,855,0
18113387,1432,0.0024,0.0376,1.0195,-0.0610,0.0610,-0.1221,1,465,866,0
18118384,1433,0.0029,0.0386,1.0210,-0.0610,0.0000,-0.1831,1,467,952,0
18123388,1434,0.0034,0.0386,1.0215,-0.1831,0.0000,-0.3052,1,471,746,0
18128388,1435,0.0044,0.0386,1.0210,-0.2441,0.0000,-0.1831,1,492,785,0
18133387,1436,0.0044,0.0386,1.0205,-0.1831,-0.0610,-0.1221,1,490,776,0
18138384,1437,0.0039,0.0386,1.0215,-0.1221,-0.1221,-0.0610,1,492,819,0
18143388,1438,0.0029,0.0391,1.0220,-0.1831,0.0000,-0.1221,1,493,844,0
18148388,1439,0.0020,0.0391,1.0215,-0.2441,0.0000,-0.1221,1,489,770,0
18153382,1440,0.0010,0.0386,1.0210,-0.1831,-0.1221,-0.1221,1,491,817,0
18158381,1441,0.0024,0.0376,1.0200,-0.2441,-0.0610,-0.1221,1,481,832,0
18163388,1442,0.0039,0.0376,1.0190,-0.3052,0.0000,-0.1831,1,491,840,0
18168389,1443,0.0034,0.0376,1.0190,-0.2441,-0.0610,-0.0610,1,464,851,0
18173381,1444,0.0020,0.0381,1.0205,-0.3052,0.0610,-0.2441,1,464,870,0
18178388,1445,0.0015,0.0391,1.0215,-0.2441,0.0610,-0.1221,1,464,894,0
18183382,1446,0.0024,0.0391,1.0215,-0.1831,-0.0610,-0.1221,1,464,862,0
18188382,1447,0.0024,0.0386,1.0195,-0.2441,-0.0610,-0.1221,1,464,897,0
18193387,1448,0.0015,0.0386,1.0176,-0.3052,0.0610,-0.1831,1,464,900,0
18198389,1449,0.0015,0.0386,1.0171,-0.3052,0.1831,-0.0610,1,463,862,0
18203383,1450,0.0020,0.0381,1.0186,-0.2441,-0.0610,-0.1221,1,464,860,0
18208386,1451,0.0034,0.0381,1.0200,-0.2441,-0.0610,-0.1831,1,480,863,0
18213381,1452,0.0044,0.0386,1.0220,-0.1831,0.0610,-0.1831,1,463,890,0
18218391,1453,0.0044,0.0381,1.0229,-0.2441,-0.1221,0.0000,1,482,859,0
18223383,1454,0.0044,0.0381,1.0225,-0.2441,0.0000,-0.1221,1,465,812,0
18228389,1455,0.0034,0.0381,1.0210,-0.1831,0.0610,-0.2441,1,492,836,0
18233388,1456,0.0034,0.0371,1.0200,-0.1831,0.1221,-0.1221,1,467,844,0
18238383,1457,0.0029,0.0371,1.0195,-0.1831,0.0610,-0.1831,1,509,863,0
18243385,1458,0.0034,0.0386,1.0200,-0.1831,0.0610,-0.1831,1,494,838,0
18248387,1459,0.0039,0.0391,1.0215,-0.1221,0.0000,-0.2441,1,472,853,0
18253384,1460,0.0029,0.0386,1.0220,-0.1221,0.0000,-0.1221,1,490,802,0
18258388,1461,0.0020,0.0381,1.0215,-0.1831,0.0610,-0.0610,1,493,769,0
18263388,1462,0.0020,0.0386,1.0205,-0.3052,-0.0610,-0.1221,1,477,837,0
18268381,1463,0.0024,0.0391,1.0205,-0.2441,0.0000,-0.1831,1,485,832,0
18273385,1464,0.0024,0.0381,1.0205,-0.1831,0.0000,-0.2441,1,491,799,0
18278390,1465,0.0029,0.0371,1.0205,-0.1221,0.0000,-0.1221,1,464,855,0
18283389,1466,0.0034,0.0371,1.0210,-0.1831,0.0000,-0.0610,1,463,850,0
18288385,1467,0.0044,0.0381,1.0215,-0.3052,0.0000,-0.1831,1,464,827,0
18293381,1468,0.0039,0.0400,1.0215,-0.1221,-0.0610,-0.1221,1,463,820,0
18298385,1469,0.0029,0.0400,1.0205,-0.1221,-0.0610,0.0000,1,464,890,0
18303382,1470,0.0024,0.0386,1.0205,-0.1831,-0.1221,-0.0610,1,463,821,0
18308392,1471,0.0029,0.0366,1.0220,-0.2441,-0.1221,-0.1221,1,464,897,0
18313385,1472,0.0034,0.0371,1.0220,-0.2441,-0.0610,-0.1221,1,464,869,0
18318386,1473,0.0044,0.0386,1.0215,-0.1831,-0.0610,-0.0610,1,481,870,0
18323385,1474,0.0044,0.0386,1.0210,-0.2441,0.0000,-0.1831,1,464,857,0
18328404,1475,0.0034,0.0386,1.0200,-0.3052,0.0000,-0.2441,1,482,849,0
18333385,1476,0.0024,0.0391,1.0220,-0.2441,0.0000,-0.2441,1,465,892,0
18338382,1477,0.0015,0.0386,1.0234,-0.2441,0.0610,-0.1221,1,494,843,0
18343381,1478,0.0010,0.0371,1.0225,-0.1221,0.0610,-0.1221,1,501,884,0
18348387,1479,0.0015,0.0376,1.0205,-0.2441,0.0610,-0.1221,1,481,793,0
18353381,1480,0.0029,0.0391,1.0195,-0.1831,-0.0610,-0.1221,1,481,827,0
18358383,1481,0.0029,0.0391,1.0205,-0.1831,0.0000,-0.1831,1,486,848,0
18363385,1482,0.0029,0.0381,1.0210,-0.2441,-0.0610,-0.1831,1,504,776,0
18368384,1483,0.0024,0.0376,1.0205,-0.3052,0.0000,-0.1831,1,473,886,0
18373381,1484,0.0024,0.0376,1.0200,-0.2441,-0.0610,-0.1831,1,478,824,0
18378388,1485,0.0029,0.0376,1.0195,-0.1831,-0.0610,-0.1831,1,484,874,0
18383385,1486,0.0020,0.0376,1.0176,-0.1831,-0.0610,-0.1831,1,492,875,0
18388387,1487,0.0010,0.0376,1.0181,-0.3662,0.0000,-0.1221,1,464,871,0
18393388,1488,0.0015,0.0386,1.0190,-0.3662,-0.0610,-0.2441,1,463,815,0
18398382,1489,0.0029,0.0386,1.0200,-0.1221,0.0000,-0.1221,1,464,899,0
18403388,1490,0.0034,0.0391,1.0215,-0.2441,0.0610,-0.1221,1,464,847,0
18408386,1491,0.0029,0.0386,1.0220,-0.2441,0.0000,-0.1221,1,464,866,0
18413387,1492,0.0024,0.0381,1.0215,-0.2441,0.0000,-0.3052,1,464,852,0
18418386,1493,0.0020,0.0376,1.0195,-0.3662,0.0610,-0.2441,1,464,821,0
18423384,1494,0.0020,0.0376,1.0186,-0.1221,-0.0610,-0.2441,1,463,902,0
18428388,1495,0.0024,0.0376,1.0190,-0.1221,0.0610,-0.1831,1,480,864,0
18433382,1496,0.0029,0.0371,1.0210,-0.1221,0.0000,-0.0610,1,464,888,0
18438398,1497,0.0024,0.0366,1.0220,-0.1831,0.0000,-0.1221,1,482,847,0
18443383,1498,0.0024,0.0371,1.0220,-0.2441,0.1221,-0.2441,1,465,887,0
18448385,1499,0.0034,0.0381,1.0210,-0.2441,0.0000,0.0000,1,505,901,0
18453382,1500,0.0039,0.0376,1.0190,-0.1831,0.0000,-0.1221,1,482,710,0
18458388,1501,0.0029,0.0371,1.0190,-0.1831,-0.1221,-0.2441,1,508,729,0
18463390,1502,0.0020,0.0381,1.0195,-0.1831,-0.0610,-0.1831,1,481,807,0
18468386,1503,0.0020,0.0391,1.0195,-0.1221,0.0000,-0.0610,1,483,854,0
18473386,1504,0.0029,0.0386,1.0205,-0.1831,0.0000,-0.0610,1,506,798,0
18478387,1505,0.0034,0.0376,1.0220,-0.2441,-0.0610,-0.1221,1,492,777,0
18483381,1506,0.0029,0.0386,1.0220,-0.3052,-0.0610,-0.1831,1,481,901,0
18488384,1507,0.0010,0.0396,1.0210,-0.1831,-0.1221,-0.1831,1,486,868,0
18493381,1508,0.0005,0.0396,1.0205,-0.2441,-0.1221,-0.1221,1,483,865,0
18498383,1509,0.0020,0.0391,1.0205,-0.3052,0.0000,-0.0610,1,491,834,0
18503384,1510,0.0034,0.0391,1.0195,-0.2441,-0.0610,-0.1221,1,463,815,0
18508385,1511,0.0039,0.0381,1.0190,-0.1831,0.0000,-0.0610,1,464,869,0
18513388,1512,0.0029,0.0371,1.0195,-0.2441,0.0610,-0.1221,1,464,853,0
18518382,1513,0.0020,0.0366,1.0205,-0.3052,-0.0610,-0.1221,1,464,872,0
18523388,1514,0.0024,0.0376,1.0215,-0.3052,0.0610,-0.0610,1,464,893,0
18528387,1515,0.0039,0.0376,1.0225,-0.3052,0.0000,-0.0610,1,464,894,0
18533383,1516,0.0044,0.0376,1.0215,-0.3052,-0.0610,-0.1221,1,463,818,0
18538383,1517,0.0034,0.0381,1.0195,-0.2441,0.0000,-0.1831,1,464,860,0
18543389,1518,0.0024,0.0386,1.0190,-0.3052,-0.0610,-0.2441,1,462,847,0
18548381,1519,0.0029,0.0391,1.0200,-0.1831,0.0000,-0.1221,1,472,889,0
18553397,1520,0.0024,0.0386,1.0205,-0.2441,0.0000,-0.1221,1,465,881,0
18558387,1521,0.0024,0.0371,1.0205,-0.1831,0.0610,-0.1831,1,467,908,0
18563384,1522,0.0015,0.0371,1.0205,-0.2441,0.0610,-0.1221,1,502,917,0
18568385,1523,0.0010,0.0371,1.0205,-0.2441,-0.0610,-0.1221,1,485,892,0
18573386,1524,0.0015,0.0376,1.0205,-0.1221,-0.1221,-0.1221,1,505,771,0
18578381,1525,0.0015,0.0376,1.0195,-0.3052,0.0000,-0.1831,1,504,868,0
18583383,1526,0.0024,0.0366,1.0200,-0.1831,0.0000,-0.1831,1,486,802,0
18588383,1527,0.0039,0.0361,1.0215,-0.1221,0.0000,-0.1831,1,500,813,0
18593385,1528,0.0044,0.0361,1.0205,-0.2441,-0.1221,-0.1831,1,474,807,0
18598382,1529,0.0024,0.0381,1.0205,-0.2441,0.0610,-0.2441,1,476,845,0
18603388,1530,0.0029,0.0391,1.0215,-0.2441,0.0000,-0.1831,1,483,874,0
18608389,1531,0.0029,0.0391,1.0215,-0.2441,0.0000,-0.1221,1,491,796,0
18613387,1532,0.0034,0.0391,1.0210,-0.2441,0.0000,-0.1221,1,463,849,0
18618385,1533,0.0029,0.0386,1.0200,-0.1221,-0.0610,-0.1221,1,464,849,0
18623388,1534,0.0024,0.0371,1.0190,-0.1831,0.0000,-0.1221,1,464,891,0
18628385,1535,0.0034,0.0371,1.0200,-0.3052,0.0610,-0.1221,1,464,856,0
18633381,1536,0.0039,0.0371,1.0210,-0.3052,-0.0610,-0.1221,1,464,865,0
18638387,1537,0.0034,0.0371,1.0205,-0.2441,-0.1221,-0.1221,1,464,865,0
18643390,1538,0.0024,0.0371,1.0186,-0.0610,-0.0610,-0.1221,1,464,871,0
18648383,1539,0.0024,0.0381,1.0186,-0.2441,0.0000,-0.1221,1,463,897,0
18653382,1540,0.0024,0.0386,1.0190,-0.3052,-0.0610,-0.1221,1,480,850,0
18658388,1541,0.0029,0.0386,1.0195,-0.1831,-0.0610,-0.0610,1,464,854,0
18663382,1542,0.0039,0.0391,1.0205,-0.2441,0.1221,-0.0610,1,482,889,0
18668381,1543,0.0049,0.0391,1.0210,-0.2441,0.0610,-0.1221,1,465,892,0
18673385,1544,0.0039,0.0381,1.0200,-0.1831,0.0000,-0.1831,1,507,900,0
18678387,1545,0.0020,0.0381,1.0200,-0.2441,-0.0610,-0.0610,1,466,730,0
18683388,1546,0.0024,0.0381,1.0210,-0.2441,-0.0610,-0.1831,1,506,890,0
18688382,1547,0.0034,0.0376,1.0220,-0.2441,-0.1831,-0.1831,1,487,784,0
18693382,1548,0.0039,0.0366,1.0225,-0.2441,0.0000,-0.1831,1,493,858,0
18698387,1549,0.0039,0.0376,1.0210,-0.2441,0.0000,-0.1831,1,489,783,0
18703385,1550,0.0039,0.0386,1.0195,-0.1221,-0.1221,-0.1831,1,502,828,0
18708385,1551,0.0039,0.0376,1.0186,-0.1221,0.0000,-0.1221,1,472,842,0
18713385,1552,0.0024,0.0376,1.0186,-0.1221,-0.0610,-0.1221,1,476,819,0
18718389,1553,0.0010,0.0376,1.0190,-0.2441,0.0610,-0.0610,1,491,864,0
18723384,1554,0.0010,0.0376,1.0200,-0.3052,0.0000,0.0000,1,491,864,0
18728385,1555,0.0015,0.0376,1.0215,-0.1831,0.0000,-0.1831,1,464,768,0
18733389,1556,0.0020,0.0376,1.0215,-0.1221,-0.0610,-0.1221,1,464,854,0
18738383,1557,0.0029,0.0381,1.0210,-0.1831,-0.0610,-0.1831,1,464,890,0
18743385,1558,0.0034,0.0386,1.0205,-0.1831,0.0610,-0.2441,1,464,898,0
18748390,1559,0.0029,0.0386,1.0205,-0.2441,-0.0610,-0.1831,1,464,873,0
18753388,1560,0.0034,0.0386,1.0200,-0.1831,0.0000,-0.1221,1,463,904,0
18758405,1561,0.0034,0.0381,1.0200,-0.3662,-0.0610,0.0000,1,464,821,0
18763389,1562,0.0015,0.0371,1.0205,-0.2441,0.0000,-0.2441,1,463,852,0
18768384,1563,0.0010,0.0371,1.0210,-0.2441,0.0000,-0.1831,1,481,817,0
18773381,1564,0.0020,0.0376,1.0215,-0.3052,-0.0610,-0.1221,1,470,746,0
18778410,1565,0.0024,0.0386,1.0225,-0.1221,0.0000,-0.1831,1,465,858,0
18783385,1566,0.0029,0.0391,1.0225,-0.1221,-0.0610,-0.1221,1,465,895,0
18788383,1567,0.0029,0.0386,1.0220,-0.2441,-0.0610,-0.3052,1,479,878,0
18793383,1568,0.0029,0.0376,1.0200,-0.3662,0.0000,-0.1831,1,484,883,0
18798382,1569,0.0029,0.0376,1.0186,-0.2441,-0.0610,-0.0610,1,508,722,0
18803388,1570,0.0024,0.0371,1.0195,-0.1221,-0.0610,-0.1221,1,489,859,0
18808382,1571,0.0024,0.0376,1.0215,-0.1831,-0.0610,-0.1831,1,483,852,0
18813385,1572,0.0024,0.0386,1.0229,-0.1831,-0.0610,-0.1831,1,491,826,0
18818387,1573,0.0034,0.0391,1.0225,-0.2441,0.0000,-0.2441,1,479,874,0
18823385,1574,0.0039,0.0381,1.0205,-0.2441,-0.0610,-0.1221,1,476,827,0
18828387,1575,0.0029,0.0371,1.0195,-0.1831,-0.0610,0.0000,1,488,838,0
18833385,1576,0.0020,0.0366,1.0200,-0.2441,0.0000,-0.1221,1,491,830,0
18838387,1577,0.0020,0.0366,1.0205,-0.2441,0.0000,-0.1831,1,464,852,0
18843387,1578,0.0024,0.0371,1.0210,-0.1831,-0.0610,-0.1221,1,464,860,0
18848389,1579,0.0029,0.0376,1.0210,-0.2441,0.0000,-0.0610,1,464,899,0
18853389,1580,0.0029,0.0381,1.0205,-0.3052,0.0610,-0.2441,1,464,823,0
18858387,1581,0.0024,0.0391,1.0205,-0.2441,0.0000,-0.1831,1,464,894,0
18863381,1582,0.0024,0.0386,1.0205,-0.3052,0.0000,-0.1221,1,464,826,0
18868389,1583,0.0029,0.0381,1.0215,-0.1221,0.0000,-0.1221,1,464,819,0
18873382,1584,0.0029,0.0376,1.0225,-0.2441,0.0000,-0.1831,1,463,844,0
18878385,1585,0.0015,0.0376,1.0215,-0.2441,0.0610,-0.3052,1,464,815,0
18883389,1586,0.0010,0.0381,1.0200,-0.1831,0.0000,-0.2441,1,481,882,0
18888410,1587,0.0000,0.0376,1.0195,-0.1831,0.0000,-0.1221,1,465,886,0
18893383,1588,0.0010,0.0371,1.0195,-0.1831,0.0610,-0.1221,1,469,780,0
18898387,1589,0.0024,0.0376,1.0200,-0.3052,0.1221,-0.1831,1,496,884,0
18903381,1590,0.0034,0.0376,1.0210,-0.3052,0.0000,-0.1831,1,495,885,0
18908384,1591,0.0044,0.0376,1.0215,-0.3052,-0.0610,0.0000,1,479,774,0
18913385,1592,0.0034,0.0376,1.0210,-0.3052,0.0000,-0.0610,1,479,799,0
18918388,1593,0.0015,0.0381,1.0195,-0.3662,0.0000,-0.1831,1,500,798,0
18923384,1594,0.0005,0.0391,1.0190,-0.2441,0.0610,-0.1831,1,498,776,0
18928385,1595,0.0010,0.0391,1.0195,-0.1831,0.0000,-0.0610,1,491,861,0
18933385,1596,0.0024,0.0381,1.0210,-0.1221,-0.1831,-0.1221,1,478,790,0
18938389,1597,0.0029,0.0371,1.0220,-0.2441,0.0000,-0.3662,1,481,865,0
18943386,1598,0.0039,0.0381,1.0210,-0.1831,-0.0610,-0.1831,1,491,801,0
18948386,1599,0.0034,0.0386,1.0205,-0.1831,0.0000,-0.1831,1,463,870,0
18953385,1600,0.0029,0.0386,1.0205,-0.1831,0.0610,-0.1221,1,464,858,0
18958385,1601,0.0029,0.0381,1.0200,-0.3052,-0.1221,-0.0610,1,464,896,0
18963385,1602,0.0029,0.0371,1.0195,-0.2441,-0.0610,-0.1221,1,464,859,0
18968388,1603,0.0020,0.0371,1.0190,-0.2441,-0.0610,-0.1831,1,464,871,0
18973387,1604,0.0010,0.0381,1.0181,-0.1831,-0.0610,-0.0610,1,464,904,0
18978390,1605,0.0015,0.0386,1.0186,-0.2441,-0.0610,-0.1221,1,464,888,0
18983384,1606,0.0015,0.0386,1.0200,-0.2441,0.0610,0.0000,1,480,863,0
18988383,1607,0.0015,0.0376,1.0205,-0.3052,-0.0610,-0.0610,1,464,839,0
18993384,1608,0.0024,0.0376,1.0215,-0.2441,-0.1831,-0.1221,1,482,850,0
18998389,1609,0.0039,0.0381,1.0220,-0.2441,0.0000,-0.1221,1,466,897,0
19003382,1610,0.0029,0.0391,1.0210,-0.1831,-0.0610,-0.1831,1,476,839,0
19008386,1611,0.0015,0.0396,1.0200,-0.3052,-0.0610,-0.1221,1,469,893,0
19013387,1612,0.0024,0.0386,1.0195,-0.3662,-0.0610,-0.2441,1,495,763,0
19018386,1613,0.0029,0.0381,1.0190,-0.1221,-0.1221,-0.0610,1,476,809,0
19023384,1614,0.0020,0.0376,1.0186,-0.1831,-0.1221,-0.1831,1,480,813,0
19028389,1615,0.0020,0.0381,1.0186,-0.2441,-0.1221,-0.1831,1,504,851,0
19033385,1616,0.0029,0.0381,1.0190,-0.3662,0.0610,-0.1221,1,474,864,0
19038381,1617,0.0034,0.0366,1.0195,-0.3052,0.0000,-0.1221,1,490,893,0
19043385,1618,0.0034,0.0366,1.0205,-0.1831,0.0000,-0.1221,1,476,796,0
19048388,1619,0.0029,0.0371,1.0220,-0.1831,-0.1221,-0.1221,1,491,799,0
19053388,1620,0.0020,0.0381,1.0220,-0.1221,-0.1221,-0.2441,1,464,868,0
19058382,1621,0.0015,0.0381,1.0195,-0.3052,0.0000,-0.1221,1,463,864,0
19063385,1622,0.0010,0.0371,1.0186,-0.3052,0.0000,-0.1221,1,464,816,0
19068389,1623,0.0010,0.0371,1.0195,-0.1831,-0.0610,-0.1221,1,463,845,0
19073386,1624,0.0024,0.0376,1.0200,-0.3052,0.0610,-0.1831,1,463,867,0
19078387,1625,0.0029,0.0376,1.0205,-0.2441,-0.0610,-0.2441,1,464,897,0
19083383,1626,0.0024,0.0376,1.0205,-0.1831,-0.0610,-0.1831,1,464,872,0
19088381,1627,0.0034,0.0381,1.0195,-0.2441,-0.0610,-0.1221,1,481,903,0
19093383,1628,0.0044,0.0381,1.0190,-0.2441,0.0000,-0.1831,1,464,887,0
19098385,1629,0.0044,0.0371,1.0200,-0.3052,-0.0610,-0.2441,1,482,823,0
19103386,1630,0.0024,0.0371,1.0210,-0.1831,0.0000,-0.1221,1,466,894,0
19108383,1631,0.0015,0.0376,1.0210,-0.1221,0.0000,-0.0610,1,478,814,0
19113388,1632,0.0010,0.0386,1.0210,-0.1831,-0.0610,-0.1831,1,470,747,0
19118388,1633,0.0015,0.0386,1.0210,-0.3052,0.0000,-0.1221,1,492,884,0
19123388,1634,0.0029,0.0381,1.0200,-0.1831,0.0000,-0.1831,1,476,764,0
19128382,1635,0.0029,0.0381,1.0186,-0.3052,-0.0610,-0.1831,1,477,775,0
19133387,1636,0.0015,0.0381,1.0186,-0.3052,0.0000,-0.2441,1,504,815,0
19138382,1637,0.0010,0.0376,1.0205,-0.1831,0.0000,-0.1831,1,476,787,0
19143382,1638,0.0020,0.0376,1.0225,-0.1831,0.0000,-0.1831,1,491,823,0
19148387,1639,0.0034,0.0376,1.0234,-0.3052,-0.0610,-0.1221,1,474,827,0
19153386,1640,0.0034,0.0371,1.0225,-0.1221,-0.1221,-0.1221,1,492,867,0
19158382,1641,0.0024,0.0371,1.0215,-0.1221,-0.0610,-0.1221,1,464,864,0
19163382,1642,0.0015,0.0371,1.0220,-0.2441,-0.0610,-0.1831,1,464,896,0
19168387,1643,0.0005,0.0361,1.0215,-0.2441,-0.0610,-0.1221,1,464,902,0
19173386,1644,0.0000,0.0356,1.0205,-0.1831,0.0000,-0.1221,1,464,895,0
19178386,1645,0.0020,0.0361,1.0200,-0.1831,0.0610,-0.1221,1,464,814,0
19183388,1646,0.0034,0.0366,1.0215,-0.3052,0.0000,-0.2441,1,464,897,0
19188383,1647,0.0034,0.0366,1.0220,-0.2441,-0.1221,-0.2441,1,463,825,0
19193382,1648,0.0029,0.0376,1.0220,-0.3052,0.0000,-0.1831,1,480,905,0
19198382,1649,0.0029,0.0376,1.0220,-0.2441,0.0000,-0.2441,1,464,812,0
19203384,1650,0.0029,0.0366,1.0210,-0.2441,0.0610,-0.1221,1,482,748,0
19208411,1651,0.0039,0.0356,1.0195,-0.2441,-0.0610,-0.1221,1,465,893,0
19213382,1652,0.0044,0.0371,1.0190,-0.2441,-0.0610,-0.1221,1,466,900,0
19218385,1653,0.0034,0.0396,1.0205,-0.1831,-0.0610,0.0000,1,474,860,0
19223387,1654,0.0020,0.0400,1.0215,-0.1221,-0.0610,-0.1221,1,496,746,0
19228382,1655,0.0015,0.0381,1.0215,-0.1831,-0.1221,-0.1831,1,498,783,0
19233389,1656,0.0024,0.0371,1.0215,-0.1221,-0.1221,-0.1221,1,482,848,0
19238389,1657,0.0034,0.0371,1.0210,-0.1221,0.0000,0.0000,1,496,845,0
19243382,1658,0.0034,0.0371,1.0210,-0.1221,0.0000,0.0000,1,504,729,0
19248387,1659,0.0034,0.0376,1.0205,-0.1221,-0.0610,-0.1221,1,479,775,0
19253383,1660,0.0029,0.0381,1.0200,-0.2441,0.0000,-0.3052,1,483,865,0
19258386,1661,0.0020,0.0376,1.0210,-0.2441,0.0610,-0.1831,1,482,791,0
19263386,1662,0.0010,0.0371,1.0215,-0.1831,-0.0610,-0.0610,1,491,869,0
19268384,1663,0.0010,0.0376,1.0210,-0.1831,0.0000,-0.1831,1,464,894,0
19273384,1664,0.0010,0.0386,1.0210,-0.3052,-0.0610,-0.2441,1,463,851,0
19278388,1665,0.0015,0.0381,1.0215,-0.1831,-0.0610,-0.1831,1,464,891,0
19283387,1666,0.0024,0.0366,1.0210,-0.1831,0.0610,-0.1831,1,464,868,0
19288385,1667,0.0029,0.0356,1.0215,-0.1831,0.0000,-0.2441,1,464,903,0
19293383,1668,0.0029,0.0361,1.0220,-0.1221,0.0000,-0.1221,1,463,830,0
19298400,1669,0.0029,0.0376,1.0220,-0.1831,-0.0610,-0.2441,1,464,848,0
19303387,1670,0.0034,0.0386,1.0210,-0.2441,0.0000,-0.1221,1,463,901,0
19308389,1671,0.0034,0.0381,1.0195,-0.2441,-0.0610,-0.1221,1,481,842,0
19313386,1672,0.0024,0.0386,1.0205,-0.2441,-0.1221,-0.1831,1,468,888,0
19318409,1673,0.0024,0.0386,1.0225,-0.2441,-0.0610,-0.1831,1,482,863,0
19323389,1674,0.0039,0.0391,1.0229,-0.1831,-0.0610,-0.0610,1,465,901,0
19328383,1675,0.0044,0.0391,1.0215,-0.1221,-0.0610,-0.1221,1,470,929,0
19333389,1676,0.0039,0.0386,1.0190,-0.2441,0.0610,-0.3052,1,481,846,0
19338389,1677,0.0034,0.0381,1.0186,-0.2441,0.0610,-0.0610,1,499,850,0
19343382,1678,0.0039,0.0376,1.0200,-0.1831,0.0000,-0.1221,1,478,830,0
19348385,1679,0.0039,0.0381,1.0205,-0.2441,-0.0610,-0.1221,1,486,803,0
19353381,1680,0.0034,0.0381,1.0205,-0.1831,0.0000,-0.1221,1,498,850,0
19358388,1681,0.0020,0.0386,1.0205,-0.3052,0.0610,-0.1831,1,483,831,0
19363383,1682,0.0015,0.0381,1.0205,-0.3662,0.0000,-0.3052,1,481,837,0
19368385,1683,0.0020,0.0376,1.0210,-0.2441,0.0000,-0.0610,1,489,818,0
19373384,1684,0.0029,0.0381,1.0205,-0.1831,-0.1221,-0.1831,1,492,821,0
19378386,1685,0.0034,0.0386,1.0200,-0.2441,-0.0610,-0.1831,1,464,871,0
19383381,1686,0.0029,0.0381,1.0210,-0.2441,-0.0610,-0.1221,1,464,873,0
19388387,1687,0.0029,0.0371,1.0215,-0.2441,-0.1221,-0.1221,1,464,865,0
19393389,1688,0.0024,0.0376,1.0215,-0.1831,0.0000,-0.1831,1,464,899,0
19398388,1689,0.0015,0.0376,1.0220,-0.1831,-0.0610,-0.1831,1,464,859,0
19403381,1690,0.0020,0.0381,1.0215,-0.1831,0.0000,-0.1221,1,464,870,0
19408394,1691,0.0005,0.0391,1.0205,-0.2441,0.0000,-0.1831,1,464,817,0
19413384,1692,0.0005,0.0376,1.0205,-0.1831,0.0610,-0.1831,1,464,849,0
19418384,1693,0.0015,0.0376,1.0200,-0.2441,0.0000,-0.1221,1,481,895,0
19423388,1694,0.0024,0.0381,1.0200,-0.2441,0.0000,-0.1221,1,464,740,0
19428385,1695,0.0039,0.0381,1.0200,-0.1831,0.0000,-0.1221,1,482,819,0
19433412,1696,0.0044,0.0381,1.0200,-0.1831,0.0610,-0.1831,1,466,809,0
19438385,1697,0.0039,0.0381,1.0195,-0.2441,-0.1221,-0.0610,1,482,895,0
19443385,1698,0.0024,0.0376,1.0200,-0.3052,0.0610,-0.1831,1,466,893,0
19448383,1699,0.0020,0.0371,1.0200,-0.1831,0.0000,-0.1831,1,508,885,0
19453382,1700,0.0029,0.0366,1.0190,-0.1831,-0.0610,-0.0610,1,469,780,0
19458387,1701,0.0034,0.0371,1.0190,-0.2441,-0.0610,-0.1221,1,492,864,0
19463384,1702,0.0034,0.0381,1.0205,-0.3052,-0.0610,-0.2441,1,485,853,0
19468382,1703,0.0029,0.0381,1.0210,-0.1221,0.0610,-0.1831,1,509,848,0
19473381,1704,0.0034,0.0376,1.0210,-0.1221,-0.0610,-0.1221,1,479,834,0
19478389,1705,0.0039,0.0376,1.0205,-0.3052,-0.0610,-0.0610,1,488,835,0
19483389,1706,0.0029,0.0376,1.0205,-0.3052,0.0000,-0.1831,1,485,866,0
19488388,1707,0.0005,0.0376,1.0210,-0.1831,-0.1221,-0.1221,1,492,794,0
19493388,1708,-0.0010,0.0371,1.0210,-0.2441,0.0000,-0.1221,1,464,887,0
19498386,1709,0.0005,0.0371,1.0205,-0.3662,0.0000,-0.1221,1,464,848,0
19503384,1710,0.0029,0.0381,1.0200,-0.2441,-0.0610,-0.1221,1,464,820,0
19508382,1711,0.0034,0.0386,1.0205,-0.2441,-0.1221,-0.2441,1,464,894,0
19513389,1712,0.0039,0.0386,1.0210,-0.1221,-0.0610,-0.1221,1,464,903,0
19518392,1713,0.0039,0.0376,1.0210,-0.2441,0.0610,-0.1221,1,464,862,0
19523381,1714,0.0029,0.0376,1.0205,-0.3662,-0.0610,-0.1831,1,463,866,0
19528384,1715,0.0020,0.0381,1.0205,-0.3052,0.0000,-0.1221,1,481,872,0
19533385,1716,0.0024,0.0391,1.0205,-0.1831,-0.0610,-0.1221,1,464,812,0
19538383,1717,0.0029,0.0396,1.0215,-0.1831,-0.0610,-0.1221,1,482,856,0
19543384,1718,0.0029,0.0391,1.0210,-0.2441,-0.0610,-0.2441,1,476,893,0
19548382,1719,0.0020,0.0386,1.0195,-0.2441,-0.0610,-0.0610,1,500,929,0
19553384,1720,0.0015,0.0381,1.0200,-0.2441,-0.0610,0.0610,1,482,887,0
19558383,1721,0.0020,0.0376,1.0200,-0.1831,-0.1221,-0.1221,1,505,889,0
19563389,1722,0.0015,0.0371,1.0195,-0.1831,0.0000,-0.1221,1,465,827,0
19568387,1723,0.0015,0.0371,1.0205,-0.3052,0.0000,-0.1221,1,482,776,0
19573389,1724,0.0020,0.0371,1.0210,-0.2441,-0.1221,-0.1831,1,498,799,0
19578382,1725,0.0020,0.0376,1.0205,-0.1831,-0.0610,-0.1221,1,502,823,0
19583387,1726,0.0020,0.0386,1.0200,-0.2441,-0.1221,-0.1831,1,478,888,0
