t_us,seq,ax,ay,az,gx,gy,gz,t_imu_us,t_serial_us,missed
17582343,0,0.0000,0.0000,0.0000,0.0000,0.0000,0.0000,0,0,0
17587344,1,0.0000,0.0000,0.0000,0.0000,0.0000,0.0000,480,368,0
17592357,2,0.0000,0.0000,0.0000,0.0000,0.0000,0.0000,471,350,0
17597344,3,0.0000,0.0000,0.0000,0.0000,0.0000,0.0000,463,350,0
17602345,4,0.0000,0.0000,0.0000,0.0000,0.0000,0.0000,506,350,0
17607347,5,0.5918,0.4839,0.2515,0.0000,0.0000,0.0000,489,350,0
17612350,6,0.5840,0.4966,0.2544,0.0000,0.0000,0.0000,472,569,0
17617350,7,0.5728,0.5146,0.2520,0.0000,0.0000,0.0000,477,488,0
17622344,8,0.5615,0.5557,0.2432,0.0000,0.0000,0.0000,504,492,0
17627348,9,0.5615,0.5962,0.2319,-77.1484,-72.8149,60.1807,477,511,0
17632344,10,0.5669,0.6147,0.2285,-76.2939,-73.8525,59.6924,486,881,0
17637342,11,0.5698,0.6255,0.2397,-73.4253,-75.7446,58.8989,478,918,0
17642349,12,0.5659,0.6309,0.2754,-71.5332,-76.3550,58.4106,489,916,0
17647348,13,0.5640,0.6284,0.3223,-72.0215,-75.1953,59.5703,462,908,0
17652349,14,0.5684,0.6289,0.3594,-73.4253,-73.2422,62.3779,463,938,0
17657342,15,0.5728,0.6270,0.3706,-74.8291,-71.1670,65.6128,463,938,0
17662346,16,0.5737,0.6240,0.3867,-75.7446,-70.1294,68.0542,463,903,0
17667350,17,0.5918,0.6431,0.4165,-74.7070,-68.9087,67.9932,462,933,0
17672347,18,0.6250,0.6475,0.4434,-69.9463,-65.3687,65.1245,463,896,0
17677349,19,0.6558,0.6343,0.4580,-61.5845,-59.1431,60.9131,479,930,0
17682342,20,0.6777,0.6318,0.4468,-52.6123,-51.2695,57.3120,462,911,0
17687344,21,0.6704,0.6157,0.4346,-43.7622,-44.3115,53.9551,480,958,0
17692345,22,0.6333,0.6050,0.4248,-36.5601,-40.3442,50.3540,468,841,0
17697348,23,0.5918,0.6172,0.3940,-29.4189,-39.4897,47.4243,470,950,0
17702348,24,0.5630,0.6313,0.3594,-21.8506,-41.1987,44.5557,497,975,0
17707350,25,0.5425,0.6382,0.3345,-14.7095,-44.4946,41.6870,482,939,0
17712348,26,0.5215,0.6416,0.3276,-8.9722,-47.1191,39.3066,491,917,0
17717344,27,0.5049,0.6572,0.3213,-4.5166,-49.0723,37.1094,477,867,0
17722349,28,0.4917,0.6660,0.3105,-1.1597,-51.0254,34.7900,506,874,0
17727348,29,0.4722,0.6514,0.3013,1.3428,-53.5889,33.8135,476,889,0
17732344,30,0.4438,0.6172,0.2915,2.3193,-57.3730,35.7666,479,860,0
17737345,31,0.4062,0.6021,0.2871,2.0142,-62.4390,42.1753,470,875,0
17742350,32,0.3921,0.6128,0.2769,2.5635,-68.1763,50.6592,490,993,0
17747346,33,0.4043,0.6431,0.2275,4.8218,-73.1812,57.6782,463,887,0
17752350,34,0.3892,0.6694,0.1758,7.6904,-78.9795,62.1948,463,894,0
17757343,35,0.3794,0.7305,0.1675,10.2539,-85.4492,63.4155,463,929,0
17762348,36,0.3711,0.7798,0.2065,14.3433,-91.6138,62.8662,462,951,0
17767342,37,0.3633,0.8091,0.2681,19.7754,-96.6186,60.7300,463,949,0
17772348,38,0.3931,0.8428,0.3242,26.0620,-98.6328,57.9834,462,933,0
17777348,39,0.4424,0.8589,0.3887,31.1279,-97.4121,55.6030,462,919,0
17782342,40,0.4648,0.8579,0.4673,33.1421,-93.4448,52.5513,462,949,0
17787350,41,0.4917,0.8486,0.5356,33.0811,-87.2192,49.0723,480,946,0
17792365,42,0.5293,0.8252,0.5830,31.9214,-79.7119,47.1191,464,933,0
17797349,43,0.5430,0.7993,0.6265,29.0527,-73.0591,45.9595,470,913,0
17802343,44,0.5415,0.7817,0.6641,25.0854,-67.1387,44.5557,492,975,0
17807347,45,0.5381,0.7842,0.6636,20.2026,-61.3403,44.0674,480,934,0
17812345,46,0.5430,0.7861,0.6162,16.7236,-57.5561,43.6401,504,903,0
17817342,47,0.5298,0.7676,0.5562,15.5029,-57.3120,42.7856,488,857,0
17822343,48,0.4966,0.7598,0.5142,15.7471,-59.3872,42.6636,493,828,0
17827350,49,0.4697,0.7563,0.4814,18.0054,-61.9507,44.4336,485,890,0
17832350,50,0.4067,0.7280,0.4546,21.8506,-66.1621,48.2178,481,904,0
17837349,51,0.3486,0.6982,0.4346,26.6724,-72.2046,51.6357,489,913,0
17842350,52,0.3052,0.6816,0.4062,32.5928,-79.7119,54.9316,476,887,0
17847350,53,0.2690,0.6768,0.3682,39.0015,-87.9517,56.5186,490,935,0
17852347,54,0.2271,0.6558,0.3545,46.0205,-96.6797,56.3965,462,907,0
17857346,55,0.1899,0.6660,0.3701,50.9644,-105.6518,53.5889,463,944,0
17862343,56,0.1719,0.7080,0.3657,54.9927,-114.7461,47.6685,462,925,0
17867346,57,0.1826,0.7402,0.3481,60.6079,-122.1924,40.0391,462,922,0
17872361,58,0.2104,0.7935,0.3530,65.3076,-127.5024,33.2642,462,944,0
17877348,59,0.2134,0.8628,0.4111,68.9087,-130.6152,26.4893,463,914,0
17882347,60,0.2485,0.9219,0.4912,71.1060,-129.6387,19.2261,479,910,0
17887351,61,0.3066,0.9424,0.5269,73.4863,-125.1831,12.5122,474,901,0
17892343,62,0.3403,0.9302,0.5420,73.7305,-119.1406,7.0190,463,910,0
17897368,63,0.3511,0.9399,0.5908,69.5190,-112.4878,4.2725,475,922,0
17902343,64,0.3521,0.9346,0.6514,64.2090,-105.2246,3.9062,478,942,0
17907347,65,0.3525,0.9097,0.6899,58.1665,-97.5952,5.3711,465,884,0
17912344,66,0.3345,0.8877,0.6978,50.7202,-91.2476,9.0942,492,933,0
17917343,67,0.3174,0.8716,0.6934,43.6401,-85.9985,14.5264,476,825,0
17922350,68,0.3335,0.8628,0.6851,38.3301,-81.4209,21.2402,498,912,0
17927347,69,0.3130,0.8325,0.6743,34.8511,-78.1860,27.2827,500,855,0
17932347,70,0.2593,0.8027,0.6724,32.8369,-75.7446,30.8838,484,883,0
17937349,71,0.2363,0.7998,0.6680,33.1421,-74.7070,34.0576,475,907,0
17942342,72,0.2124,0.8164,0.6943,38.5742,-74.2798,37.2925,483,872,0
17947342,73,0.1694,0.8228,0.7559,57.8613,-68.3594,39.3066,490,908,0
17952344,74,0.1694,0.7939,0.6533,72.4487,-55.2978,41.8701,462,938,0
17957345,75,0.2124,0.7480,0.5566,79.2236,-48.0347,43.7622,462,956,0
17962346,76,0.1938,0.7603,0.5176,73.4253,-50.1709,41.2598,462,920,0
17967344,77,0.2666,0.8115,0.6245,78.0640,-52.9175,33.9966,462,908,0
17972356,78,0.2891,0.7817,0.6997,85.9375,-53.1006,27.8931,463,940,0
17977344,79,0.3418,0.7588,0.7188,83.0688,-50.5371,20.0195,463,915,0
17982347,80,0.4111,0.7861,0.8115,76.9653,-49.5605,15.6250,479,968,0
17987348,81,0.4438,0.7915,0.9302,78.3691,-44.4946,12.1460,466,951,0
17992349,82,0.4365,0.7612,0.9585,80.5664,-34.7900,9.7656,480,938,0
17997354,83,0.4399,0.7446,0.9185,73.7305,-27.0386,8.0566,480,898,0
18002350,84,0.4331,0.7549,0.9287,66.9556,-23.1934,6.3477,476,955,0
18007348,85,0.4053,0.7212,0.9126,59.6924,-18.2495,5.5542,491,916,0
18012344,86,0.3716,0.7119,0.8921,50.5981,-15.8081,6.6528,496,882,0
18017350,87,0.3608,0.7212,0.8354,42.3584,-15.3198,8.1177,465,810,0
18022346,88,0.3516,0.7183,0.7979,37.1094,-16.8457,10.0098,484,868,0
18027342,89,0.3218,0.7305,0.7808,35.8887,-19.2261,11.5967,475,870,0
18032342,90,0.2422,0.7563,0.7476,38.7573,-27.5879,9.2163,481,868,0
18037347,91,0.2241,0.7368,0.7617,40.2832,-32.3486,5.7983,490,901,0
18042343,92,0.2080,0.7358,0.7876,39.0625,-35.4614,2.1362,472,876,0
18047343,93,0.2041,0.7334,0.7974,35.4004,-36.5601,-0.4883,489,863,0
18052348,94,0.2041,0.7300,0.8013,30.7617,-36.9873,0.5493,462,878,0
18057346,95,0.2246,0.7383,0.8086,24.9634,-36.2549,3.9673,463,896,0
18062349,96,0.2393,0.7505,0.7920,18.6157,-34.9121,7.6294,462,894,0
18067346,97,0.2646,0.7720,0.7700,13.6719,-33.4473,10.3760,463,888,0
18072347,98,0.2783,0.7744,0.7622,10.5591,-32.2876,12.4512,462,911,0
18077347,99,0.2993,0.7739,0.7690,8.3008,-29.7852,12.5122,462,946,0
18082343,100,0.3125,0.7671,0.7871,6.9580,-26.3672,12.0850,462,934,0
18087346,101,0.3096,0.7437,0.8149,5.3101,-22.6440,11.1694,462,930,0
18092348,102,0.3169,0.7271,0.8374,2.5635,-18.3105,10.8032,480,930,0
18097349,103,0.3149,0.7158,0.8447,-0.6714,-13.9770,11.2915,463,836,0
18102372,104,0.3076,0.6997,0.8423,-3.4180,-9.9487,12.2681,478,909,0
18107343,105,0.2949,0.6929,0.8286,-5.8594,-6.1646,13.8550,478,956,0
18112348,106,0.2778,0.6753,0.8081,-7.3853,-3.5400,14.2822,472,906,0
18117346,107,0.2534,0.6401,0.7935,-8.9722,-2.1362,14.2822,493,842,0
18122350,108,0.2295,0.6289,0.7905,-11.0474,-1.7090,13.8550,478,799,0
18127346,109,0.2207,0.6343,0.7788,-12.1460,-0.9155,12.7563,490,881,0
18132347,110,0.2129,0.6401,0.7627,-11.9629,-0.8545,10.4980,480,862,0
18137349,111,0.2041,0.6528,0.7505,-11.5356,-1.7700,7.3242,486,901,0
18142350,112,0.1968,0.6753,0.7471,-10.6201,-3.2959,4.2725,474,861,0
18147342,113,0.2046,0.6890,0.7437,-9.0942,-4.3945,2.2583,483,852,0
18152350,114,0.2100,0.6982,0.7412,-7.6294,-4.8218,1.5259,490,843,0
18157347,115,0.2061,0.7100,0.7412,-6.8970,-5.0659,0.4883,463,868,0
18162346,116,0.2007,0.7207,0.7451,-7.0190,-5.3711,-1.7700,462,863,0
18167344,117,0.1973,0.7256,0.7490,-7.5073,-5.0659,-4.6387,462,862,0
18172349,118,0.2017,0.7329,0.7534,-8.6060,-3.9062,-7.4463,462,869,0
18177357,119,0.2119,0.7485,0.7656,-10.8643,-2.1973,-8.9111,462,900,0
18182342,120,0.2178,0.7524,0.7759,-13.9770,0.4883,-9.0332,463,893,0
18187346,121,0.2217,0.7432,0.7788,-17.6392,3.6621,-7.5073,462,886,0
18192345,122,0.2256,0.7383,0.7759,-21.4233,6.2256,-4.3945,480,872,0
18197344,123,0.2290,0.7344,0.7686,-24.4751,8.0566,-2.0142,464,834,0
18202371,124,0.2192,0.7202,0.7588,-26.7944,8.8501,-0.6104,479,921,0
18207342,125,0.2021,0.7197,0.7485,-28.9917,8.8501,-0.4272,479,956,0
18212345,126,0.2021,0.7256,0.7310,-30.3955,8.7280,-1.8311,473,912,0
18217344,127,0.1997,0.7314,0.7183,-30.7617,7.8125,-3.9673,500,900,0
18222343,128,0.1870,0.7354,0.7104,-30.0903,6.8970,-6.1035,485,816,0
18227350,129,0.1875,0.7334,0.7065,-29.2358,6.8970,-7.6904,500,846,0
18232350,130,0.2012,0.7246,0.7095,-28.3813,6.9580,-9.1553,490,869,0
18237347,131,0.1909,0.7183,0.7148,-28.0151,6.0425,-10.9253,470,885,0
18242346,132,0.1846,0.7236,0.7217,-28.3813,5.3711,-12.9395,487,900,0
18247344,133,0.1841,0.7354,0.7266,-29.0527,5.6763,-14.8315,474,876,0
18252347,134,0.1963,0.7520,0.7256,-29.8462,7.3242,-17.1509,489,903,0
18257348,135,0.2046,0.7505,0.7334,-31.0059,9.0942,-19.2261,463,892,0
18262342,136,0.2065,0.7441,0.7476,-33.0200,11.0474,-20.8740,463,884,0
18267343,137,0.2007,0.7446,0.7500,-36.1328,13.1836,-21.7285,462,938,0
18272344,138,0.1938,0.7588,0.7407,-39.1235,14.9536,-21.5454,463,910,0
18277344,139,0.1855,0.7671,0.7207,-41.0156,15.9912,-20.6909,462,954,0
18282347,140,0.1772,0.7842,0.6958,-42.1753,15.8691,-19.7144,479,950,0
18287347,141,0.1860,0.7886,0.6782,-42.4194,14.9536,-19.3481,462,918,0
18292350,142,0.1982,0.7803,0.6743,-42.1753,14.2212,-18.8599,480,922,0
18297356,143,0.2056,0.7646,0.6753,-41.9311,13.8550,-18.3716,464,905,0
18302376,144,0.2148,0.7578,0.6851,-41.9311,13.5498,-17.5171,478,914,0
18307343,145,0.2266,0.7515,0.6885,-42.3584,12.6343,-16.6016,464,977,0
18312344,146,0.2339,0.7520,0.6821,-42.6025,11.5967,-15.5640,480,939,0
18317344,147,0.2422,0.7520,0.6870,-42.6025,10.8032,-15.1367,506,912,0
18322344,148,0.2637,0.7544,0.6924,-42.6636,11.1694,-14.5874,490,858,0
18327345,149,0.2681,0.7583,0.6929,-41.7480,11.4136,-14.2212,502,840,0
18332343,150,0.2822,0.7549,0.6860,-40.3442,12.2070,-14.7095,472,892,0
18337348,151,0.2886,0.7417,0.6797,-39.4287,13.4277,-14.9536,477,922,0
18342345,152,0.2778,0.7349,0.6860,-39.1846,13.9160,-15.0146,485,892,0
18347346,153,0.2642,0.7310,0.6929,-39.2456,14.4043,-14.3433,473,916,0
18352349,154,0.2583,0.7266,0.6909,-39.1846,14.6484,-12.6953,490,884,0
18357343,155,0.2573,0.7231,0.6787,-39.6729,14.7705,-11.4746,462,949,0
18362343,156,0.2544,0.7280,0.6646,-39.8560,14.2212,-10.7422,463,954,0
18367348,157,0.2393,0.7378,0.6572,-39.3677,12.8784,-10.7422,462,942,0
18372346,158,0.2383,0.7363,0.6523,-38.5132,12.0850,-10.8032,463,917,0
18377362,159,0.2266,0.7275,0.6533,-38.2080,11.0474,-11.2915,462,917,0
18382343,160,0.2246,0.7266,0.6577,-38.5132,10.2539,-12.2681,462,917,0
18387344,161,0.2266,0.7490,0.6592,-39.6118,9.7656,-13.7329,462,947,0
18392346,162,0.2466,0.7656,0.6577,-41.0767,10.1318,-15.9302,480,903,0
18397351,163,0.2598,0.7690,0.6509,-43.0908,10.8032,-17.7612,464,940,0
18402357,164,0.2676,0.7744,0.6509,-46.6309,11.4746,-18.0054,468,910,0
18407344,165,0.2739,0.7881,0.6514,-50.4150,12.2070,-16.7847,465,976,0
18412351,166,0.2856,0.7891,0.6470,-53.5278,12.8174,-14.2212,506,901,0
18417349,167,0.2852,0.7881,0.6382,-56.2134,12.7563,-11.1084,486,912,0
18422346,168,0.2754,0.7812,0.6284,-58.7769,12.0850,-8.7891,474,825,0
18427343,169,0.2646,0.7700,0.6284,-60.9741,11.0474,-6.6528,503,846,0
18432349,170,0.2549,0.7520,0.6313,-62.8662,9.9487,-4.2114,486,877,0
18437342,171,0.2500,0.7412,0.6284,-64.5752,9.3994,-1.7700,482,887,0
18442342,172,0.2524,0.7344,0.6187,-65.3076,9.0332,0.5493,483,851,0
18447349,173,0.2583,0.7251,0.6079,-64.7583,8.3618,2.3804,469,853,0
18452348,174,0.2578,0.7202,0.5898,-62.5610,7.5073,3.0518,489,853,0
18457349,175,0.2544,0.7148,0.5654,-59.0210,6.1035,2.3193,463,919,0
18462349,176,0.2568,0.7222,0.5630,-55.6641,4.4556,0.7935,463,918,0
18467350,177,0.2607,0.7261,0.5771,-53.2227,3.9673,-1.0986,463,910,0
18472345,178,0.2549,0.7300,0.5859,-52.4292,4.3945,-2.5635,462,886,0
18477363,179,0.2544,0.7378,0.5874,-53.5889,5.3711,-3.3569,462,891,0
18482343,180,0.2642,0.7417,0.5859,-55.7861,6.4697,-3.0518,462,889,0
18487343,181,0.2759,0.7432,0.5850,-58.3496,7.9346,-1.6479,462,918,0
18492349,182,0.2847,0.7412,0.5815,-60.6079,9.3994,0.9155,480,907,0
18497342,183,0.3013,0.7383,0.5825,-61.7065,10.7422,4.1504,464,911,0
18502349,184,0.3091,0.7241,0.5859,-62.6221,12.2070,6.7139,472,925,0
18507342,185,0.2993,0.7173,0.5859,-64.1479,13.1836,8.3008,471,977,0
18512347,186,0.2812,0.7227,0.5762,-65.6738,12.6953,8.6060,506,917,0
18517343,187,0.2593,0.7290,0.5557,-66.2842,10.6201,7.6904,488,954,0
18522345,188,0.2427,0.7319,0.5459,-66.8335,8.0566,6.1646,474,821,0
18527349,189,0.2393,0.7388,0.5522,-67.6880,6.6528,5.6763,491,834,0
18532349,190,0.2490,0.7329,0.5503,-67.3828,7.2632,6.7139,502,836,0
18537342,191,0.2544,0.7246,0.5312,-67.5659,8.4229,8.9722,487,881,0
18542344,192,0.2510,0.7275,0.5254,-68.3594,8.0566,11.8408,481,906,0
18547345,193,0.2612,0.7319,0.5303,-67.9932,7.4463,14.1602,486,867,0
18552349,194,0.2739,0.7397,0.5215,-66.5283,7.4463,15.4419,488,896,0
18557343,195,0.2725,0.7490,0.5103,-65.2466,7.3242,15.6250,463,874,0
18562350,196,0.2627,0.7676,0.5059,-64.8804,6.4697,14.2212,462,925,0
18567343,197,0.2490,0.7954,0.4927,-64.5752,5.2490,11.5356,462,893,0
18572347,198,0.2441,0.8130,0.4868,-63.8428,4.0283,8.6060,463,931,0
18577349,199,0.2485,0.8052,0.4941,-62.4390,3.9062,6.3477,463,919,0
18582347,200,0.2666,0.7812,0.5195,-61.5234,5.7373,6.1035,462,916,0
18587345,201,0.2827,0.7754,0.5405,-62.6831,9.5825,7.9956,479,954,0
18592350,202,0.2905,0.7861,0.5361,-64.6362,13.9160,10.4370,462,924,0
18597345,203,0.2881,0.7998,0.5142,-65.5518,17.0898,12.5122,480,951,0
18602342,204,0.2759,0.7998,0.4878,-65.4907,18.5547,14.3433,470,899,0
18607377,205,0.2559,0.7915,0.4717,-64.3311,19.4702,16.1743,478,947,0
18612343,206,0.2373,0.7944,0.4570,-62.5000,20.7520,17.7002,472,977,0
18617350,207,0.2324,0.8008,0.4478,-60.3638,21.6064,18.7378,468,902,0
18622347,208,0.2358,0.8037,0.4429,-57.8613,21.9727,19.7754,491,860,0
18627347,209,0.2412,0.8047,0.4409,-55.7251,22.2778,20.9961,478,822,0
18632347,210,0.2476,0.8062,0.4346,-53.5278,22.2778,21.9116,506,813,0
18637348,211,0.2559,0.8066,0.4277,-52.0630,21.7285,22.4609,472,923,0
18642349,212,0.2588,0.8267,0.4224,-52.4292,21.1792,23.3154,483,894,0
18647350,213,0.2637,0.8394,0.4146,-53.2227,21.3623,23.9868,473,940,0
18652349,214,0.2764,0.8364,0.4131,-54.0771,22.4609,25.3906,484,894,0
18657343,215,0.3623,0.8301,0.4150,-55.4810,24.2920,28.3203,462,922,0
18662350,216,0.2407,0.7666,0.4507,-60.7910,20.6909,29.6020,462,916,0
18667350,217,0.1978,0.9141,0.4668,-65.9180,15.9912,27.4048,463,917,0
18672342,218,0.3481,0.9897,0.2739,-51.5747,42.6025,55.4199,462,911,0
18677356,219,0.3618,0.9307,0.2349,-51.3916,68.2373,72.6929,462,961,0
18682348,220,0.2905,0.9795,0.4482,-56.0913,60.7910,68.2983,463,937,0
18687348,221,0.2471,0.9321,0.5454,-47.8516,43.3350,66.8945,479,947,0
18692349,222,0.2388,0.8486,0.4590,-48.5229,30.9448,62.6831,472,919,0
18697350,223,0.2568,0.8584,0.3813,-59.8755,23.4985,55.2368,463,919,0
18702349,224,0.2876,0.8931,0.3491,-68.2983,19.1650,52.6123,472,852,0
18707351,225,0.2910,0.9048,0.3643,-72.6318,11.2305,53.1616,478,978,0
18712346,226,0.2661,0.9253,0.3848,-74.7681,0.1221,53.0395,490,932,0
18717345,227,0.2529,0.9336,0.3613,-73.9746,-3.9062,54.9316,481,918,0
18722343,228,0.2378,0.9321,0.3281,-73.6084,-3.7842,56.5796,464,784,0
18727345,229,0.2168,0.9277,0.3149,-73.3032,-2.4414,57.6782,488,879,0
18732342,230,0.1953,0.9243,0.2954,-72.5708,0.1831,58.1055,484,906,0
18737348,231,0.1758,0.9419,0.2617,-71.5942,1.1597,56.5186,479,903,0
18742342,232,0.1753,0.9819,0.2295,-69.5190,-0.2441,52.8564,480,918,0
18747343,233,0.1973,1.0142,0.2070,-66.4673,-2.1362,47.9126,471,873,0
18752350,234,0.2065,1.0366,0.1992,-64.3311,-3.4180,43.8843,490,896,0
18757348,235,0.1987,1.0518,0.2095,-62.8052,-3.2959,42.6636,462,898,0
18762348,236,0.1836,1.0742,0.2144,-60.3638,-2.4414,43.9453,462,900,0
18767345,237,0.1768,1.0986,0.2114,-56.4575,-1.9531,45.5933,462,907,0
18772358,238,0.1846,1.1187,0.2036,-51.8799,-1.8311,46.5088,463,940,0
18777349,239,0.1895,1.1274,0.2002,-46.5698,-3.1738,46.3257,462,927,0
18782344,240,0.1973,1.1338,0.2119,-40.8936,-5.4932,45.3491,479,905,0
18787350,241,0.2100,1.1318,0.2324,-35.4614,-7.0801,44.2505,479,935,0
18792345,242,0.2114,1.1274,0.2534,-31.1279,-7.2632,42.9077,463,811,0
18797347,243,0.2070,1.1318,0.2734,-28.0151,-6.8970,41.9311,480,912,0
18802348,244,0.2007,1.1274,0.2900,-24.5972,-6.4697,41.3208,463,974,0
18807350,245,0.1909,1.1128,0.3115,-21.3623,-5.8594,39.9780,475,890,0
18812344,246,0.1772,1.1304,0.3228,-19.5312,-5.0049,37.6587,482,921,0
18817342,247,0.1582,1.1680,0.3179,-16.8457,-3.7842,34.6069,472,846,0
18822342,248,0.1470,1.1807,0.3149,-11.3525,-3.1738,31.4331,491,848,0
18827347,249,0.1636,1.1782,0.3179,-3.9062,-1.3428,27.1606,487,911,0
18832343,250,0.1685,1.2109,0.3237,1.2207,2.0142,22.3389,474,888,0
18837343,251,0.1582,1.2178,0.3506,8.5449,5.8594,17.9443,488,855,0
18842343,252,0.1279,1.2012,0.3755,17.1509,8.9722,14.1602,490,853,0
18847343,253,0.1211,1.2100,0.3628,23.8037,11.4136,10.7422,490,890,0
18852350,254,0.1392,1.2261,0.3076,29.4800,11.6577,6.6528,462,943,0
18857349,255,0.1328,1.1973,0.2451,37.8418,10.9253,0.9155,462,936,0
18862346,256,0.1323,1.1846,0.2324,48.0347,7.8125,-6.0425,463,897,0
18867343,257,0.1675,1.1938,0.2461,60.0586,3.6011,-18.0054,463,887,0
18872347,258,0.1914,1.1992,0.2051,60.1196,3.9673,-31.1890,462,913,0
18877342,259,0.1743,1.2173,0.1636,62.0728,6.7749,-39.6118,479,933,0
18882350,260,0.1963,1.2539,0.1504,54.4434,8.7891,-45.0439,468,930,0
18887350,261,0.1562,1.2769,0.1621,49.3164,15.1367,-48.3398,480,892,0
18892355,262,0.1113,1.2783,0.1602,49.3774,26.5503,-51.3916,480,952,0
18897346,263,0.1108,1.2871,0.1636,49.4385,35.3394,-54.4434,463,964,0
18902348,264,0.1221,1.2896,0.1729,50.8423,37.7197,-56.3965,503,999,0
18907347,265,0.1138,1.2744,0.1660,54.4434,37.8418,-55.9692,489,938,0
18912346,266,0.1074,1.2666,0.1450,56.7627,36.4380,-53.2227,500,945,0
18917343,267,0.1064,1.2578,0.1191,59.7534,34.3018,-50.4761,501,824,0
18922343,268,0.0952,1.2080,0.1035,64.3921,32.1045,-50.1099,481,885,0
18927347,269,0.0928,1.1567,0.0781,68.6035,29.7852,-51.8799,472,899,0
18932349,270,0.0923,1.1245,0.0488,73.9136,26.4282,-55.9692,483,913,0
18937348,271,0.1045,1.1094,0.0078,82.9468,20.9351,-63.4766,490,889,0
18942347,272,0.1123,1.0933,-0.0444,96.0693,12.8174,-73.5474,488,908,0
18947343,273,0.1191,1.0718,-0.1089,112.7930,2.3193,-84.5337,462,913,0
18952344,274,0.1147,1.0576,-0.1743,132.8125,-10.0708,-96.5576,462,910,0
18957350,275,0.1162,1.0552,-0.2202,155.6396,-24.2920,-109.5581,462,952,0
18962345,276,0.1279,1.0601,-0.2368,180.9692,-39.5508,-123.4741,462,923,0
18967344,277,0.1216,1.0610,-0.2236,207.2754,-57.1899,-137.9395,462,926,0
18972343,278,0.1123,1.0586,-0.1689,230.5908,-75.3784,-151.8555,463,927,0
18977346,279,0.1436,1.0693,-0.1094,248.4741,-87.9517,-165.1611,462,921,0
18982345,280,0.1631,1.0986,0.0229,273.6816,-105.1636,-187.1948,480,964,0
18987350,281,0.1650,1.1167,0.0796,281.7993,-111.5723,-195.3125,465,922,0
18992343,282,0.2002,1.1147,0.1265,288.6963,-116.5771,-201.5381,463,957,0
18997345,283,0.2393,1.0747,0.1694,294.6777,-120.7275,-205.5054,472,967,0
19002343,284,0.2397,1.0317,0.2227,296.3257,-125.3052,-207.5806,480,927,0
19007343,285,0.2261,1.0142,0.2734,294.0063,-130.4321,-209.1064,493,953,0
19012348,286,0.2100,0.9771,0.2974,292.5415,-135.1929,-210.1440,473,823,0
19017350,287,0.1958,0.9609,0.2935,289.5508,-139.6484,-209.8389,489,823,0
19022348,288,0.1890,0.9390,0.2793,287.7808,-144.2261,-210.0220,483,891,0
19027345,289,0.1680,0.8799,0.2710,287.9639,-148.9258,-210.9985,476,905,0
19032342,290,0.1421,0.7930,0.2905,287.1094,-153.9917,-211.2427,469,941,0
19037347,291,0.1084,0.7124,0.3286,285.0342,-159.6069,-208.8623,480,887,0
19042349,292,0.1016,0.6313,0.3896,284.2407,-164.4897,-204.1626,489,920,0
19047343,293,0.1030,0.5415,0.4526,283.9355,-167.5415,-198.7305,463,958,0
19052350,294,0.1235,0.5127,0.5063,280.8838,-169.5556,-193.8476,463,962,0
19057349,295,0.1392,0.5273,0.5303,278.9917,-171.3257,-191.4062,462,963,0
19062342,296,0.1113,0.5371,0.5356,282.0435,-172.1191,-191.7114,462,958,0
19067346,297,0.1304,0.5127,0.5312,289.2456,-166.3208,-194.3359,463,938,0
19072342,298,0.2051,0.4688,0.5566,294.0674,-153.1372,-199.0356,479,988,0
19077348,299,0.2480,0.4399,0.6367,299.3164,-146.2402,-202.7588,462,979,0
19082348,300,0.2651,0.4248,0.7148,304.6875,-140.4419,-206.4819,480,956,0
19087349,301,0.2642,0.3945,0.7637,307.8613,-131.7749,-211.4868,466,916,0
19092343,302,0.2256,0.3682,0.7798,309.1431,-122.3755,-215.2710,473,956,0
19097342,303,0.2314,0.3457,0.7681,308.2886,-106.0791,-217.3462,490,1000,0
19102342,304,0.2324,0.3306,0.7925,308.5327,-98.6328,-221.2524,478,913,0
19107342,305,0.1978,0.3232,0.8228,311.4624,-97.9004,-224.7314,507,957,0
19112343,306,0.1738,0.2891,0.8218,312.3169,-91.7358,-226.7456,479,906,0
19117342,307,0.1685,0.2300,0.8179,310.7300,-84.7168,-229.6142,472,886,0
19122342,308,0.1523,0.1719,0.8149,308.7158,-79.5288,-234.4360,487,925,0
19127342,309,0.1187,0.1211,0.8062,306.2744,-73.6694,-241.5771,478,926,0
19132348,310,0.0952,0.0913,0.7915,301.6968,-68.4204,-249.6338,469,917,0
19137347,311,0.0972,0.0894,0.7617,295.7764,-63.6597,-255.9204,489,917,0
19142346,312,0.0928,0.0981,0.7246,291.5649,-60.3027,-258.7891,490,917,0
19147342,313,0.0732,0.0796,0.7134,288.9404,-60.5469,-258.4839,463,942,0
19152345,314,0.0688,0.0322,0.7222,284.3018,-64.3921,-255.4931,463,912,0
19157344,315,0.0737,-0.0405,0.7432,276.9775,-70.1294,-249.6948,462,946,0
19162363,316,0.0742,-0.0996,0.7646,267.0288,-77.2095,-241.2109,463,918,0
19167347,317,0.0615,-0.1216,0.7593,257.2632,-84.5337,-231.6894,462,920,0
19172346,318,0.0288,-0.1411,0.7119,251.6479,-90.6372,-222.7173,462,954,0
19177346,319,0.0137,-0.1968,0.6743,249.6338,-95.3979,-216.8579,480,964,0
19182344,320,0.0166,-0.2539,0.6777,248.2300,-99.8535,-215.6982,464,953,0
19187357,321,-0.0356,-0.2886,0.6768,248.8403,-103.8208,-217.5293,464,939,0
19192345,322,-0.0874,-0.3169,0.6646,249.9389,-101.5015,-219.0552,463,998,0
19197350,323,-0.1113,-0.3613,0.6699,249.8779,-100.6470,-219.8486,504,919,0
19202344,324,-0.1152,-0.4121,0.7134,249.2065,-104.4922,-217.2851,487,934,0
19207344,325,-0.0854,-0.4771,0.7803,247.8027,-108.5815,-209.6557,472,921,0
19212344,326,-0.0381,-0.5332,0.8257,244.6899,-109.1309,-197.3877,489,839,0
19217348,327,-0.0176,-0.5591,0.8540,240.3564,-108.8257,-183.3496,484,915,0
19222346,328,-0.0220,-0.5630,0.8647,238.0981,-110.5347,-172.3022,489,930,0
19227343,329,-0.0293,-0.5728,0.8599,238.6474,-113.4033,-165.2222,483,936,0
19232344,330,-0.0459,-0.5815,0.8730,238.4643,-115.1733,-160.0952,471,964,0
19237350,331,-0.0576,-0.5703,0.9185,237.5488,-114.0137,-155.8838,490,904,0
19242344,332,-0.0503,-0.5581,0.9570,238.8916,-109.2529,-152.8931,462,930,0
19247343,333,-0.0479,-0.5620,0.9717,240.1123,-103.0884,-150.7568,462,927,0
19252347,334,-0.0522,-0.5859,0.9648,239.4409,-97.5952,-148.4375,463,949,0
19257347,335,-0.0723,-0.5952,0.9604,235.5957,-92.7734,-145.2026,462,964,0
19262350,336,-0.1099,-0.5728,0.9619,230.0415,-88.5620,-141.2354,462,957,0
19267342,337,-0.1509,-0.4990,0.9595,225.0366,-84.9609,-137.4512,479,920,0
19272350,338,-0.1777,-0.4634,0.9639,224.2431,-81.0547,-137.3291,462,953,0
19277344,339,-0.1763,-0.4990,0.9648,226.0132,-74.8291,-138.8550,480,959,0
19282345,340,-0.1597,-0.5615,0.9590,226.2573,-66.2842,-137.5122,477,942,0
19287374,341,-0.1289,-0.6177,0.9385,222.2290,-57.0679,-133.1787,463,965,0
19292346,342,-0.1157,-0.6411,0.9229,215.3931,-49.0112,-128.2349,464,1000,0
19297343,343,-0.1387,-0.6558,0.9224,209.7168,-44.4946,-123.7183,478,947,0
19302346,344,-0.1826,-0.6782,0.9146,204.7729,-39.4287,-119.2017,491,948,0
19307345,345,-0.2031,-0.6890,0.8926,196.0449,-31.0059,-115.2954,491,910,0
19312345,346,-0.2100,-0.7109,0.8936,186.8896,-22.2778,-112.6099,472,832,0
19317350,347,-0.2124,-0.7339,0.9102,177.5513,-12.9395,-110.4736,477,904,0
19322343,348,-0.2095,-0.7627,0.9390,166.6260,-2.1973,-108.2764,485,903,0
19327342,349,-0.1958,-0.7778,0.9683,155.2734,10.3149,-104.9805,484,937,0
19332351,350,-0.1753,-0.7739,0.9648,148.3765,23.3154,-100.6470,489,926,0
19337350,351,-0.1719,-0.7778,0.9268,148.3154,34.0576,-96.8018,462,926,0
19342347,352,-0.1738,-0.7803,0.8828,152.8931,41.6260,-93.8110,462,942,0
19347342,353,-0.1763,-0.7974,0.8457,159.4849,46.9360,-90.9424,462,950,0
19352346,354,-0.1919,-0.8184,0.8188,163.8183,51.0864,-87.5244,462,950,0
19357350,355,-0.2041,-0.7896,0.7930,165.5273,54.0161,-83.0688,462,931,0
19362344,356,-0.1924,-0.7407,0.7495,169.0674,55.3589,-79.4067,479,959,0
19367345,357,-0.1650,-0.7271,0.7021,174.7436,54.5654,-77.6367,462,947,0
19372342,358,-0.1489,-0.7192,0.6558,179.5654,52.1240,-76.1719,480,952,0
19377347,359,-0.1567,-0.6875,0.6201,183.4106,48.5840,-74.4019,470,917,0
19382357,360,-0.1772,-0.6865,0.6167,188.7817,44.4336,-72.8149,470,949,0
19387344,361,-0.1841,-0.7222,0.6836,191.8335,41.8091,-71.0449,471,998,0
19392344,362,-0.1826,-0.7935,0.7515,190.1245,43.5791,-66.5894,492,936,0
19397342,363,-0.2021,-0.8643,0.7798,182.6782,46.7529,-58.2275,501,915,0
19402345,364,-0.2153,-0.8794,0.7734,171.6919,47.4853,-49.4995,479,824,0
19407347,365,-0.1978,-0.8745,0.7334,164.9780,45.6543,-42.5415,489,841,0
19412345,366,-0.1777,-0.8926,0.6807,164.6728,42.1753,-37.4146,481,912,0
19417348,367,-0.2217,-0.9253,0.6538,167.7856,37.9028,-33.3252,486,893,0
19422348,368,-0.2832,-0.9468,0.6406,174.0723,33.6914,-32.2876,476,918,0
19427345,369,-0.2773,-0.9668,0.6162,184.6313,31.8603,-36.2549,489,915,0
19432343,370,-0.2515,-0.9790,0.6060,194.6411,34.4238,-42.8467,490,925,0
19437349,371,-0.2231,-0.9644,0.6074,199.1577,42.6025,-48.9502,463,915,0
19442342,372,-0.2036,-0.9082,0.5889,202.0264,53.0395,-54.0161,463,956,0
19447347,373,-0.1802,-0.8530,0.5781,206.9092,59.9976,-59.8755,462,952,0
19452352,374,-0.1514,-0.8159,0.6016,211.7309,62.8662,-65.7349,463,951,0
19457348,375,-0.1348,-0.7778,0.6479,213.1348,64.1479,-69.4580,463,922,0
19462344,376,-0.1353,-0.7710,0.7007,209.7168,64.7583,-71.2280,479,952,0
19467347,377,-0.1255,-0.7891,0.7446,199.2798,65.3076,-70.6787,474,937,0
19472344,378,-0.1050,-0.8223,0.7646,180.9082,67.3828,-66.4062,463,905,0
19477361,379,-0.0957,-0.8657,0.7329,159.4238,70.1294,-59.0820,473,962,0
19482349,380,-0.1045,-0.9053,0.6714,139.1602,71.6553,-49.6826,465,977,0
19487343,381,-0.1274,-0.9141,0.6118,121.6431,71.8384,-38.6963,479,896,0
19492343,382,-0.1514,-0.9229,0.5244,109.6191,71.2891,-27.9541,478,931,0
19497346,383,-0.1650,-0.9468,0.4209,102.3559,69.0308,-18.0664,507,869,0
19502345,384,-0.1733,-0.9551,0.3428,99.0601,66.1621,-9.1553,501,821,0
19507349,385,-0.1909,-0.9858,0.3018,100.5249,63.7817,-2.3804,472,861,0
19512342,386,-0.2148,-1.0337,0.3008,101.8677,61.8286,3.4180,475,875,0
19517345,387,-0.2007,-1.0811,0.2979,101.9897,61.7065,10.1929,482,906,0
19522349,388,-0.1768,-1.1353,0.2637,108.5205,62.6831,18.2495,490,918,0
19527350,389,-0.1895,-1.1606,0.2427,120.9106,62.7441,24.9023,469,893,0
19532342,390,-0.2061,-1.1543,0.2290,136.1084,62.3169,27.8931,490,928,0
19537344,391,-0.2212,-1.1421,0.2065,150.7568,62.9272,28.3813,462,939,0
19542351,392,-0.2349,-1.1138,0.1890,161.2549,63.9038,28.3203,463,924,0
19547350,393,-0.2402,-1.0625,0.1938,167.1753,65.9790,28.4424,462,954,0
19552354,394,-0.2529,-1.0356,0.2202,171.0815,69.8853,28.5034,462,950,0
19557343,395,-0.2988,-1.0483,0.2710,170.1050,75.5615,27.5879,462,925,0
19562342,396,-0.3203,-1.0151,0.3193,159.6680,83.0078,24.6582,480,918,0
19567348,397,-0.2930,-0.9624,0.2944,146.9727,92.8345,19.4702,480,952,0
19572345,398,-0.2490,-0.9434,0.2129,136.4136,101.8677,14.8926,464,906,0
19577356,399,-0.2061,-0.9468,0.1484,126.2207,107.4219,14.1602,471,921,0
19582374,400,-0.1865,-0.9507,0.1157,117.1265,109.9853,17.5781,467,978,0
19587344,401,-0.1831,-0.9585,0.1035,110.7788,109.5581,23.1934,479,1001,0
19592350,402,-0.1724,-0.9683,0.0918,106.9336,106.2012,29.2358,475,958,0
19597343,403,-0.1562,-0.9849,0.0854,103.8818,101.6235,34.9121,501,947,0
19602343,404,-0.1455,-0.9878,0.0815,99.4873,96.8628,40.5273,502,935,0
19607350,405,-0.1328,-0.9902,0.0771,93.9331,92.5293,45.7153,474,890,0
19612350,406,-0.1094,-1.0146,0.0835,88.3179,89.0503,50.2319,481,922,0
19617351,407,-0.0933,-1.0356,0.0991,83.6792,87.7685,53.1616,481,914,0
19622350,408,-0.0801,-1.0435,0.1206,81.2988,89.1113,54.2603,489,923,0
19627350,409,-0.0669,-1.0625,0.1479,82.1533,92.0410,54.0771,476,885,0
19632346,410,-0.0693,-1.0815,0.1699,83.8013,97.3511,54.8096,490,923,0
19637345,411,-0.0825,-1.0801,0.1572,82.6416,104.2480,57.0068,463,943,0
19642349,412,-0.0913,-1.0669,0.1318,78.5522,110.0464,60.6079,462,949,0
19647349,413,-0.0786,-1.0410,0.1118,73.3032,113.2812,64.7583,462,946,0
19652343,414,-0.0654,-1.0454,0.0977,69.0308,114.3799,68.1152,462,921,0
19657345,415,-0.0908,-1.0781,0.1118,63.6597,112.7930,70.6177,462,939,0
19662345,416,-0.1479,-1.1289,0.1631,57.0679,109.1919,70.4956,462,919,0
19667347,417,-0.1626,-1.1616,0.1963,48.5840,106.4453,68.6035,480,920,0
19672343,418,-0.1235,-1.1514,0.1484,38.3301,106.0181,68.6646,464,912,0
19677359,419,-0.1074,-1.1372,0.0645,29.0527,104.9194,70.3125,480,935,0
19682343,420,-0.1104,-1.0986,0.0181,20.7520,103.6377,71.8994,472,975,0
19687349,421,-0.0972,-1.0557,-0.0322,17.8833,101.3184,72.7539,467,930,0
19692348,422,-0.0767,-1.0488,-0.1128,22.5220,96.4966,71.5942,471,864,0
19697351,423,-0.0635,-1.0410,-0.1772,31.6162,88.8061,67.9321,500,866,0
19702346,424,-0.0513,-1.0190,-0.1875,43.3350,80.7495,62.8052,484,806,0
19707342,425,-0.0405,-1.0234,-0.1616,57.8613,75.6836,57.5561,483,908,0
19712345,426,-0.0400,-1.0273,-0.1260,68.4204,73.5474,54.0771,474,922,0
19717344,427,-0.0356,-1.0210,-0.0903,71.6553,73.3032,52.3682,474,910,0
19722349,428,-0.0220,-1.0083,-0.0449,70.1294,74.2188,51.3916,486,904,0
19727349,429,-0.0044,-1.0059,-0.0151,65.5518,75.7446,49.8657,490,960,0
19732346,430,0.0059,-0.9912,-0.0117,56.8848,76.1108,49.7436,490,905,0
19737346,431,0.0059,-0.9775,-0.0190,45.9595,73.5474,51.3306,462,937,0
19742344,432,0.0112,-0.9580,-0.0396,35.5225,67.9932,53.2227,463,933,0
19747342,433,0.0156,-0.9272,-0.0674,27.1606,60.4248,53.4058,462,935,0
19752361,434,0.0103,-0.9019,-0.0688,22.0337,52.4902,51.3916,462,948,0
19757347,435,0.0098,-0.9287,-0.0537,18.3105,46.6309,48.7671,463,912,0
19762343,436,0.0156,-0.9805,-0.0532,12.2681,43.4570,47.2412,480,906,0
19767350,437,0.0103,-1.0220,-0.0469,4.9438,41.4429,46.9360,478,919,0
19772349,438,0.0020,-1.0605,-0.0581,4.0894,40.2222,47.0581,464,916,0
19777349,439,-0.0127,-1.0562,-0.1157,9.9487,38.7573,45.7153,470,921,0
19782366,440,-0.0225,-1.0298,-0.1665,21.9727,35.0342,41.3818,476,977,0
19787346,441,-0.0078,-1.0288,-0.1528,41.9311,28.3813,34.3628,467,931,0
19792347,442,0.0103,-1.0488,-0.1045,60.6689,20.2637,26.8555,472,948,0
19797345,443,0.0264,-1.0479,-0.0479,71.4722,13.4888,20.7520,497,865,0
19802348,444,0.0244,-1.0166,-0.0269,73.3032,9.5215,15.4419,484,811,0
19807349,445,0.0283,-0.9795,-0.0391,62.5610,17.8223,15.0757,474,893,0
19812345,446,0.0435,-0.9683,-0.0010,44.0063,34.4238,15.8081,484,905,0
19817348,447,0.0679,-1.0063,0.0967,26.8555,45.2270,15.2588,476,903,0
19822342,448,0.1055,-1.0571,0.1636,14.4043,45.4712,15.5640,477,913,0
19827347,449,0.1470,-1.0859,0.1558,2.0142,39.4287,20.3247,468,916,0
19832345,450,0.1650,-1.1196,0.1240,-9.0332,31.9214,27.5269,490,870,0
19837344,451,0.1494,-1.1245,0.1240,-18.2495,27.4658,34.4849,462,935,0
19842344,452,0.1094,-1.1230,0.1582,-22.5830,28.3813,39.9780,462,918,0
19847348,453,0.0698,-1.1113,0.1821,-21.0571,32.8369,41.7480,462,950,0
19852363,454,0.0679,-1.1079,0.1953,-14.0991,37.3535,40.9546,462,952,0
19857343,455,0.0913,-1.1431,0.1982,-4.6387,40.5273,39.9170,462,916,0
19862343,456,0.1104,-1.1948,0.1885,3.6011,42.6025,40.5273,462,927,0
19867343,457,0.1426,-1.2227,0.1636,10.9863,43.0298,44.7998,480,929,0
19872347,458,0.1836,-1.2236,0.1392,16.8457,41.7480,50.4761,464,912,0
19877345,459,0.2085,-1.1938,0.1611,20.2637,40.1001,56.8237,475,913,0
19882342,460,0.2085,-1.1475,0.2280,22.0947,42.2974,62.6221,464,996,0
19887348,461,0.2153,-1.0923,0.2954,20.9351,47.6074,66.2842,497,936,0
19892347,462,0.2310,-1.0684,0.3228,15.9912,52.5513,70.4956,478,866,0
19897343,463,0.2456,-1.0688,0.3066,4.0894,57.9834,77.9419,491,896,0
19902347,464,0.2432,-1.0854,0.2891,-15.5029,65.6738,89.1724,497,803,0
19907344,465,0.2329,-1.1162,0.2739,-39.4287,73.3643,102.2339,487,895,0
19912344,466,0.2251,-1.1572,0.2456,-62.9272,78.0640,116.0889,483,893,0
19917343,467,0.2007,-1.1899,0.1987,-83.4351,80.6885,129.9438,471,914,0
19922347,468,0.1558,-1.2080,0.1504,-99.3652,83.7402,142.6392,475,917,0
19927344,469,0.1025,-1.2168,0.1016,-108.8867,87.2192,153.1372,478,918,0
19932342,470,0.0713,-1.2227,0.0464,-111.2060,88.9282,160.8887,463,897,0
19937348,471,0.0586,-1.2212,-0.0010,-107.5439,88.2568,166.6870,463,923,0
19942346,472,0.0566,-1.2153,-0.0210,-99.7925,87.2192,171.2646,463,952,0
19947343,473,0.0581,-1.2290,-0.0215,-88.0737,87.0361,174.2554,462,961,0
19952343,474,0.0591,-1.2568,0.0137,-60.4858,85.4492,174.2554,462,927,0
19957350,475,0.0610,-1.2446,0.0083,-49.5605,83.9233,172.6684,479,954,0
19962345,476,0.0742,-1.2100,-0.0142,-39.8560,81.9092,171.6919,462,931,0
19967349,477,0.1001,-1.1675,-0.0278,-29.9072,79.5288,171.0815,480,932,0
19972350,478,0.1235,-1.1387,-0.0410,-17.5171,77.6367,169.3725,475,832,0
19977346,479,0.1484,-1.1304,-0.0273,-7.5684,76.4160,167.6025,463,977,0
19982347,480,0.1851,-1.1284,0.0430,-2.3804,78.3081,167.6025,472,893,0
19987348,481,0.2114,-1.1470,0.1094,-0.3052,84.6558,168.0908,465,917,0
19992348,482,0.2432,-1.1206,0.1289,-8.4839,94.9097,172.3633,490,883,0
19997344,483,0.2793,-1.0747,0.1343,-18.0054,106.9946,178.8940,480,822,0
20002347,484,0.2881,-1.0449,0.1431,-24.8413,117.1265,184.0820,483,828,0
20007345,485,0.2905,-1.0117,0.1318,-36.0718,124.3896,190.3686,489,939,0
20012344,486,0.3018,-0.9673,0.0981,-47.2412,129.5166,197.9980,481,930,0
20017349,487,0.3188,-0.9209,0.0522,-56.3354,131.4697,205.1391,473,926,0
20022345,488,0.3306,-0.8623,0.0039,-61.4014,129.6387,209.9609,471,956,0
20027344,489,0.3330,-0.8071,-0.0493,-61.5845,123.9014,211.1206,489,917,0
20032344,490,0.3350,-0.7583,-0.1143,-61.8286,116.0278,208.9844,462,926,0
20037343,491,0.3335,-0.7056,-0.1719,-63.9648,108.4595,204.1626,462,963,0
20042350,492,0.3442,-0.6548,-0.2046,-66.1011,102.6611,197.9370,463,925,0
20047364,493,0.3618,-0.6270,-0.2280,-63.7207,97.7173,189.8193,463,949,0
20052349,494,0.3833,-0.6343,-0.2373,-62.8052,93.2007,180.0537,462,958,0
20057350,495,0.4097,-0.6382,-0.2378,-66.2231,90.1489,172.3633,462,919,0
20062350,496,0.4355,-0.6440,-0.2354,-71.5942,88.3789,166.9922,480,919,0
20067346,497,0.4697,-0.6621,-0.2241,-75.8057,87.6465,161.6821,464,913,0
20072346,498,0.4980,-0.7031,-0.1934,-77.1484,87.1582,156.2500,464,955,0
20077344,499,0.5176,-0.7280,-0.1328,-73.7915,87.1582,151.2451,472,899,0
20082343,500,0.5347,-0.7461,-0.0913,-65.1855,85.5102,146.3013,506,938,0
20087345,501,0.5610,-0.7266,-0.0811,-57.8003,83.1299,142.3950,493,863,0
20092343,502,0.5894,-0.7080,-0.0620,-51.5747,80.8105,139.4653,498,893,0
20097345,503,0.6094,-0.7148,-0.0347,-46.4478,79.1016,137.6343,494,901,0
20102347,504,0.6128,-0.7295,0.0063,-41.3208,78.9185,135.8032,489,915,0
20107348,505,0.6157,-0.7510,0.0542,-34.9121,78.9185,132.2632,479,906,0
20112342,506,0.6250,-0.7627,0.0879,-29.9683,79.2236,129.0283,471,875,0
20117342,507,0.6470,-0.7344,0.1001,-29.6631,80.9936,127.5024,490,932,0
20122350,508,0.6768,-0.7012,0.1055,-30.5176,84.0454,127.9907,488,917,0
20127342,509,0.6987,-0.6904,0.1216,-31.4331,87.3413,129.8218,462,918,0
20132351,510,0.7158,-0.6870,0.1416,-35.0952,90.3320,133.8501,462,954,0
20137347,511,0.7261,-0.6792,0.1553,-42.2363,92.5293,139.9536,462,942,0
20142352,512,0.7373,-0.6753,0.1597,-51.3916,94.3603,147.1558,463,950,0
20147346,513,0.7427,-0.6704,0.1538,-63.3545,96.0083,156.4331,462,921,0
20152348,514,0.7539,-0.6475,0.1348,-76.7822,97.9614,167.1142,479,949,0
20157344,515,0.7563,-0.6201,0.0884,-88.7451,99.4263,176.5137,464,958,0
20162344,516,0.7207,-0.6211,0.0425,-97.4731,98.3276,184.3262,463,918,0
20167350,517,0.7144,-0.6318,0.0127,-103.6377,96.9849,191.4062,464,849,0
20172362,518,0.7197,-0.6313,-0.0054,-106.8726,97.5342,196.2280,463,967,0
20177346,519,0.7183,-0.6377,-0.0220,-106.2622,99.3652,196.1059,476,998,0
20182349,520,0.7114,-0.6533,-0.0396,-103.7598,103.1494,192.6880,496,925,0
20187350,521,0.7095,-0.6577,-0.0498,-101.9897,108.1543,187.9272,501,964,0
20192345,522,0.7178,-0.6509,-0.0298,-101.0132,113.7695,183.1055,506,889,0
20197342,523,0.7256,-0.6489,0.0166,-100.5249,120.1172,179.5654,502,832,0
20202350,524,0.7334,-0.6396,0.0635,-101.9287,128.1738,178.9551,478,943,0
20207346,525,0.7378,-0.6226,0.0903,-104.1870,137.2681,180.2368,481,899,0
20212346,526,0.7319,-0.5957,0.0825,-107.2998,145.9351,182.0068,478,925,0
20217344,527,0.7305,-0.5586,0.0591,-110.1684,153.1372,184.6313,488,898,0
20222348,528,0.7461,-0.5288,0.0322,-111.2060,158.5083,186.5234,486,898,0
20227342,529,0.7578,-0.5015,0.0073,-112.4268,162.1094,187.1948,463,930,0
20232349,530,0.7686,-0.4761,0.0010,-112.5488,164.2456,186.0962,463,961,0
20237346,531,0.7744,-0.4575,0.0215,-110.5957,166.3818,183.6548,463,952,0
20242358,532,0.7744,-0.4531,0.0449,-107.6660,169.9219,180.4199,463,938,0
20247342,533,0.7646,-0.4551,0.0562,-106.1401,174.7436,178.1616,462,938,0
20252350,534,0.7568,-0.4419,0.0400,-106.4453,180.1758,177.7344,479,936,0
20257345,535,0.7490,-0.4126,-0.0054,-106.8726,185.2417,178.8330,468,962,0
20262347,536,0.7378,-0.3872,-0.0581,-105.9570,188.4155,179.7485,463,947,0
20267342,537,0.7271,-0.3667,-0.1089,-104.7363,189.1479,181.5185,470,933,0
20272376,538,0.7202,-0.3477,-0.1558,-103.3325,187.6831,183.7158,463,998,0
20277346,539,0.7075,-0.3394,-0.2090,-101.2573,184.0210,184.3262,478,1000,0
20282342,540,0.6963,-0.3408,-0.2544,-100.3418,178.4057,183.8989,475,958,0
20287346,541,0.6846,-0.3384,-0.2837,-100.2197,172.3022,182.9834,508,887,0
20292348,542,0.6660,-0.3208,-0.3081,-99.1821,166.2598,180.1758,481,915,0
20297350,543,0.6455,-0.2935,-0.3335,-96.4355,160.3394,175.8423,477,853,0
20302351,544,0.6543,-0.2759,-0.3579,-91.1865,154.4800,170.3491,487,907,0
20307343,545,0.6538,-0.2549,-0.3711,-84.0454,148.6816,162.7807,477,900,0
20312351,546,0.6470,-0.2271,-0.3643,-77.5757,144.1650,155.0903,474,946,0
20317345,547,0.6445,-0.2041,-0.3262,-72.9370,142.4561,147.3999,476,907,0
20322342,548,0.6440,-0.1729,-0.2837,-74.0967,144.6533,141.7236,462,886,0
20327347,549,0.6538,-0.1562,-0.2720,-78.7964,149.2310,138.6719,462,913,0
20332343,550,0.6724,-0.1548,-0.2905,-84.5337,153.0762,138.7939,462,941,0
20337350,551,0.6904,-0.1509,-0.3135,-88.0127,154.2358,141.1743,462,916,0
20342343,552,0.7046,-0.1387,-0.3374,-87.8906,152.1606,143.8599,462,947,0
20347343,553,0.7100,-0.1538,-0.3418,-84.0454,148.0713,145.2637,479,918,0
20352342,554,0.7017,-0.1890,-0.3340,-80.8105,144.3481,147.3389,462,945,0
20357350,555,0.6875,-0.1978,-0.3374,-81.1768,142.0288,151.9165,480,936,0
20362346,556,0.6846,-0.1768,-0.3555,-82.5195,141.0522,156.8604,471,942,0
20367351,557,0.6812,-0.1499,-0.3940,-83.0688,140.6860,160.1562,463,979,0
20372342,558,0.6743,-0.1226,-0.4429,-83.1299,139.8926,161.3769,469,1022,0
20377346,559,0.6650,-0.1079,-0.4771,-83.8623,138.2446,161.1328,507,925,0
20382346,560,0.6587,-0.0913,-0.4775,-86.1816,136.5356,161.1328,492,944,0
20387348,561,0.6621,-0.0786,-0.4648,-88.2568,136.2915,161.5600,480,942,0
20392349,562,0.6626,-0.0449,-0.4722,-88.6841,136.2915,162.3535,504,945,0
20397350,563,0.6572,0.0010,-0.4849,-85.3271,134.8267,161.1938,489,869,0
20402347,564,0.6562,0.0420,-0.4858,-76.9653,131.1035,157.2266,477,923,0
20407350,565,0.6450,0.0439,-0.4683,-66.8335,125.7324,150.4517,490,943,0
20412345,566,0.6504,0.0132,-0.4517,-58.5937,120.1782,142.9443,474,946,0
20417342,567,0.6836,-0.0088,-0.4463,-54.1382,116.0889,137.0850,490,895,0
20422346,568,0.6758,0.0029,-0.4385,-53.5278,114.1357,133.3618,462,913,0
20427347,569,0.6592,0.0195,-0.4292,-52.1851,116.2720,128.7231,462,955,0
20432345,570,0.6455,0.0435,-0.4487,-54.6875,121.2158,125.0000,462,953,0
20437347,571,0.6528,0.0874,-0.4717,-55.4810,127.5024,123.7183,462,967,0
20442344,572,0.6577,0.1201,-0.5054,-54.4434,132.9346,123.6572,462,960,0
20447343,573,0.6348,0.1489,-0.5278,-51.5747,138.9160,125.4883,479,927,0
20452349,574,0.6406,0.1514,-0.5483,-46.3867,145.5688,126.4648,462,961,0
20457346,575,0.6499,0.1445,-0.5547,-41.7480,151.0010,127.1362,480,934,0
20462342,576,0.6484,0.1367,-0.5454,-37.3535,156.5552,125.7324,470,916,0
20467342,577,0.6377,0.1108,-0.5415,-37.4756,163.2080,122.2534,478,958,0
20472349,578,0.6245,0.0962,-0.5518,-41.3818,171.0205,119.3848,464,916,0
20477345,579,0.6187,0.1040,-0.5879,-45.8984,178.2226,115.5395,481,916,0
20482346,580,0.6240,0.1167,-0.6294,-47.6685,182.6172,109.6802,476,888,0
20487346,581,0.6289,0.1191,-0.6636,-47.4243,181.9458,101.9287,503,907,0
20492345,582,0.6489,0.1016,-0.6709,-47.0581,177.1240,93.3227,508,947,0
20497349,583,0.6709,0.0615,-0.6641,-47.3633,170.5322,86.4868,473,925,0
20502350,584,0.6738,0.0244,-0.6587,-49.1333,162.5976,82.5195,482,895,0
20507343,585,0.6650,-0.0020,-0.6670,-50.9644,152.7100,79.8340,473,923,0
20512345,586,0.6514,-0.0288,-0.6914,-50.2319,141.4185,77.3926,470,903,0
20517350,587,0.6230,-0.0527,-0.7300,-47.6074,130.1270,74.6460,489,886,0
20522343,588,0.5933,-0.0771,-0.7588,-43.7622,120.5444,71.8994,462,911,0
20527342,589,0.5601,-0.0996,-0.7725,-39.9780,114.7461,69.7632,463,953,0
20532349,590,0.5308,-0.0981,-0.7749,-37.2925,113.9526,68.7256,463,907,0
20537348,591,0.5107,-0.0806,-0.7759,-34.7290,117.3706,68.9697,463,944,0
20542351,592,0.5039,-0.0469,-0.7695,-32.3486,123.5351,69.3970,462,911,0
20547343,593,0.5000,-0.0107,-0.7485,-30.2124,129.8828,69.3970,479,948,0
20552345,594,0.4941,0.0137,-0.7197,-28.0151,135.3149,69.2139,470,912,0
20557345,595,0.4883,0.0273,-0.7056,-27.0386,139.7705,70.0684,463,936,0
20562342,596,0.4834,0.0552,-0.7329,-27.3437,142.7002,72.0825,467,930,0
20567352,597,0.4751,0.0869,-0.7769,-27.0386,142.1509,74.1577,477,978,0
20572346,598,0.4717,0.0806,-0.8008,-26.3062,138.7329,76.0498,477,926,0
20577348,599,0.4629,0.0469,-0.7944,-26.9775,135.6812,78.4912,492,928,0
20582349,600,0.4395,0.0186,-0.7920,-30.1514,133.3618,81.8481,496,868,0
20587349,601,0.4102,0.0044,-0.8032,-34.6069,131.2866,86.8530,481,810,0
20592348,602,0.3906,-0.0059,-0.8306,-38.3301,129.0894,92.3462,487,814,0
20597350,603,0.3877,-0.0220,-0.8452,-40.4053,126.8921,96.3745,489,907,0
20602348,604,0.3794,-0.0205,-0.8296,-40.2222,125.9155,98.9380,481,893,0
20607343,605,0.3579,-0.0049,-0.8096,-36.8042,126.8310,99.9756,472,945,0
20612344,606,0.3403,0.0039,-0.8066,-31.0059,128.7231,100.2808,488,883,0
20617347,607,0.3237,0.0186,-0.8096,-24.8413,130.7983,100.4028,490,883,0
20622344,608,0.3130,0.0508,-0.8145,-20.0806,132.9956,100.7690,462,951,0
20627346,609,0.3130,0.0972,-0.8218,-16.5405,136.1084,101.5015,462,911,0
20632344,610,0.3125,0.1484,-0.8359,-13.2446,139.3433,101.9287,462,907,0
20637342,611,0.3105,0.1826,-0.8564,-10.8643,142.1509,101.8677,462,961,0
20642346,612,0.3047,0.2002,-0.8823,-10.3149,144.3481,102.1728,479,951,0
20647342,613,0.2954,0.2080,-0.9170,-10.0098,145.1416,102.6001,462,923,0
20652349,614,0.2974,0.1870,-0.9351,-9.3384,143.3105,102.7222,480,926,0
20657349,615,0.2939,0.1714,-0.9365,-8.9722,140.0146,102.7832,464,823,0
20662342,616,0.2871,0.1694,-0.9365,-7.9346,136.1694,102.0508,463,948,0
20667375,617,0.2817,0.1699,-0.9224,-4.5166,132.2021,99.3652,479,899,0
20672342,618,0.2817,0.1655,-0.8911,1.5259,129.5166,94.6045,477,899,0
20677342,619,0.2886,0.1743,-0.8477,9.5825,129.4556,88.2568,477,859,0
20682344,620,0.2969,0.1719,-0.8130,18.9209,131.5918,80.9326,506,889,0
20687347,621,0.2954,0.1768,-0.8066,26.7944,134.0332,74.2188,497,820,0
20692345,622,0.2954,0.1943,-0.8306,32.0435,134.5215,69.2749,489,884,0
20697343,623,0.2920,0.2041,-0.8789,35.7056,132.4463,65.8569,476,880,0
20702347,624,0.2808,0.2021,-0.9204,37.6587,127.9297,65.0024,489,909,0
20707348,625,0.2568,0.1826,-0.9355,36.9263,122.3755,66.8945,480,910,0
20712348,626,0.2178,0.1777,-0.9536,34.4849,117.2485,69.7021,487,893,0
20717348,627,0.1816,0.1929,-1.0015,32.0435,112.1216,70.3735,462,891,0
20722348,628,0.1924,0.1973,-1.0508,29.7241,104.8584,68.1152,462,908,0
20727348,629,0.2109,0.1997,-1.0796,26.6113,97.2900,65.4907,462,946,0
20732360,630,0.2085,0.2056,-1.1084,22.3389,93.6279,61.7676,462,949,0
20737349,631,0.1934,0.2256,-1.1265,19.7754,91.0034,57.4951,462,916,0
20742344,632,0.1753,0.2500,-1.1235,21.5454,86.8530,53.2837,480,914,0
20747348,633,0.1611,0.2812,-1.1030,26.8555,82.2754,48.8281,480,923,0
20752349,634,0.1665,0.3066,-1.0830,33.9966,78.3691,44.0063,464,945,0
20757349,635,0.1855,0.3354,-1.0679,40.7715,75.3174,38.3911,480,910,0
20762358,636,0.1973,0.3530,-1.0571,47.2412,72.9370,31.7993,465,998,0
20767350,637,0.1968,0.3472,-1.0488,52.7954,70.3125,25.6958,464,918,0
20772346,638,0.1870,0.3521,-1.0464,56.9458,67.3828,21.0571,501,904,0
20777348,639,0.1797,0.3667,-1.0620,60.4858,63.4155,17.4561,490,893,0
20782342,640,0.1812,0.3755,-1.0923,62.5000,58.2275,14.4653,480,819,0
20787350,641,0.1943,0.3774,-1.1270,61.8896,52.1851,11.4746,470,876,0
20792349,642,0.1738,0.3794,-1.1538,58.5937,46.3257,8.9111,473,938,0
20797347,643,0.1455,0.3604,-1.1870,54.5044,40.8325,7.6904,478,914,0
20802346,644,0.1177,0.3262,-1.2168,49.9878,34.1797,7.6904,488,905,0
20807347,645,0.0835,0.2871,-1.2612,47.1802,26.3672,9.6436,479,865,0
20812350,646,0.0518,0.2720,-1.3188,49.4385,18.1274,12.0850,489,902,0
20817344,647,0.0405,0.2646,-1.3940,60.3027,8.8501,11.5967,462,913,0
20822346,648,0.0381,0.2524,-1.4766,79.1016,-1.5259,6.2256,463,929,0
20827348,649,0.0430,0.2534,-1.5156,102.6001,-13.4277,-3.1738,462,875,0
20832350,650,0.0513,0.2671,-1.4976,128.6621,-25.1465,-14.8926,462,938,0
20837350,651,0.0718,0.2705,-1.4282,153.5034,-34.9731,-26.2451,462,946,0
20842343,652,0.0952,0.2710,-1.2988,170.1660,-41.4429,-33.6304,462,920,0
20847350,653,0.1211,0.2827,-1.1362,178.3447,-42.2363,-36.1328,480,917,0
20852345,654,0.1602,0.2744,-1.0146,179.1992,-38.8184,-34.4849,465,919,0
20857349,655,0.1890,0.2715,-0.9541,174.1943,-35.5225,-28.4424,478,944,0
20862371,656,0.1948,0.2861,-0.9399,167.5415,-35.8276,-20.2026,464,912,0
20867348,657,0.2007,0.2988,-0.9644,163.6352,-41.0156,-12.2070,471,924,0
20872345,658,0.1885,0.2998,-0.9980,163.3911,-49.7436,-5.2490,480,945,0
20877347,659,0.1626,0.2983,-1.0044,164.3066,-57.7393,1.5869,491,922,0
20882348,660,0.1431,0.3115,-0.9849,165.4053,-62.5000,8.4229,475,786,0
20887347,661,0.1206,0.3447,-0.9756,167.2973,-62.2559,14.2822,486,888,0
20892344,662,0.1138,0.3887,-0.9868,170.5322,-58.1665,18.0054,478,904,0
20897348,663,0.1133,0.4180,-0.9937,172.3022,-53.2227,19.6533,474,888,0
20902342,664,0.1167,0.4600,-0.9800,173.9502,-47.9126,21.9727,475,889,0
20907346,665,0.1494,0.5034,-0.9722,175.4150,-41.9922,24.6582,490,921,0
20912347,666,0.1704,0.5513,-0.9814,179.6264,-35.8887,26.1230,462,928,0
20917343,667,0.1909,0.5322,-1.0034,188.8428,-35.0342,25.1465,462,923,0
20922343,668,0.2217,0.4702,-1.0591,189.9414,-38.1470,23.7427,462,946,0
20927343,669,0.2241,0.4663,-1.0981,179.1992,-43.4570,23.0103,462,945,0
20932346,670,0.1831,0.5205,-1.0938,169.0674,-49.8047,20.0806,479,959,0
20937349,671,0.1528,0.6172,-1.0381,166.9922,-60.5469,5.4321,463,948,0
20942347,672,0.1543,0.6299,-0.8872,167.4805,-59.7534,-1.7090,480,926,0
20947347,673,0.1626,0.6040,-0.7046,169.0063,-51.2085,-4.4556,466,831,0
20952342,674,0.1841,0.5737,-0.5903,166.5039,-39.2456,-1.8921,475,956,0
20957345,675,0.2163,0.5493,-0.5464,156.6772,-28.6255,4.7607,469,897,0
20962343,676,0.2427,0.5479,-0.5337,140.3809,-22.4609,12.7563,499,936,0
20967342,677,0.2495,0.5801,-0.5488,121.8872,-21.4844,20.3857,491,945,0
20972347,678,0.2407,0.6226,-0.6089,104.9805,-24.7192,26.0620,499,936,0
20977347,679,0.2158,0.6445,-0.6963,90.7593,-30.7007,30.0293,477,842,0
20982349,680,0.1797,0.6587,-0.7856,79.8340,-36.7432,33.5083,471,924,0
20987343,681,0.1489,0.6577,-0.8579,74.8901,-42.0532,36.4380,486,901,0
20992349,682,0.1299,0.6274,-0.9082,75.8667,-46.7529,39.0015,484,916,0
20997347,683,0.1270,0.6011,-0.9106,82.5806,-50.9644,41.3818,490,930,0
21002344,684,0.1479,0.5811,-0.8999,93.9331,-55.2978,41.3818,490,886,0
21007350,685,0.1704,0.5776,-0.9258,104.1260,-60.9741,39.1235,462,924,0
21012349,686,0.1768,0.5933,-0.9614,113.6475,-67.5659,35.7666,462,954,0
21017351,687,0.1841,0.6245,-0.9443,125.6103,-75.6226,30.6396,462,920,0
21022349,688,0.1899,0.6387,-0.8682,143.8599,-83.1909,22.2778,462,952,0
21027345,689,0.1802,0.6152,-0.7573,162.0483,-88.5010,14.2212,479,951,0
21032345,690,0.1851,0.6011,-0.6313,175.4150,-87.3413,10.3149,464,952,0
21037344,691,0.2021,0.6035,-0.4985,182.3730,-78.9795,9.3384,463,917,0
21042343,692,0.2295,0.6055,-0.3716,185.3638,-65.1245,9.0942,465,933,0
21047350,693,0.2388,0.6025,-0.2793,182.0068,-49.4385,8.3008,475,977,0
21052346,694,0.2583,0.6372,-0.2241,171.6308,-36.1328,8.4229,479,898,0
21057342,695,0.2886,0.6846,-0.2241,158.1421,-26.4282,8.2397,494,938,0
21062350,696,0.3076,0.7314,-0.2266,143.8599,-21.5454,8.9722,485,888,0
21067342,697,0.3330,0.7295,-0.2212,131.8970,-19.4702,13.4277,481,886,0
21072346,698,0.3281,0.7290,-0.2432,117.3706,-18.7988,22.0337,490,838,0
21077349,699,0.2974,0.7612,-0.2808,101.3794,-20.0806,32.3486,480,889,0
21082348,700,0.2974,0.7827,-0.3467,88.9893,-22.7051,40.2832,489,913,0
21087343,701,0.2847,0.8013,-0.4131,83.1909,-27.4048,44.4336,485,915,0
21092342,702,0.2578,0.7773,-0.4580,85.2661,-32.3486,45.8374,476,912,0
21097349,703,0.2324,0.7378,-0.4570,94.7876,-38.0249,46.2646,462,924,0
21102342,704,0.2183,0.6826,-0.4580,101.2573,-43.7622,44.6167,462,947,0
21107344,705,0.1982,0.6655,-0.4829,107.7270,-43.9453,43.0298,462,929,0
21112349,706,0.1797,0.6719,-0.5249,114.3799,-43.3960,40.8936,462,932,0
21117347,707,0.1973,0.7183,-0.5391,121.5210,-43.7622,36.8042,462,925,0
21122351,708,0.2168,0.7500,-0.5308,127.1362,-42.0532,30.5176,479,914,0
21127342,709,0.2065,0.7603,-0.4756,138.0615,-38.8794,25.3296,472,917,0
21132346,710,0.1919,0.7334,-0.3862,145.8130,-34.2407,22.7661,463,930,0
21137351,711,0.1978,0.7417,-0.3184,146.3623,-26.9165,24.4141,480,915,0
21142356,712,0.2227,0.7764,-0.2881,138.7939,-19.1650,26.7334,463,997,0
21147349,713,0.2427,0.8242,-0.2642,127.9297,-12.8784,27.5879,463,938,0
21152343,714,0.2490,0.8594,-0.2158,117.4316,-7.9346,27.8931,502,956,0
21157344,715,0.2505,0.8770,-0.1675,108.0322,-3.6621,29.9683,494,891,0
21162349,716,0.2427,0.9067,-0.1455,96.3745,-0.5493,34.6069,481,917,0
21167343,717,0.2417,0.9541,-0.1592,83.1299,1.5259,41.3818,487,826,0
21172342,718,0.2271,0.9951,-0.2085,69.2139,3.1738,48.1567,479,905,0
21177346,719,0.2007,1.0361,-0.2759,60.1807,2.9297,54.3823,473,898,0
21182342,720,0.1602,1.0742,-0.3296,56.5796,1.7090,58.2275,487,898,0
21187350,721,0.1377,1.0889,-0.3579,55.7861,0.4272,59.2041,479,872,0
21192344,722,0.1348,1.1001,-0.3779,55.9692,-0.4272,57.0068,490,902,0
21197347,723,0.1343,1.0947,-0.4155,56.6406,-0.1831,52.9175,462,930,0
21202344,724,0.1416,1.0630,-0.4414,58.1055,-0.9766,49.1333,462,906,0
21207345,725,0.1445,1.0425,-0.4365,59.0210,-2.8076,46.5088,462,901,0
21212348,726,0.1260,1.0522,-0.4336,60.9741,-3.9062,44.0063,462,930,0
21217350,727,0.1074,1.0737,-0.4346,65.4297,-5.5542,39.8560,479,903,0
21222342,728,0.1050,1.1025,-0.4019,70.1294,-8.3618,33.5693,462,910,0
21227350,729,0.1060,1.1157,-0.3374,73.7915,-9.8267,27.2827,463,824,0
21232344,730,0.1196,1.1216,-0.2754,71.8994,-9.0942,23.5596,480,905,0
21237349,731,0.1426,1.1255,-0.2344,65.8569,-6.6528,22.7661,473,977,0
21242349,732,0.1533,1.1362,-0.2197,58.2275,-4.0283,24.2310,477,923,0
21247347,733,0.1504,1.1626,-0.2388,50.2930,-2.5635,26.3062,477,939,0
21252342,734,0.1504,1.1914,-0.2656,44.7388,-2.9297,27.4048,472,906,0
21257344,735,0.1484,1.2061,-0.2871,42.3584,-4.5166,25.5737,502,884,0
21262345,736,0.1562,1.2002,-0.2866,40.4663,-6.1035,22.3389,487,890,0
21267343,737,0.1553,1.1729,-0.2778,37.9028,-7.3853,19.7144,475,864,0
21272342,738,0.1592,1.1499,-0.2764,33.5693,-7.7515,19.1650,484,863,0
21277345,739,0.1655,1.1392,-0.2896,28.2593,-7.3853,20.0195,476,893,0
21282348,740,0.1655,1.1396,-0.3159,25.0854,-7.4463,20.6299,488,895,0
21287348,741,0.1704,1.1216,-0.3403,26.0010,-8.6670,19.2261,490,880,0
21292345,742,0.1763,1.0991,-0.3423,28.7476,-10.4370,16.6016,463,887,0
21297346,743,0.1748,1.0732,-0.3320,32.8979,-11.4136,13.4888,463,909,0
21302342,744,0.1782,1.0596,-0.3154,37.1094,-11.4746,9.9487,462,923,0
21307346,745,0.1836,1.0591,-0.2939,40.9546,-11.4136,5.5542,462,903,0
21312345,746,0.1909,1.0591,-0.2671,44.3726,-10.8032,0.4272,479,927,0
21317343,747,0.1919,1.0610,-0.2432,45.5933,-9.0332,-3.2959,462,926,0
21322347,748,0.1899,1.0596,-0.2197,44.0674,-7.0190,-5.1270,480,904,0
21327342,749,0.2026,1.0415,-0.2124,40.6494,-5.6152,-5.4932,473,912,0
21332346,750,0.2212,1.0259,-0.2202,34.1797,-5.0049,-3.7231,464,976,0
21337365,751,0.2231,1.0200,-0.2485,27.3437,-4.0283,0.0000,470,866,0
21342343,752,0.2144,1.0327,-0.2803,22.9492,-4.0283,3.9062,479,797,0
21347344,753,0.2153,1.0469,-0.2993,22.2778,-5.3101,4.3335,470,896,0
21352348,754,0.2217,1.0430,-0.3120,22.2778,-6.6528,2.3804,498,899,0
21357350,755,0.2280,1.0308,-0.3149,20.9351,-7.5073,0.4883,475,829,0
21362350,756,0.2280,1.0376,-0.3149,18.9819,-6.8970,-0.6714,487,879,0
21367349,757,0.2241,1.0513,-0.3325,18.4326,-6.8359,-1.9531,479,850,0
21372345,758,0.2261,1.0542,-0.3569,20.2026,-8.1177,-4.0894,488,859,0
21377349,759,0.2227,1.0537,-0.3667,23.7427,-9.8877,-6.0425,484,882,0
21382345,760,0.2158,1.0684,-0.3550,28.5645,-11.4746,-8.1177,490,885,0
21387344,761,0.2085,1.0957,-0.3359,35.5835,-12.3291,-11.6577,462,935,0
21392347,762,0.1992,1.1147,-0.3335,43.3960,-13.1836,-15.8691,462,921,0
21397349,763,0.2056,1.1270,-0.3149,49.6216,-14.7705,-19.5923,462,930,0
21402346,764,0.2090,1.1519,-0.2944,52.9785,-16.1133,-22.1558,463,914,0
21407345,765,0.2036,1.2017,-0.3066,51.5747,-18.7988,-24.7803,479,945,0
21412348,766,0.2183,1.2075,-0.3047,49.4385,-23.1323,-28.4424,477,915,0
21417342,767,0.2188,1.2100,-0.2998,49.1333,-26.5503,-30.7617,463,912,0
21422346,768,0.2080,1.1963,-0.2930,50.9644,-28.9917,-32.8979,463,894,0
21427360,769,0.1943,1.1821,-0.3105,53.8330,-31.0059,-35.5835,470,999,0
21432345,770,0.1890,1.2012,-0.3306,55.7861,-33.5693,-38.2690,466,937,0
21437351,771,0.2134,1.2090,-0.3389,56.7017,-36.0718,-42.9077,469,862,0
21442344,772,0.2207,1.2329,-0.3325,58.8379,-38.6963,-47.4853,469,889,0
21447344,773,0.2192,1.2432,-0.3384,61.0962,-42.3584,-51.2695,507,904,0
21452350,774,0.2266,1.2500,-0.3486,61.5845,-45.4102,-54.6265,477,922,0
21457349,775,0.2202,1.2549,-0.3501,64.8804,-48.3398,-57.8003,485,889,0
21462345,776,0.2119,1.2427,-0.3315,67.5659,-51.0864,-60.8520,481,909,0
21467343,777,0.2178,1.2246,-0.3062,69.7021,-53.7109,-63.4155,478,942,0
21472345,778,0.2300,1.2134,-0.2910,67.6270,-55.0537,-64.8193,490,919,0
21477348,779,0.2432,1.2065,-0.2852,67.1997,-55.2978,-65.9180,489,913,0
21482344,780,0.2583,1.1719,-0.2847,65.3076,-55.7861,-67.0166,463,941,0
21487351,781,0.2637,1.1553,-0.2778,61.9507,-56.2744,-67.5659,462,943,0
21492346,782,0.2778,1.1392,-0.2695,56.5796,-57.2510,-68.6646,462,921,0
21497346,783,0.2856,1.1187,-0.2759,51.7578,-58.1665,-70.4956,463,947,0
21502343,784,0.2842,1.1177,-0.2798,46.1426,-59.5093,-71.5332,463,924,0
21507349,785,0.2837,1.1250,-0.2710,41.3818,-59.8755,-72.2656,480,934,0
21512350,786,0.2871,1.1274,-0.2695,40.7715,-59.9365,-72.5708,468,859,0
21517343,787,0.2915,1.1274,-0.2739,42.2363,-60.6079,-72.9370,475,954,0
21522373,788,0.3037,1.1279,-0.2749,42.7246,-61.1572,-74.0356,470,914,0
21527344,789,0.3057,1.1255,-0.2573,45.1050,-60.5469,-76.1719,466,923,0
21532342,790,0.2983,1.1187,-0.2349,48.5229,-59.6313,-79.4678,480,862,0
21537342,791,0.2998,1.1377,-0.2134,51.0864,-58.4717,-82.8857,506,948,0
21542346,792,0.3052,1.1567,-0.1890,52.7344,-57.0679,-87.7075,507,936,0
21547346,793,0.3086,1.1675,-0.1616,53.4058,-55.6641,-93.2007,472,843,0
21552348,794,0.3198,1.1816,-0.1328,54.8096,-54.6875,-98.6938,482,914,0
21557345,795,0.3438,1.1948,-0.1113,58.0444,-54.6265,-104.3701,490,929,0
21562343,796,0.3657,1.2046,-0.1128,59.6313,-55.7861,-109.0088,485,962,0
21567349,797,0.3770,1.2402,-0.1260,59.5093,-56.7627,-111.5723,474,953,0
21572347,798,0.3721,1.2622,-0.1426,62.2559,-58.1665,-114.2578,489,925,0
21577343,799,0.3657,1.2793,-0.1582,65.9790,-60.3638,-117.1875,463,959,0
21582342,800,0.3662,1.2725,-0.1714,71.5942,-63.7817,-121.0937,463,953,0
21587353,801,0.3804,1.2471,-0.1797,76.4160,-67.0166,-125.3662,462,957,0
21592350,802,0.3892,1.2163,-0.1685,82.0923,-69.2749,-129.0283,462,942,0
21597351,803,0.3862,1.1875,-0.1548,86.7920,-70.4346,-132.3242,480,946,0
21602350,804,0.3809,1.1597,-0.1484,88.9893,-70.8008,-135.3760,471,917,0
21607348,805,0.3799,1.1421,-0.1357,89.3555,-70.9229,-138.1836,464,897,0
21612344,806,0.3833,1.1313,-0.1221,89.3555,-71.1060,-140.8081,475,910,0
21617347,807,0.3931,1.1240,-0.1016,89.5996,-71.1060,-142.6392,467,1000,0
21622347,808,0.4028,1.1152,-0.0771,90.3320,-71.2280,-144.8364,472,937,0
21627349,809,0.4136,1.1108,-0.0552,88.9282,-71.2891,-147.1558,502,909,0
21632345,810,0.4204,1.1055,-0.0454,86.0596,-71.1670,-148.7427,468,921,0
21637343,811,0.4282,1.1016,-0.0454,83.3130,-71.5332,-149.4751,481,918,0
21642348,812,0.4399,1.0811,-0.0449,81.1768,-72.8149,-150.4517,485,913,0
21647349,813,0.4502,1.0654,-0.0391,78.3691,-74.0967,-151.2451,482,894,0
21652350,814,0.4565,1.0562,-0.0283,75.5005,-74.8901,-151.9165,474,902,0
21657350,815,0.4541,1.0522,-0.0195,72.6318,-75.1953,-152.4048,483,878,0
21662346,816,0.4556,1.0576,-0.0132,69.5190,-75.1343,-153.1372,473,883,0
21667344,817,0.4692,1.0645,-0.0195,68.4204,-75.3174,-154.2358,489,879,0
21672348,818,0.4878,1.0547,-0.0356,70.6177,-76.6602,-156.0669,462,940,0
21677345,819,0.4922,1.0234,-0.0493,74.5850,-79.3457,-158.8745,462,896,0
21682348,820,0.4785,0.9873,-0.0430,78.5522,-82.8247,-162.7807,462,939,0
21687348,821,0.4731,0.9653,-0.0269,83.3130,-85.8154,-168.4570,462,953,0
21692344,822,0.4751,0.9683,-0.0176,89.4775,-87.8906,-176.2695,479,961,0
21697347,823,0.4912,0.9932,-0.0112,96.5576,-89.6606,-185.6079,466,954,0
21702349,824,0.5034,1.0171,-0.0146,106.0791,-91.8579,-195.1904,464,919,0
21707345,825,0.5049,1.0327,-0.0073,116.8213,-95.5200,-203.3691,463,924,0
21712342,826,0.5024,1.0376,0.0215,127.3804,-99.9145,-209.9609,474,968,0
21717375,827,0.5103,1.0371,0.0317,136.4136,-100.4639,-214.4165,465,922,0
21722346,828,0.5073,1.0059,0.0054,136.7798,-85.9375,-214.2334,463,944,0
21727350,829,0.5020,0.9448,0.0234,129.2114,-66.4062,-214.0503,479,897,0
21732344,830,0.4971,0.9219,0.1104,125.3662,-58.4106,-219.4824,502,928,0
21737342,831,0.4766,0.9312,0.1797,133.1787,-61.8286,-227.5390,489,957,0
21742342,832,0.4727,0.8906,0.1636,146.4844,-68.6035,-236.0840,485,928,0
21747350,833,0.4814,0.8345,0.1289,151.6724,-72.6929,-244.0185,489,886,0
21752345,834,0.4771,0.8325,0.1436,147.2168,-71.1060,-249.5117,476,922,0
21757345,835,0.4863,0.8223,0.1738,141.5405,-66.7114,-254.6387,473,917,0
21762344,836,0.4927,0.8223,0.1860,137.8784,-64.2090,-260.5591,490,925,0
21767342,837,0.4834,0.8076,0.1602,137.5122,-65.0635,-267.6392,462,907,0
21772342,838,0.4487,0.8027,0.1123,139.4653,-68.9087,-276.1841,462,909,0
21777349,839,0.4155,0.7632,0.0708,142.2729,-73.3032,-286.2549,462,944,0
21782348,840,0.4053,0.6909,0.0737,145.4468,-77.3315,-295.0439,463,942,0
21787342,841,0.4092,0.6196,0.1343,145.1416,-81.7871,-300.8423,479,941,0
21792343,842,0.3994,0.5356,0.2256,148.0103,-85.7544,-304.5654,474,916,0
21797344,843,0.4072,0.4844,0.3018,145.2637,-89.0503,-307.4341,464,908,0
21802345,844,0.4487,0.4761,0.3999,139.1602,-89.3555,-309.7534,476,933,0
21807353,845,0.4932,0.4380,0.4673,129.5166,-86.8530,-311.6455,464,998,0
21812344,846,0.5107,0.3887,0.5059,111.6333,-81.8481,-310.7300,464,918,0
21817350,847,0.5166,0.3408,0.5283,95.7642,-74.2798,-308.4106,476,912,0
21822348,848,0.5205,0.2959,0.5000,86.4258,-68.2983,-308.1665,464,926,0
21827345,849,0.5010,0.2378,0.4380,78.4912,-65.6128,-308.8379,508,891,0
21832342,850,0.5078,0.1782,0.3911,73.6694,-63.5376,-307.3730,478,796,0
21837347,851,0.4805,0.1001,0.3311,74.7070,-63.7817,-307.6172,472,889,0
21842349,852,0.4009,0.1064,0.3267,77.6978,-66.1011,-306.4575,479,899,0
21847349,853,0.4248,0.0156,0.3110,90.4541,-65.9180,-305.4810,482,869,0
21852348,854,0.4341,-0.0625,0.2788,99.4873,-70.9839,-303.8940,473,906,0
21857348,855,0.4175,-0.0522,0.3042,104.1260,-78.6133,-302.4292,485,876,0
21862350,856,0.4312,-0.0371,0.3457,107.1777,-81.8481,-301.3916,462,910,0
21867342,857,0.4414,-0.0439,0.3882,109.6191,-83.4961,-300.8423,462,956,0
21872345,858,0.4253,-0.0669,0.4341,104.7974,-86.2427,-300.5371,463,920,0
21877343,859,0.4287,-0.0732,0.5073,97.1069,-86.2427,-300.5371,462,943,0
21882346,860,0.4717,-0.0903,0.5645,86.4868,-83.5571,-300.0488,479,948,0
21887345,861,0.4951,-0.1289,0.5962,74.7681,-81.3599,-296.3257,462,945,0
21892342,862,0.4854,-0.1587,0.5952,59.9976,-78.7964,-290.4663,480,943,0
21897345,863,0.4834,-0.1807,0.6006,45.8374,-74.4629,-282.2266,470,850,0
21902346,864,0.4746,-0.2217,0.6128,37.5977,-71.1060,-274.6582,474,944,0
21907365,865,0.4668,-0.2510,0.6577,31.3721,-68.3594,-269.0430,463,928,0
21912351,866,0.4736,-0.3179,0.6694,13.7939,-59.0820,-260.7422,469,934,0
21917344,867,0.4502,-0.2715,0.4849,-6.4697,-49.7436,-248.5351,464,920,0
21922342,868,0.4385,-0.3071,0.3472,-6.4697,-52.4292,-242.9199,476,923,0
21927342,869,0.4141,-0.4097,0.3442,-4.4556,-59.9365,-238.3423,507,923,0
21932344,870,0.3887,-0.4521,0.3789,-5.0659,-62.9272,-232.9712,489,851,0
21937342,871,0.3887,-0.5063,0.4106,-1.1597,-64.6973,-229.4922,475,917,0
21942346,872,0.3979,-0.5664,0.4365,3.5400,-66.3452,-223.8769,488,900,0
21947346,873,0.3867,-0.5952,0.4395,10.4370,-67.1387,-219.7876,489,915,0
21952348,874,0.3770,-0.5356,0.4360,18.6157,-69.1528,-217.0410,482,942,0
21957345,875,0.3740,-0.4526,0.4546,31.1279,-73.6694,-217.3462,486,918,0
21962344,876,0.3867,-0.4141,0.5020,42.9077,-75.0732,-219.0552,463,925,0
21967350,877,0.4102,-0.4087,0.5625,46.5698,-71.1060,-217.3462,462,942,0
21972346,878,0.4062,-0.4131,0.6104,38.5132,-61.4624,-211.1816,462,914,0
21977345,879,0.4023,-0.3999,0.5918,33.6304,-60.3027,-208.3740,462,943,0
21982343,880,0.4043,-0.4111,0.5679,29.4800,-59.6924,-205.5054,479,917,0
21987349,881,0.3843,-0.4478,0.5518,24.2310,-59.5703,-201.8432,462,952,0
21992344,882,0.3594,-0.4966,0.5522,17.4561,-59.6924,-197.8760,480,950,0
21997349,883,0.3364,-0.5532,0.5420,9.5825,-59.8755,-193.4204,468,909,0
22002342,884,0.3286,-0.6089,0.4971,1.7700,-60.2417,-188.5376,468,941,0
22007359,885,0.3208,-0.6660,0.4609,-4.2114,-63.4155,-181.5796,463,899,0
22012346,886,0.2988,-0.7031,0.4580,-8.7280,-68.2983,-172.6074,472,941,0
22017347,887,0.2720,-0.7134,0.4658,-7.8125,-72.6318,-164.7949,466,862,0
22022347,888,0.2256,-0.7163,0.4556,-2.4414,-76.5991,-160.4004,475,890,0
22027346,889,0.2168,-0.6689,0.4609,0.7935,-78.9795,-158.6914,508,875,0
22032350,890,0.2163,-0.6260,0.4766,7.4463,-77.3315,-160.1562,489,830,0
22037347,891,0.1934,-0.6172,0.4648,21.7895,-77.8198,-164.0014,474,944,0
22042346,892,0.1924,-0.6294,0.4521,33.8745,-81.8481,-168.3349,486,925,0
22047343,893,0.1943,-0.6392,0.4844,42.2363,-84.5947,-172.4243,489,929,0
22052344,894,0.2119,-0.6187,0.5474,50.4150,-85.8154,-175.9643,481,933,0
22057344,895,0.2388,-0.6318,0.5776,54.2603,-86.7920,-178.6499,486,902,0
22062346,896,0.2524,-0.6313,0.5923,52.8564,-86.1816,-179.0161,462,928,0
22067348,897,0.2515,-0.6304,0.6357,46.6309,-85.5713,-179.3823,462,929,0
22072347,898,0.2319,-0.6582,0.7031,40.0391,-84.4726,-179.9316,462,926,0
22077344,899,0.2139,-0.7002,0.7769,33.4473,-84.5947,-178.1616,462,951,0
22082345,900,0.2051,-0.7251,0.8154,23.7427,-82.8247,-172.6074,479,948,0
22087350,901,0.1992,-0.7300,0.8486,15.4419,-76.9653,-164.8559,462,951,0
22092345,902,0.1924,-0.7559,0.8740,11.7187,-70.4346,-157.2876,480,959,0
22097345,903,0.1899,-0.7725,0.8379,7.0190,-64.5142,-148.8647,480,836,0
22102343,904,0.1943,-0.7871,0.7861,3.1128,-59.8755,-140.5640,465,978,0
22107373,905,0.1807,-0.7979,0.7568,0.1831,-55.7861,-133.6060,477,925,0
22112342,906,0.1558,-0.7939,0.7354,-1.6479,-52.3071,-128.3569,474,922,0
22117349,907,0.1362,-0.7783,0.7207,-2.6245,-49.9878,-124.6948,491,861,0
22122342,908,0.1289,-0.7617,0.7041,-3.9673,-48.1567,-121.4600,481,931,0
22127345,909,0.1274,-0.7422,0.6855,-6.1646,-47.1191,-117.9199,506,899,0
22132349,910,0.1211,-0.7168,0.6704,-8.2397,-46.3867,-114.5019,490,843,0
22137344,911,0.1011,-0.7021,0.6528,-9.2773,-46.5088,-111.6333,474,914,0
22142346,912,0.0825,-0.7002,0.6372,-10.2539,-47.4243,-109.3750,487,908,0
22147345,913,0.0747,-0.6895,0.6196,-12.2681,-48.8892,-107.6660,476,917,0
22152349,914,0.0708,-0.6758,0.6094,-13.3667,-51.3916,-106.8115,478,923,0
22157346,915,0.0693,-0.6890,0.6089,-13.7939,-54.9927,-106.4453,483,922,0
22162346,916,0.0649,-0.7114,0.6133,-15.5029,-59.5703,-104.1260,463,898,0
22167346,917,0.0742,-0.7266,0.6182,-18.6768,-64.8193,-99.8535,462,927,0
22172349,918,0.0684,-0.7651,0.6182,-23.0103,-69.4580,-96.1914,462,940,0
22177344,919,0.0513,-0.8125,0.6265,-27.8931,-73.1812,-93.8110,462,940,0
22182345,920,0.0273,-0.8359,0.6426,-32.8979,-76.4160,-90.5151,479,911,0
22187343,921,0.0176,-0.8545,0.6704,-36.0107,-79.3457,-88.0127,463,942,0
22192347,922,0.0054,-0.8862,0.7056,-38.0859,-81.1157,-87.5244,480,924,0
22197346,923,-0.0156,-0.9019,0.7505,-39.9780,-80.9326,-84.6558,464,933,0
22202349,924,-0.0024,-0.9067,0.8027,-37.5366,-80.6274,-78.9795,463,939,0
22207348,925,0.0083,-0.9307,0.8589,-30.3345,-79.2236,-75.8057,464,998,0
22212343,926,0.0049,-0.9590,0.9131,-22.2168,-74.9512,-73.5474,467,891,0
22217350,927,-0.0225,-0.9692,0.9575,-16.1133,-68.4204,-70.4346,500,926,0
22222347,928,-0.0356,-0.9565,0.9849,-12.8174,-61.2793,-66.2231,497,882,0
22227344,929,-0.0317,-0.9165,0.9844,-10.6812,-53.4668,-62.8052,495,931,0
22232344,930,-0.0132,-0.8867,0.9707,-8.0566,-45.8374,-60.3027,464,828,0
22237342,931,0.0103,-0.8750,0.9541,-5.8594,-39.0625,-57.7393,482,901,0
22242342,932,0.0264,-0.8604,0.9399,-5.1270,-33.4473,-54.4434,490,904,0
22247346,933,0.0283,-0.8447,0.9116,-3.9673,-28.3203,-51.3916,476,895,0
22252342,934,0.0220,-0.8472,0.8721,-2.0142,-24.5361,-49.1333,490,902,0
22257349,935,0.0151,-0.8462,0.8369,-2.1973,-21.6675,-46.8750,480,869,0
22262347,936,0.0078,-0.8481,0.8115,-4.0894,-19.2871,-43.8232,483,877,0
22267347,937,-0.0024,-0.8413,0.7925,-6.7749,-18.0664,-39.9170,462,871,0
22272348,938,-0.0073,-0.8262,0.7827,-8.3618,-18.2495,-36.2549,462,919,0
22277344,939,-0.0112,-0.8208,0.7842,-8.1177,-19.6533,-34.7900,462,923,0
22282348,940,-0.0107,-0.8311,0.7788,-7.6904,-21.4844,-33.4473,462,921,0
22287347,941,-0.0044,-0.8530,0.7695,-8.0566,-23.4375,-31.0059,479,927,0
22292346,942,-0.0005,-0.8677,0.7632,-8.7891,-25.2686,-27.9541,462,898,0
22297343,943,-0.0068,-0.8716,0.7681,-9.8877,-26.8555,-25.2075,479,880,0
22302350,944,-0.0142,-0.8525,0.7656,-10.4980,-28.0151,-23.4985,464,896,0
22307348,945,-0.0176,-0.8354,0.7451,-8.8501,-28.6255,-22.8882,463,953,0
22312346,946,-0.0171,-0.8208,0.7358,-7.0801,-28.5034,-23.1323,469,892,0
22317368,947,-0.0254,-0.8096,0.7393,-7.9956,-26.9165,-23.3765,477,889,0
22322344,948,-0.0298,-0.8013,0.7524,-12.6343,-25.1465,-23.0713,464,921,0
22327346,949,-0.0273,-0.7925,0.7690,-18.8599,-24.1699,-21.7285,467,928,0
22332344,950,-0.0200,-0.7744,0.7778,-25.8179,-23.4375,-19.6533,508,901,0
22337351,951,-0.0073,-0.7617,0.7812,-32.5317,-22.5220,-18.4326,469,814,0
22342346,952,-0.0220,-0.7544,0.7847,-39.3066,-20.7520,-17.1509,472,874,0
22347349,953,-0.0278,-0.7358,0.7905,-46.2036,-19.6533,-14.6484,488,872,0
22352344,954,-0.0269,-0.7295,0.7930,-52.5513,-18.3716,-13.7329,485,895,0
22357346,955,-0.0298,-0.7339,0.7856,-58.4106,-16.6626,-12.2070,482,915,0
22362342,956,-0.0269,-0.7373,0.7749,-63.9648,-15.6860,-9.7656,490,885,0
22367346,957,-0.0234,-0.7490,0.7437,-68.2373,-15.4419,-7.8125,490,885,0
22372347,958,-0.0205,-0.7681,0.6968,-71.1670,-16.2964,-5.7983,463,927,0
22377348,959,-0.0308,-0.7969,0.6553,-72.5098,-19.1650,-2.9907,462,920,0
22382346,960,-0.0347,-0.8247,0.6357,-74.7070,-23.9868,0.9155,463,914,0
22387347,961,-0.0449,-0.8428,0.6260,-79.8950,-28.3813,6.2256,463,902,0
22392350,962,-0.0488,-0.8428,0.6387,-83.9844,-32.5928,12.3901,462,930,0
22397346,963,-0.0557,-0.8555,0.6426,-87.6465,-38.2690,18.0054,480,943,0
22402347,964,-0.0654,-0.8540,0.6431,-92.8955,-44.0674,24.0478,464,824,0
22407349,965,-0.0605,-0.8525,0.6504,-99.2432,-49.1333,30.3345,463,947,0
22412350,966,-0.0537,-0.8418,0.6694,-103.6987,-53.7109,36.9873,467,998,0
22417362,967,-0.0503,-0.8296,0.7046,-107.4219,-58.8989,42.7246,471,922,0
22422342,968,-0.0645,-0.8188,0.7349,-111.0840,-63.1103,47.8516,467,950,0
22427343,969,-0.0898,-0.8052,0.7461,-114.0747,-65.3687,52.6733,468,934,0
22432345,970,-0.1147,-0.8057,0.7651,-114.8071,-66.7114,56.3965,507,897,0
22437347,971,-0.1128,-0.8062,0.7852,-115.8447,-67.8711,59.0210,462,849,0
22442346,972,-0.0947,-0.7896,0.8052,-118.3472,-67.5049,61.4624,470,895,0
22447342,973,-0.0625,-0.7881,0.8198,-121.3989,-65.8569,64.8193,485,914,0
22452349,974,-0.0347,-0.8003,0.8076,-126.4648,-63.2324,69.3359,489,920,0
22457343,975,-0.0283,-0.8008,0.7808,-135.1318,-61.4014,75.8057,474,923,0
22462350,976,-0.0298,-0.8052,0.7744,-144.6533,-60.2417,84.1064,490,906,0
22467350,977,-0.0298,-0.8184,0.7803,-152.7100,-58.4106,93.3838,490,918,0
22472347,978,-0.0391,-0.8364,0.7793,-157.1045,-56.0303,101.8066,462,942,0
22477345,979,-0.0513,-0.8506,0.7744,-157.7759,-54.7485,109.9243,462,944,0
22482346,980,-0.0713,-0.8604,0.7935,-155.6396,-54.3213,118.1641,463,953,0
22487349,981,-0.0947,-0.8755,0.8145,-152.1606,-54.0771,128.5400,463,948,0
22492347,982,-0.1030,-0.8657,0.8413,-146.9116,-55.1758,140.7471,462,916,0
22497348,983,-0.0962,-0.8325,0.8755,-141.7847,-57.9224,152.3438,480,919,0
22502351,984,-0.1001,-0.7412,0.9053,-136.7798,-58.8989,162.1704,464,974,0
22507349,985,-0.1162,-0.6597,0.8979,-131.0425,-58.7158,168.7012,480,917,0
22512343,986,-0.1240,-0.6338,0.8574,-125.1221,-58.4106,173.6450,467,1000,0
22517368,987,-0.1152,-0.6401,0.8193,-121.8872,-59.4482,179.0161,479,954,0
22522348,988,-0.0991,-0.6255,0.7915,-122.9248,-60.9741,182.8003,464,962,0
22527350,989,-0.0986,-0.5781,0.7500,-125.3662,-60.4858,182.6782,492,882,0
22532345,990,-0.1060,-0.5664,0.6953,-118.6523,-60.5469,179.8096,506,945,0
22537344,991,-0.1167,-0.5854,0.6108,-111.8774,-62.9272,177.4902,467,851,0
22542342,992,-0.1260,-0.6113,0.5439,-110.9619,-64.3921,177.7344,481,884,0
22547342,993,-0.1567,-0.6475,0.5225,-112.7930,-63.9648,180.8472,474,929,0
22552343,994,-0.1846,-0.6709,0.5601,-114.1968,-67.1387,185.8520,479,934,0
22557347,995,-0.1953,-0.6562,0.6021,-120.0561,-71.9604,190.4297,490,946,0
22562343,996,-0.1719,-0.5884,0.6113,-127.4414,-75.6226,194.7021,474,920,0
22567342,997,-0.1538,-0.5151,0.5889,-135.6812,-77.0874,197.7539,490,925,0
22572346,998,-0.1509,-0.4175,0.5879,-138.8550,-78.0640,198.7915,463,948,0
22577351,999,-0.1353,-0.3438,0.5889,-135.3760,-79.8340,197.2046,462,941,0
22582345,1000,-0.1167,-0.2808,0.5708,-129.8218,-80.3223,194.2139,462,975,0
22587347,1001,-0.1147,-0.1953,0.5522,-123.2910,-80.3223,188.4765,479,920,0
22592343,1002,-0.1401,-0.0840,0.5420,-114.2578,-80.3833,180.1147,462,941,0
22597346,1003,-0.1646,-0.0024,0.5635,-96.7407,-83.3740,168.9453,480,958,0
22602344,1004,-0.1431,0.0264,0.6045,-81.2378,-87.4634,159.5459,472,915,0
22607343,1005,-0.1060,0.0342,0.6528,-70.0073,-88.6841,152.6489,477,939,0
22612343,1006,-0.0718,0.0352,0.7168,-65.0635,-88.5010,145.3857,464,898,0
22617367,1007,-0.0708,0.0474,0.7812,-66.2842,-87.5244,138.9160,465,931,0
22622350,1008,-0.0933,0.0605,0.8271,-71.5332,-85.3271,133.2397,469,931,0
22627349,1009,-0.1016,0.0806,0.8623,-81.1157,-82.5806,127.3804,491,899,0
22632351,1010,-0.0913,0.1255,0.8667,-93.7500,-80.2002,121.8872,502,901,0
22637348,1011,-0.0679,0.1797,0.8296,-106.1401,-77.3315,117.1875,464,810,0
22642350,1012,-0.0708,0.2075,0.7666,-115.2954,-74.7681,112.7930,470,916,0
22647344,1013,-0.1025,0.1758,0.7061,-122.4976,-75.2563,109.8633,479,909,0
22652345,1014,-0.1289,0.1138,0.7046,-131.8970,-78.7354,109.4360,476,892,0
22657342,1015,-0.1396,0.0684,0.7461,-144.9585,-82.3364,110.6567,478,889,0
22662346,1016,-0.1455,0.0532,0.7627,-157.7759,-83.8623,110.9619,469,896,0
22667345,1017,-0.1665,0.0649,0.7397,-167.3584,-83.8013,109.1309,490,899,0
22672350,1018,-0.1890,0.0811,0.7090,-172.4853,-83.6792,106.9946,463,958,0
22677343,1019,-0.1982,0.0830,0.6997,-172.4243,-84.1064,104.9194,462,957,0
22682346,1020,-0.2041,0.0811,0.7168,-169.7998,-84.5337,102.3559,462,938,0
22687347,1021,-0.2275,0.0986,0.7656,-168.2129,-84.3506,99.9145,479,956,0
22692350,1022,-0.2407,0.1104,0.8345,-165.2222,-84.1064,97.9004,462,930,0
22697344,1023,-0.2373,0.1289,0.8975,-160.3394,-83.6792,96.8628,480,921,0
22702349,1024,-0.2148,0.1343,0.9531,-153.7476,-83.1909,96.6797,464,913,0
22707348,1025,-0.1885,0.1323,1.0093,-148.1934,-81.5430,98.1445,464,952,0
22712349,1026,-0.1807,0.1416,1.0625,-144.1650,-77.9419,99.9145,467,997,0
22717378,1027,-0.1899,0.1572,1.1016,-142.5171,-71.8384,100.8301,467,943,0
22722345,1028,-0.1895,0.1821,1.1152,-142.3950,-64.0259,101.8677,464,939,0
22727343,1029,-0.1792,0.2124,1.0986,-141.4185,-55.9082,102.8442,506,947,0
22732349,1030,-0.1860,0.2368,1.0679,-137.1460,-49.7436,102.2949,491,908,0
22737350,1031,-0.2002,0.2593,1.0342,-129.2725,-46.6309,99.7314,490,942,0
22742345,1032,-0.2202,0.2920,1.0000,-118.8354,-45.1050,93.9941,491,846,0
22747343,1033,-0.2192,0.3208,0.9883,-106.6284,-44.1894,84.8389,486,923,0
22752347,1034,-0.2310,0.3340,1.0103,-93.5059,-46.3867,74.5850,479,900,0
22757350,1035,-0.2236,0.3369,1.0483,-82.1533,-47.0581,63.4766,477,911,0
22762343,1036,-0.1963,0.3350,1.0811,-74.9512,-44.7998,54.3213,488,930,0
22767346,1037,-0.1909,0.3506,1.0996,-72.3267,-41.2598,48.1567,489,884,0
22772344,1038,-0.2051,0.3896,1.1055,-71.4722,-38.7573,43.8843,462,943,0
22777345,1039,-0.2271,0.4160,1.1016,-70.3735,-37.9639,40.4663,462,937,0
22782343,1040,-0.2437,0.4414,1.0942,-70.5566,-37.5977,37.6587,462,934,0
22787348,1041,-0.2441,0.4624,1.0938,-71.7163,-36.8652,34.9121,462,905,0
22792348,1042,-0.2505,0.4717,1.0894,-74.1577,-36.1938,32.6538,462,973,0
22797346,1043,-0.2705,0.4819,1.0952,-78.0029,-36.8652,31.4331,480,935,0
22802345,1044,-0.2754,0.4951,1.1172,-81.2988,-38.3301,31.0059,464,906,0
22807344,1045,-0.2661,0.5088,1.1387,-83.1299,-39.4897,30.2124,478,910,0
22812343,1046,-0.2520,0.5156,1.1670,-83.6792,-40.2832,28.3813,463,999,0
22817371,1047,-0.2412,0.5127,1.1963,-84.4116,-39.5508,26.4893,470,921,0
22822351,1048,-0.2178,0.5103,1.2217,-85.6934,-37.4756,26.5503,471,945,0
22827342,1049,-0.1934,0.5093,1.2441,-85.3882,-34.6069,28.0762,501,862,0
22832345,1050,-0.1992,0.5205,1.2788,-84.5947,-31.3110,29.2969,490,924,0
22837346,1051,-0.2197,0.5430,1.3208,-82.5195,-27.3437,28.2593,463,931,0
22842349,1052,-0.2344,0.5566,1.3569,-77.2705,-21.4233,24.5361,477,854,0
22847343,1053,-0.2397,0.5400,1.3940,-69.5801,-13.6719,19.0430,490,908,0
22852346,1054,-0.2568,0.4902,1.4482,-61.7676,-3.9673,13.1836,484,877,0
22857347,1055,-0.3047,0.4346,1.5176,-57.0679,7.3242,7.5684,486,910,0
22862349,1056,-0.3545,0.4028,1.5674,-56.5186,19.4702,0.1831,472,854,0
22867346,1057,-0.3945,0.3779,1.5742,-57.5561,31.1890,-8.5449,489,896,0
22872344,1058,-0.4170,0.3667,1.5376,-59.6313,41.9311,-16.4185,462,916,0
22877345,1059,-0.3984,0.3706,1.4902,-60.1196,50.9644,-22.7051,462,919,0
22882348,1060,-0.3799,0.3774,1.4746,-57.8613,58.1665,-26.3062,462,948,0
22887350,1061,-0.3994,0.3784,1.5020,-53.2227,64.2090,-28.1982,479,930,0
22892350,1062,-0.4658,0.3481,1.5479,-46.3867,68.1763,-30.7617,463,916,0
22897346,1063,-0.4668,0.3560,1.5312,-32.2266,72.4487,-43.7012,479,924,0
22902348,1064,-0.4292,0.3740,1.5176,-23.2544,75.1953,-50.8423,464,928,0
22907348,1065,-0.3887,0.3979,1.5771,-12.3901,80.0781,-58.3496,467,940,0
22912347,1066,-0.3721,0.4272,1.6699,-0.3662,88.7451,-67.8101,473,999,0
22917343,1067,-0.3633,0.4385,1.7520,11.3525,100.6470,-78.0640,479,889,0
22922343,1068,-0.3345,0.4419,1.8037,20.2637,115.7837,-86.4868,464,935,0
22927344,1069,-0.2808,0.4434,1.8560,25.5127,133.9111,-92.8345,493,908,0
22932347,1070,-0.2246,0.4521,1.9160,28.1982,152.9541,-96.4966,493,930,0
22937347,1071,-0.1851,0.4819,1.9536,28.7476,171.6919,-96.8018,464,930,0
22942347,1072,-0.1562,0.5244,1.9561,28.2593,189.2090,-94.4824,477,925,0
22947347,1073,-0.1475,0.5332,1.9277,27.0996,205.5664,-91.4917,489,861,0
22952350,1074,-0.1753,0.5581,1.8838,22.4609,220.3979,-86.4258,478,900,0
22957344,1075,-0.1807,0.6035,1.8315,18.3105,232.4829,-78.6743,478,921,0
22962342,1076,-0.1997,0.6216,1.7676,18.9819,242.1264,-71.7163,472,887,0
22967344,1077,-0.2476,0.6309,1.7441,21.3013,248.7182,-62.7441,489,893,0
22972346,1078,-0.2769,0.6504,1.7578,22.0947,253.4180,-56.9458,463,956,0
22977346,1079,-0.2876,0.6401,1.7764,24.4141,259.7656,-54.9927,462,927,0
22982365,1080,-0.2983,0.5894,1.7847,26.1230,267.8223,-55.6641,462,919,0
22987342,1081,-0.3184,0.5068,1.7915,24.4141,277.5879,-58.3496,463,920,0
22992346,1082,-0.3540,0.4307,1.7773,16.9067,289.0625,-61.3403,462,922,0
22997350,1083,-0.3604,0.3750,1.7212,6.8359,299.8047,-64.1479,480,912,0
23002350,1084,-0.3828,0.3008,1.6582,-3.7842,308.4106,-67.4438,463,815,0
23007350,1085,-0.3623,0.3096,1.5996,-20.7520,315.1245,-73.3032,474,925,0
23012344,1086,-0.3120,0.3179,1.4814,-32.0435,321.5332,-80.5664,479,978,0
23017367,1087,-0.2700,0.3340,1.3242,-38.5742,325.0122,-86.9751,470,916,0
23022342,1088,-0.2529,0.3613,1.2085,-41.7480,323.9135,-91.9189,474,909,0
23027345,1089,-0.2295,0.3896,1.1299,-41.6260,318.5425,-95.0317,506,888,0
23032345,1090,-0.1904,0.4053,1.0366,-38.7573,309.2651,-95.3979,479,932,0
23037342,1091,-0.1636,0.4053,0.9321,-32.8369,294.7998,-94.1772,491,927,0
23042346,1092,-0.1436,0.4243,0.8467,-24.8413,275.4517,-92.5293,489,835,0
23047350,1093,-0.1104,0.4521,0.7954,-13.6108,254.6997,-92.6514,474,905,0
23052349,1094,-0.0615,0.4604,0.7993,-0.2441,236.6333,-95.3369,481,931,0
23057346,1095,0.0020,0.4453,0.8579,12.3291,222.9004,-97.8393,484,907,0
23062349,1096,0.0757,0.4136,0.9224,23.3154,214.7827,-98.8159,478,948,0
23067346,1097,0.1372,0.3911,0.9644,31.7383,210.3271,-98.0225,479,926,0
23072349,1098,0.1538,0.4058,0.9976,35.9497,208.6181,-97.1069,463,929,0
23077350,1099,0.1738,0.4541,1.0396,36.9873,209.4726,-97.7173,462,919,0
23082358,1100,0.2217,0.4824,1.0352,38.7573,213.6230,-99.2432,462,953,0
23087346,1101,0.2725,0.4795,0.9917,41.4429,219.1772,-97.8393,462,923,0
23092348,1102,0.2764,0.4785,0.9575,41.0767,223.5107,-94.9097,462,956,0
23097347,1103,0.2373,0.4673,0.9058,39.9170,226.1963,-90.2100,478,956,0
23102346,1104,0.1670,0.4180,0.8511,38.6963,225.1587,-86.4258,464,905,0
23107346,1105,0.0928,0.3438,0.8306,35.4614,219.2383,-84.8389,476,914,0
23112350,1106,0.0488,0.2319,0.8340,35.2783,208.6792,-80.8105,464,984,0
23117369,1107,0.0322,0.1069,0.8115,37.9639,192.9931,-74.2188,465,917,0
23122344,1108,0.0215,0.0195,0.7417,29.3579,177.1850,-65.4907,478,970,0
23127345,1109,0.0581,-0.0044,0.7012,22.8271,166.7480,-57.9834,491,946,0
23132347,1110,0.1001,-0.0361,0.6846,29.1748,159.5459,-56.2744,481,933,0
23137343,1111,0.1284,-0.0610,0.6445,35.1562,154.8462,-56.3354,490,945,0
23142344,1112,0.1567,-0.0698,0.6050,37.6587,155.7617,-55.0537,472,880,0
23147347,1113,0.1777,-0.0542,0.5835,40.8936,158.8135,-52.8564,482,915,0
23152343,1114,0.2007,-0.0200,0.5635,37.2314,160.8276,-50.9033,491,889,0
23157346,1115,0.2378,0.0171,0.5415,36.0107,163.2080,-49.0723,483,915,0
23162347,1116,0.2729,0.0400,0.5146,34.6680,165.6494,-47.5464,481,933,0
23167347,1117,0.2979,0.0591,0.4893,33.2031,168.1518,-45.7153,486,920,0
23172347,1118,0.3257,0.0723,0.4790,28.6255,172.7905,-43.3960,462,918,0
23177342,1119,0.3330,0.0688,0.4717,29.8462,177.6123,-42.3584,462,950,0
23182366,1120,0.3252,0.0522,0.4585,32.3486,179.5044,-43.2129,462,924,0
23187350,1121,0.3486,0.0366,0.4468,28.3813,181.4575,-43.8843,463,919,0
23192346,1122,0.3955,0.0190,0.4351,21.2402,188.1714,-44.7998,462,932,0
23197347,1123,0.4321,0.0034,0.4224,13.0005,199.1577,-48.2178,480,955,0
23202347,1124,0.4458,0.0098,0.4204,9.7656,209.4116,-52.3071,463,908,0
23207342,1125,0.4419,0.0151,0.4351,9.0942,216.2475,-56.7627,477,935,0
23212342,1126,0.4443,0.0068,0.4351,6.3477,222.4731,-61.4014,465,898,0
23217353,1127,0.4492,-0.0195,0.4126,2.4414,227.7222,-64.1479,470,923,0
23222345,1128,0.4497,-0.0376,0.3984,-2.5635,229.1260,-64.1479,466,861,0
23227344,1129,0.4585,-0.0444,0.3906,-5.2490,226.5625,-62.0728,502,860,0
23232350,1130,0.4810,-0.0728,0.3794,-5.0049,222.4731,-58.5327,480,918,0
23237343,1131,0.4902,-0.1104,0.3726,-4.7607,217.4072,-53.5278,508,914,0
23242347,1132,0.4819,-0.1284,0.3599,-6.4087,211.3037,-46.8750,475,814,0
23247343,1133,0.4751,-0.1328,0.3340,-8.6670,204.0405,-40.5884,480,891,0
23252345,1134,0.4902,-0.1265,0.2954,-8.7280,195.9228,-35.2173,472,906,0
23257344,1135,0.5347,-0.1152,0.2554,-5.8594,188.1714,-29.9072,483,901,0
23262342,1136,0.5708,-0.0752,0.2344,-1.5259,182.1289,-24.5972,488,932,0
23267348,1137,0.6069,-0.0361,0.2397,3.6621,179.1992,-22.2168,472,904,0
23272345,1138,0.6396,-0.0337,0.2422,9.1553,180.4809,-22.6440,490,887,0
23277343,1139,0.6558,-0.0566,0.2285,11.1694,184.2651,-21.8506,462,934,0
23282348,1140,0.6543,-0.0732,0.2065,10.2539,188.4765,-18.5547,462,961,0
23287344,1141,0.6572,-0.0684,0.1855,8.6670,190.7959,-14.1602,463,921,0
23292350,1142,0.6748,-0.0493,0.1597,6.8970,191.7114,-10.6201,479,907,0
23297343,1143,0.6865,-0.0430,0.1450,6.8359,193.4814,-8.6060,463,910,0
23302349,1144,0.6855,-0.0605,0.1475,6.6528,196.2280,-7.2632,464,886,0
23307350,1145,0.7075,-0.1025,0.1558,4.2114,200.8056,-4.5166,479,893,0
23312342,1146,0.7466,-0.1396,0.1479,-1.8921,207.2143,-0.1831,464,973,0
23317347,1147,0.7632,-0.1450,0.1235,-8.9111,212.2192,4.8218,476,892,0
23322348,1148,0.7671,-0.1479,0.0762,-15.2588,214.5996,9.1553,474,926,0
23327345,1149,0.7612,-0.1660,0.0259,-22.5830,214.9658,13.9770,473,924,0
23332343,1150,0.7588,-0.1880,-0.0210,-27.2217,214.3555,20.0195,505,884,0
23337349,1151,0.7539,-0.2188,-0.0806,-26.5503,212.5854,25.5737,496,893,0
23342349,1152,0.7437,-0.2441,-0.1567,-22.1558,209.9609,29.7241,490,985,0
23347347,1153,0.7383,-0.2573,-0.2383,-15.8081,205.6274,34.1187,470,931,0
23352349,1154,0.7510,-0.2534,-0.3018,-8.9111,198.2422,39.3066,482,923,0
23357345,1155,0.7915,-0.2241,-0.3579,-0.5493,187.9883,43.5791,490,874,0
23362345,1156,0.8306,-0.1982,-0.4199,10.5591,176.3306,43.1519,476,885,0
23367345,1157,0.8560,-0.1670,-0.4849,18.9209,164.9170,40.4663,488,892,0
23372344,1158,0.8735,-0.1211,-0.5161,23.4985,154.0527,39.9170,490,916,0
23377350,1159,0.8892,-0.1060,-0.5068,26.9165,144.1650,36.8652,463,914,0
23382347,1160,0.8931,-0.0962,-0.4824,27.1606,134.9487,32.8979,462,915,0
23387346,1161,0.9019,-0.0693,-0.4590,25.5737,126.0986,29.9683,463,915,0
23392347,1162,0.9199,-0.0342,-0.4487,24.1699,117.3096,27.8320,479,956,0
23397349,1163,0.9512,-0.0186,-0.4385,22.7661,109.0698,27.2827,462,928,0
23402347,1164,0.9878,-0.0181,-0.4248,18.8599,102.4780,29.7241,480,953,0
23407346,1165,1.0117,-0.0278,-0.4224,14.2212,98.2056,34.5459,464,831,0
23412342,1166,1.0200,-0.0366,-0.4478,9.7046,94.7266,38.3911,473,940,0
23417346,1167,1.0220,-0.0439,-0.4912,4.3945,91.6748,41.3208,464,894,0
23422372,1168,1.0264,-0.0532,-0.5493,-1.0376,87.6465,44.1894,466,932,0
23427346,1169,1.0283,-0.0615,-0.6162,-5.6763,81.0547,46.5698,469,922,0
23432347,1170,1.0259,-0.0737,-0.6851,-7.5073,71.5332,48.8892,503,890,0
23437350,1171,1.0273,-0.0786,-0.7446,-6.7749,59.9976,51.3916,490,906,0
23442347,1172,1.0273,-0.0635,-0.8174,-3.6621,47.6685,53.2227,490,936,0
23447344,1173,1.0347,-0.0586,-0.8989,5.4321,34.1797,53.5889,477,849,0
23452346,1174,1.0332,-0.0645,-0.9473,16.4185,19.5312,52.7954,472,869,0
23457347,1175,1.0322,-0.0811,-0.9536,26.7944,6.7139,50.2930,481,914,0
23462342,1176,1.0234,-0.0967,-0.9414,35.0342,-3.4790,46.5698,485,904,0
23467347,1177,1.0288,-0.1079,-0.9370,40.1611,-10.6812,41.9922,480,869,0
23472349,1178,1.0542,-0.1152,-0.9629,43.0298,-15.5640,37.7197,490,919,0
23477347,1179,1.0728,-0.1143,-1.0464,49.8047,-20.6909,33.5083,463,942,0
23482350,1180,1.0698,-0.1265,-1.1509,61.0352,-28.2593,30.7007,462,939,0
23487345,1181,1.0737,-0.1196,-1.2095,72.0825,-37.2314,30.7007,462,912,0
23492344,1182,1.0811,-0.0806,-1.2090,82.2754,-45.5322,31.9214,479,908,0
23497348,1183,1.0747,-0.0405,-1.1812,94.5434,-52.8564,30.7617,470,914,0
23502349,1184,1.0674,-0.0200,-1.1436,106.6894,-60.6079,26.3672,463,918,0
23507343,1185,1.0669,0.0063,-1.0850,113.8306,-69.2749,21.6675,463,921,0
23512342,1186,1.0596,0.0332,-1.0103,115.7226,-76.6602,18.4937,475,978,0
23517349,1187,1.0508,0.0547,-0.9355,113.4643,-82.3975,16.1743,464,896,0
23522346,1188,1.0654,0.0752,-0.8750,108.5815,-87.5854,13.6719,466,948,0
23527343,1189,1.0645,0.1060,-0.8359,102.8442,-93.9941,12.8784,497,945,0
23532342,1190,1.0796,0.1362,-0.8247,97.4121,-100.0976,13.7939,479,912,0
23537346,1191,1.0825,0.1772,-0.8032,91.9189,-107.1777,13.5498,491,943,0
23542350,1192,1.0781,0.2134,-0.7734,88.4399,-114.3799,12.2681,464,924,0
23547347,1193,1.0693,0.2383,-0.7407,86.8530,-121.0327,10.7422,472,874,0
23552351,1194,1.0513,0.2305,-0.7104,87.6465,-127.3193,9.0942,486,929,0
23557349,1195,1.0391,0.1987,-0.6841,87.5244,-133.3008,8.7891,474,909,0
23562350,1196,1.0244,0.1768,-0.6558,85.3271,-138.8550,9.7656,479,916,0
23567351,1197,1.0063,0.1479,-0.6318,84.4726,-145.6299,11.1694,490,909,0
23572342,1198,0.9878,0.1069,-0.6060,84.2285,-153.7476,12.6343,489,900,0
23577342,1199,0.9570,0.0693,-0.5850,83.1909,-162.7807,14.2822,463,944,0
23582364,1200,0.9248,0.0415,-0.5630,83.0688,-173.4619,14.3433,462,959,0
23587349,1201,0.8965,0.0122,-0.5327,83.7402,-184.4482,12.1460,462,929,0
23592344,1202,0.8779,-0.0195,-0.4980,83.8013,-194.2749,9.1553,462,931,0
23597343,1203,0.8516,-0.0718,-0.4595,82.5806,-203.1250,5.0049,480,908,0
23602350,1204,0.8140,-0.1167,-0.4297,78.2471,-211.9751,0.6104,464,896,0
23607344,1205,0.7842,-0.1289,-0.4150,70.2515,-220.8252,-1.8311,480,922,0
23612350,1206,0.7524,-0.1567,-0.4004,62.3779,-229.1870,-2.9907,470,917,0
23617352,1207,0.6958,-0.1753,-0.3809,53.0395,-237.4878,-4.5776,471,940,0
23622348,1208,0.6357,-0.1553,-0.3901,40.9546,-245.9106,-7.4463,476,865,0
23627345,1209,0.5815,-0.1230,-0.4521,30.3345,-255.4931,-9.8877,507,908,0
23632350,1210,0.5356,-0.0835,-0.5205,23.3765,-268.3716,-9.8877,480,926,0
23637348,1211,0.5088,-0.0459,-0.5322,19.8975,-283.0200,-7.2632,491,883,0
23642346,1212,0.4888,-0.0283,-0.4668,18.9819,-296.0205,-2.9907,471,795,0
23647345,1213,0.4624,-0.0176,-0.3398,18.3716,-306.8848,1.5869,487,897,0
23652344,1214,0.4502,-0.0005,-0.1733,17.7002,-315.7349,5.7373,480,895,0
23657344,1215,0.4570,0.0283,-0.0396,17.8833,-322.7539,8.7891,474,883,0
23662343,1216,0.4556,0.0483,0.0664,19.1040,-328.4912,10.3149,486,926,0
23667348,1217,0.4385,0.0840,0.2119,18.0054,-331.2988,10.2539,486,917,0
23672343,1218,0.4365,0.1191,0.3774,14.2212,-327.0263,9.2773,463,912,0
23677342,1219,0.4468,0.1289,0.4941,8.0566,-315.6128,7.0190,462,944,0
23682350,1220,0.4429,0.1450,0.5518,0.2441,-301.8188,5.7983,462,889,0
23687346,1221,0.4570,0.1504,0.5713,-8.4839,-288.0249,7.4463,479,887,0
23692350,1222,0.4536,0.1494,0.5757,-18.3105,-273.9868,8.8501,462,903,0
23697342,1223,0.4326,0.1533,0.5591,-27.8320,-261.7188,11.2915,480,919,0
23702348,1224,0.4014,0.1523,0.5059,-35.5225,-251.7700,14.8315,476,983,0
23707342,1225,0.3740,0.1592,0.4531,-41.3208,-243.7744,17.5781,475,946,0
23712346,1226,0.3374,0.1733,0.4341,-43.1519,-237.7930,18.6768,466,911,0
23717358,1227,0.3110,0.1987,0.4722,-41.3818,-232.4829,15.8691,466,909,0
23722346,1228,0.3154,0.2109,0.5205,-36.3159,-224.8535,10.3149,465,887,0
23727348,1229,0.3242,0.1934,0.5439,-29.0527,-214.8437,5.0659,500,910,0
23732344,1230,0.3315,0.1836,0.5771,-23.6816,-204.9560,2.1362,498,927,0
23737346,1231,0.3325,0.1831,0.6250,-19.9585,-194.4580,0.8545,491,913,0
23742346,1232,0.3457,0.1875,0.6733,-17.0288,-183.3496,0.1221,475,826,0
23747346,1233,0.3657,0.1968,0.7114,-15.7471,-173.4619,-0.1831,485,872,0
23752348,1234,0.3682,0.2261,0.7285,-17.0288,-164.9780,-0.4883,478,882,0
23757349,1235,0.3716,0.2612,0.7217,-18.7988,-158.5693,-1.5869,485,892,0
23762346,1236,0.3770,0.2817,0.7114,-20.1416,-156.4331,-3.7231,473,928,0
23767348,1237,0.3735,0.3140,0.6992,-21.7285,-157.3486,-7.8735,475,880,0
23772342,1238,0.3696,0.3389,0.6948,-21.6675,-159.5459,-12.0239,490,883,0
23777348,1239,0.3491,0.3486,0.7056,-20.9351,-161.6211,-15.3198,462,951,0
23782347,1240,0.3228,0.3696,0.7568,-20.8130,-163.4521,-18.0054,462,925,0
23787351,1241,0.3213,0.3940,0.8315,-19.8364,-165.7104,-20.2637,462,949,0
23792348,1242,0.3252,0.4126,0.9028,-16.2964,-169.4946,-22.8882,462,951,0
23797350,1243,0.3359,0.4414,0.9736,-11.0474,-173.5229,-25.5737,480,920,0
23802344,1244,0.3286,0.4946,1.0396,-4.4556,-178.2837,-28.5645,464,956,0
23807343,1245,0.3066,0.5864,1.1250,4.0894,-183.7158,-33.6304,465,951,0
23812346,1246,0.3071,0.6699,1.2266,15.2588,-187.2558,-42.6025,474,892,0
23817347,1247,0.3247,0.6924,1.3428,26.4893,-187.0727,-55.0537,478,951,0
23822342,1248,0.3481,0.7153,1.4688,32.3486,-183.8379,-69.2139,464,948,0
23827349,1249,0.3896,0.7559,1.6069,33.0811,-178.4668,-84.5337,500,970,0
23832348,1250,0.4424,0.7710,1.7266,32.5317,-170.1050,-98.0225,492,927,0
23837348,1251,0.4683,0.8130,1.8169,24.8413,-147.8882,-113.6475,491,911,0
23842343,1252,0.4434,0.8726,1.7896,18.8599,-137.5122,-117.2485,469,821,0
23847344,1253,0.4009,0.9360,1.7148,13.0615,-128.5400,-120.7886,484,903,0
23852342,1254,0.3501,0.9819,1.6235,8.5449,-122.9248,-126.0986,471,893,0
23857345,1255,0.3037,0.9839,1.5645,6.8970,-121.9482,-132.9346,481,916,0
23862347,1256,0.2612,0.9492,1.5674,7.1411,-124.9390,-139.9536,488,908,0
23867342,1257,0.2266,0.9067,1.6191,8.4229,-129.5776,-145.9351,485,890,0
23872347,1258,0.2007,0.8638,1.6865,12.6953,-134.3384,-150.8789,489,904,0
23877348,1259,0.1987,0.8145,1.7607,24.4751,-138.6108,-155.8228,462,919,0
23882361,1260,0.2158,0.7568,1.8286,45.5933,-143.2495,-162.3535,463,948,0
23887346,1261,0.2520,0.7007,1.8193,62.1948,-136.1084,-167.4194,462,966,0
23892347,1262,0.2202,0.6489,1.7739,58.4717,-87.1582,-167.4805,479,956,0
23897344,1263,0.1782,0.6489,1.8477,46.8750,-32.5928,-165.4053,472,959,0
23902349,1264,0.1724,0.6797,1.9536,47.3022,-10.1929,-166.4429,463,940,0
23907348,1265,0.1987,0.6895,1.9570,56.9458,-6.1646,-169.3725,463,925,0
23912350,1266,0.2114,0.6919,1.8779,65.3687,1.4648,-172.1802,470,977,0
23917349,1267,0.2056,0.7085,1.7837,67.4438,15.2588,-173.9502,474,924,0
23922370,1268,0.1982,0.7109,1.7090,66.6504,29.7852,-176.5747,479,905,0
23927345,1269,0.1851,0.6909,1.6294,64.7583,41.0767,-180.2978,466,944,0
23932350,1270,0.1792,0.6523,1.5479,61.5234,48.6450,-184.9975,480,900,0
23937345,1271,0.1724,0.5762,1.4692,56.8237,52.9175,-190.6128,464,933,0
23942343,1272,0.1377,0.4897,1.3818,48.5229,54.3213,-195.5566,490,955,0
23947343,1273,0.1011,0.4297,1.3076,36.1328,53.7109,-197.2656,473,869,0
23952350,1274,0.0547,0.3711,1.2681,24.1089,53.3447,-197.3877,488,921,0
23957344,1275,0.0693,0.2441,1.2329,16.6626,52.1240,-197.3266,489,890,0
23962350,1276,0.1221,0.0698,1.1992,11.6577,50.1099,-199.0356,490,919,0
23967343,1277,0.1255,-0.0288,1.1899,6.8359,47.6074,-199.2187,488,946,0
23972342,1278,0.1147,-0.0791,1.1533,6.9580,44.1894,-197.5708,490,888,0
23977346,1279,0.1006,-0.1089,1.0874,11.9629,40.6494,-195.8618,462,913,0
23982346,1280,0.0938,-0.1548,1.0488,20.1416,37.0483,-194.4580,463,955,0
23987345,1281,0.0967,-0.2188,1.0420,28.2593,35.2783,-192.5659,462,971,0
23992351,1282,0.1030,-0.2739,1.0264,34.6680,34.9731,-189.3310,479,979,0
23997350,1283,0.1016,-0.2925,0.9863,40.3442,34.2407,-185.9131,462,917,0
24002348,1284,0.0977,-0.2896,0.9453,45.6543,33.8135,-183.4106,480,935,0
24007345,1285,0.0811,-0.3086,0.9219,52.1240,35.4004,-181.7627,477,937,0
24012350,1286,0.0918,-0.3579,0.8911,59.1431,38.2690,-180.9692,464,977,0
24017345,1287,0.1133,-0.3970,0.8501,64.3311,39.7339,-181.2134,465,911,0
24022362,1288,0.1284,-0.4204,0.8247,67.2607,39.4897,-180.0537,474,933,0
24027346,1289,0.1294,-0.4556,0.8115,67.5659,40.0391,-177.6123,464,946,0
24032343,1290,0.1099,-0.5093,0.7847,63.9648,41.4429,-174.1333,506,892,0
24037345,1291,0.0742,-0.5591,0.7520,56.4575,42.2363,-170.2881,462,935,0
24042347,1292,0.0449,-0.5874,0.6899,46.9360,41.3818,-166.8091,491,922,0
24047345,1293,0.0322,-0.6099,0.6035,37.6587,38.5742,-163.3301,477,952,0
24052349,1294,0.0239,-0.6387,0.5337,28.9917,32.8979,-159.0576,487,892,0
24057348,1295,0.0186,-0.6597,0.4897,21.7285,24.5361,-154.1748,471,886,0
24062349,1296,0.0190,-0.6860,0.4746,19.0430,14.6484,-148.9868,480,924,0
24067350,1297,0.0332,-0.7100,0.4961,21.7285,4.5166,-145.0806,478,918,0
24072345,1298,0.0303,-0.7573,0.5454,26.3672,-3.8452,-141.9678,485,899,0
24077348,1299,0.0063,-0.7949,0.6035,29.0527,-8.9722,-137.9395,490,875,0
24082342,1300,-0.0098,-0.8315,0.6719,29.2358,-11.8408,-133.0566,463,930,0
24087346,1301,-0.0015,-0.8789,0.7446,27.6489,-13.1226,-127.4414,463,920,0
24092345,1302,0.0195,-0.9380,0.7979,26.1841,-12.3901,-120.9106,462,926,0
24097343,1303,0.0137,-0.9839,0.8276,23.6206,-9.8267,-113.1592,462,952,0
24102344,1304,-0.0024,-1.0166,0.8457,19.1040,-6.1035,-104.3701,480,937,0
24107345,1305,-0.0010,-1.0459,0.8574,13.6108,-3.1128,-94.9707,464,890,0
24112346,1306,-0.0093,-1.0942,0.8760,8.9722,-2.1362,-85.0830,477,923,0
24117344,1307,-0.0366,-1.1587,0.9023,5.7373,-3.0518,-74.7681,478,874,0
24122346,1308,-0.0659,-1.2012,0.9292,0.9766,-1.8921,-64.1479,467,907,0
24127347,1309,-0.0889,-1.2251,0.9565,-4.8218,1.8921,-53.7720,471,856,0
24132344,1310,-0.0996,-1.2559,0.9775,-10.3760,6.4697,-44.0674,471,863,0
24137350,1311,-0.1006,-1.3091,0.9922,-18.6157,13.2446,-34.7290,503,886,0
24142342,1312,-0.0938,-1.3706,1.0034,-28.3203,22.5220,-25.0854,473,903,0
24147342,1313,-0.0854,-1.4219,1.0283,-40.1001,30.5786,-13.7329,464,975,0
24152350,1314,-0.0776,-1.4492,1.0664,-52.1240,35.1562,0.4883,482,855,0
24157350,1315,-0.0684,-1.4619,1.0830,-62.2559,36.6211,17.5781,485,918,0
24162345,1316,-0.0664,-1.4624,1.0811,-70.6177,36.8042,35.5225,473,907,0
24167346,1317,-0.0664,-1.4414,1.0591,-78.7964,38.1470,52.6733,488,889,0
24172342,1318,-0.0635,-1.4292,1.0317,-85.4492,41.2598,67.5049,488,940,0
24177350,1319,-0.0713,-1.4258,1.0073,-91.0034,45.5933,80.6274,490,916,0
24182350,1320,-0.0854,-1.4102,0.9985,-96.5576,50.7812,93.8110,462,946,0
24187348,1321,-0.0913,-1.3965,1.0093,-99.9145,56.1523,107.5439,462,953,0
24192345,1322,-0.0845,-1.3760,1.0249,-100.5249,61.3403,121.0327,462,959,0
24197347,1323,-0.0674,-1.3403,1.0234,-98.3276,67.1997,134.4604,479,930,0
24202344,1324,-0.0581,-1.2856,1.0112,-93.9331,73.1812,146.8506,466,920,0
24207343,1325,-0.0625,-1.2349,1.0020,-87.7075,78.3691,157.6538,463,934,0
24212349,1326,-0.0693,-1.1860,1.0000,-81.6650,83.2519,167.4194,465,912,0
24217344,1327,-0.0620,-1.1152,1.0063,-77.8198,88.9282,176.6968,463,968,0
24222342,1328,-0.0396,-1.0435,1.0347,-75.3174,96.0693,185.9741,473,916,0
24227356,1329,-0.0093,-0.9727,1.0396,-71.0449,105.4687,195.3125,479,907,0
24232345,1330,0.0068,-0.8853,0.9966,-67.3828,116.2109,203.9795,471,944,0
24237346,1331,0.0229,-0.8066,0.9360,-64.0869,124.8779,210.9375,492,901,0
24242342,1332,0.0132,-0.7339,0.8940,-58.8989,129.1504,215.6372,463,909,0
24247342,1333,-0.0161,-0.6782,0.8750,-52.3682,128.6621,219.3603,491,921,0
24252350,1334,-0.0259,-0.6406,0.8452,-47.7905,127.5024,223.8159,482,821,0
24257348,1335,-0.0352,-0.5991,0.8037,-46.7529,127.5635,229.4311,482,867,0
24262349,1336,-0.0444,-0.5537,0.7598,-45.8984,127.5024,235.7788,474,948,0
24267346,1337,-0.0586,-0.5146,0.7119,-45.9595,126.0986,241.8213,482,909,0
24272349,1338,-0.0825,-0.4541,0.7026,-47.9736,123.5962,248.6572,487,905,0
24277349,1339,-0.0894,-0.3555,0.7134,-50.4761,123.1079,256.2256,469,910,0
24282346,1340,-0.0693,-0.2217,0.6934,-54.1992,124.3286,261.6577,490,887,0
24287343,1341,-0.0376,-0.0718,0.6646,-59.3262,124.0234,264.9536,463,960,0
24292349,1342,-0.0166,0.0527,0.6724,-65.6128,122.4976,266.0522,462,923,0
24297342,1343,0.0176,0.1963,0.7002,-76.2329,123.5351,264.0381,479,948,0
24302345,1344,0.0605,0.3262,0.7241,-91.4917,128.8452,259.7656,462,911,0
24307350,1345,0.1001,0.3794,0.7671,-109.0698,136.5967,255.4321,480,950,0
24312346,1346,0.1250,0.3960,0.7959,-130.0049,146.5454,253.5400,464,939,0
24317345,1347,0.1401,0.4468,0.7520,-150.0854,155.5786,255.3711,472,945,0
24322348,1348,0.1841,0.4717,0.6265,-161.1328,159.6680,260.9863,464,911,0
24327348,1349,0.1963,0.4399,0.4604,-160.9497,157.4707,264.2822,464,907,0
24332342,1350,0.1646,0.3799,0.3228,-151.4893,147.0947,263.4888,469,943,0
24337343,1351,0.1187,0.3257,0.2148,-137.1460,131.1646,259.7656,505,895,0
24342342,1352,0.0884,0.2471,0.1250,-114.0137,111.8774,253.3569,462,931,0
24347347,1353,0.0698,0.1948,0.0811,-88.6230,91.3086,244.4458,491,962,0
24352343,1354,0.0884,0.1831,0.1079,-66.2842,72.5098,234.6191,473,856,0
24357342,1355,0.1104,0.2314,0.1943,-44.3115,56.6406,221.4966,489,921,0
24362348,1356,0.1426,0.2969,0.2974,-22.5830,45.0439,207.0312,480,902,0
24367348,1357,0.1562,0.3701,0.4160,-8.2397,39.3677,192.9931,488,924,0
24372345,1358,0.1611,0.4717,0.5454,-6.0425,39.6118,180.9692,473,938,0
24377345,1359,0.1860,0.5874,0.6416,-13.7939,44.6777,173.6450,483,906,0
24382345,1360,0.2202,0.7012,0.7007,-29.2969,50.9033,172.6684,462,908,0
24387346,1361,0.2417,0.8315,0.7563,-49.3164,54.9316,174.8047,462,946,0
24392345,1362,0.2534,0.9243,0.7769,-68.9087,59.6313,178.1616,462,962,0
24397345,1363,0.2515,0.9570,0.7627,-89.1113,64.2700,181.0303,479,927,0
24402344,1364,0.2319,0.9478,0.7446,-112.1826,67.8101,183.8989,462,918,0
24407348,1365,0.2090,0.9204,0.7153,-136.9019,71.2280,188.1103,480,959,0
24412350,1366,0.1943,0.8662,0.6538,-157.8979,72.2656,193.4204,475,833,0
24417346,1367,0.1660,0.7456,0.5718,-171.7529,68.9087,202.3315,479,952,0
24422346,1368,0.1123,0.6504,0.4673,-178.0395,60.6689,215.8203,472,946,0
24427362,1369,0.0581,0.6289,0.3140,-170.7153,48.4009,227.2949,479,955,0
24432347,1370,0.0610,0.5942,0.1299,-145.8740,32.8979,230.5908,471,885,0
24437343,1371,0.1118,0.5566,-0.0015,-111.5112,16.6016,227.0508,492,932,0
24442346,1372,0.1538,0.5532,-0.0195,-73.6694,2.8687,217.6514,462,915,0
24447342,1373,0.1987,0.5806,0.0415,-32.8979,-4.2725,203.0029,490,908,0
24452344,1374,0.2520,0.6099,0.1177,6.0425,-4.2114,185.2417,491,806,0
24457342,1375,0.2993,0.6465,0.2183,38.3301,1.6479,166.9311,479,858,0
24462345,1376,0.3281,0.7007,0.3174,60.3638,8.6060,149.7803,471,898,0
24467343,1377,0.3442,0.8159,0.3960,65.0024,15.5640,140.0757,481,892,0
24472342,1378,0.3579,0.9316,0.4707,66.7114,21.6064,135.4980,486,883,0
24477345,1379,0.3745,0.9971,0.5342,63.2324,25.2075,133.6060,490,921,0
24482344,1380,0.3833,1.0298,0.5825,55.2368,26.7334,135.2539,462,944,0
24487347,1381,0.3882,1.0654,0.6108,37.1094,27.6489,140.8081,462,956,0
24492350,1382,0.3940,1.1055,0.6294,19.2261,29.6631,146.7896,462,940,0
24497348,1383,0.3945,1.1157,0.6245,3.2349,31.3110,150.2686,462,906,0
24502344,1384,0.4033,1.1143,0.6055,-13.0005,31.8603,153.0151,479,905,0
24507347,1385,0.4170,1.0957,0.6060,-26.4893,31.5552,153.6865,464,826,0
24512349,1386,0.4395,1.0640,0.6460,-39.2456,31.3110,153.0151,464,947,0
24517343,1387,0.4570,1.0493,0.6816,-50.6592,33.1421,151.8555,467,999,0
24522342,1388,0.4727,1.0435,0.6943,-59.3262,38.2080,149.7192,479,937,0
24527348,1389,0.4883,1.0415,0.6797,-66.2842,45.1660,146.8506,466,866,0
24532342,1390,0.5103,1.0439,0.6562,-72.0215,52.8564,144.4702,464,893,0
24537344,1391,0.5024,1.0415,0.6406,-75.6226,61.1572,140.5029,479,925,0
24542349,1392,0.5039,1.0415,0.6558,-77.1484,70.0684,137.5122,481,943,0
24547345,1393,0.5171,1.0122,0.6719,-78.0640,77.5146,137.2681,463,908,0
24552342,1394,0.4595,0.9365,0.5845,-80.8716,81.3599,142.5781,484,897,0
24557346,1395,0.4985,1.0400,0.5513,-82.0312,73.3643,157.4097,481,890,0
24562343,1396,0.5664,1.0708,0.5991,-51.6357,65.8569,161.2549,488,912,0
24567350,1397,0.5962,1.1016,0.5483,-29.2358,69.7021,157.3486,483,927,0
24572345,1398,0.6016,1.1694,0.4907,-13.2446,76.1719,148.8647,476,917,0
24577342,1399,0.5845,1.2056,0.4639,4.4556,80.0781,137.2070,489,888,0
24582348,1400,0.5737,1.2529,0.4546,15.6250,81.4209,124.6338,462,887,0
24587342,1401,0.5552,1.3013,0.4521,20.3247,80.7495,111.2060,462,929,0
24592349,1402,0.5215,1.3340,0.4438,19.7144,77.7588,97.9004,479,926,0
24597345,1403,0.5068,1.3730,0.4331,17.1509,72.6929,86.3647,462,904,0
24602348,1404,0.5151,1.4331,0.4282,13.3667,67.1387,76.5991,480,930,0
24607348,1405,0.5479,1.5049,0.4380,8.2397,61.9507,68.1152,469,938,0
24612342,1406,0.5894,1.5605,0.4834,5.3101,57.3730,62.4390,475,954,0
24617343,1407,0.5938,1.5903,0.5366,2.6245,54.5654,58.0444,467,897,0
24622347,1408,0.5913,1.6270,0.5630,-1.6479,53.2837,54.0161,473,940,0
24627349,1409,0.5947,1.6445,0.5688,-5.6763,51.6357,49.3774,478,888,0
24632342,1410,0.6133,1.6577,0.5703,-10.8643,48.4619,44.4946,504,897,0
24637350,1411,0.6313,1.6567,0.5781,-18.3716,44.3726,40.1001,468,906,0
24642346,1412,0.6172,1.6714,0.5898,-27.6489,40.1001,37.1094,485,904,0
24647342,1413,0.6011,1.7080,0.6016,-34.7290,35.9497,34.3628,462,899,0
24652346,1414,0.5400,1.7729,0.4712,-45.1050,31.8603,29.4800,473,897,0
24657342,1415,0.5200,1.9121,0.3232,-76.1108,12.5122,17.9443,480,892,0
24662350,1416,0.6143,1.8315,0.5430,-66.9556,-15.0146,0.0610,475,917,0
24667350,1417,0.6641,1.7124,0.7485,-40.0391,-19.8975,-9.2163,479,897,0
24672343,1418,0.7002,1.6396,0.7241,-25.9399,-5.1270,-12.0239,486,886,0
24677350,1419,0.7319,1.6465,0.6357,-23.1323,10.6201,-15.1978,490,878,0
24682349,1420,0.7085,1.6919,0.6309,-19.9585,19.4702,-24.0478,462,926,0
24687346,1421,0.6626,1.7168,0.6606,-10.0098,22.5220,-38.7573,463,931,0
24692348,1422,0.6348,1.7383,0.6807,2.0752,23.3765,-54.9316,479,903,0
24697350,1423,0.6265,1.7588,0.6841,13.4277,23.9258,-68.0542,462,929,0
24702344,1424,0.6084,1.7661,0.6841,22.5830,24.5361,-76.7822,480,931,0
24707344,1425,0.5820,1.7896,0.7026,27.1606,25.6958,-83.4351,463,917,0
24712348,1426,0.5659,1.7974,0.7373,29.7241,28.4424,-90.5151,472,976,0
24717342,1427,0.5562,1.7915,0.7773,30.5176,33.6914,-97.9614,477,916,0
24722350,1428,0.5444,1.7744,0.8154,30.2734,41.3818,-105.1636,467,940,0
24727350,1429,0.5273,1.7334,0.8286,30.0293,52.0630,-112.3657,467,887,0
24732344,1430,0.4932,1.6890,0.8174,29.4189,65.7349,-119.7510,495,909,0
24737343,1431,0.4697,1.6289,0.7949,28.8696,80.6885,-127.9297,481,947,0
24742349,1432,0.4585,1.5889,0.7739,26.0010,94.2993,-135.6201,464,963,0
24747344,1433,0.4429,1.5874,0.7822,22.8882,104.1260,-143.3716,476,824,0
24752343,1434,0.4526,1.5527,0.8110,26.1230,110.8398,-152.7710,473,938,0
24757349,1435,0.4688,1.4814,0.8394,32.0435,116.9434,-163.7573,489,929,0
24762343,1436,0.4751,1.3989,0.8647,36.4990,123.2910,-173.8891,475,951,0
24767344,1437,0.4800,1.3267,0.8882,38.4521,129.6387,-181.9458,490,933,0
24772343,1438,0.4800,1.2627,0.9019,38.8794,135.5591,-188.5376,489,890,0
24777349,1439,0.4570,1.1221,0.8047,37.0483,142.3950,-199.3408,463,941,0
24782348,1440,0.4165,1.0591,0.7319,35.7666,139.8315,-202.5757,462,916,0
24787343,1441,0.3779,0.9868,0.6699,35.8276,133.6670,-204.4067,462,922,0
24792342,1442,0.3486,0.9248,0.6187,36.6821,126.4648,-205.8716,462,953,0
24797346,1443,0.3398,0.8740,0.5908,39.7339,119.9341,-207.3364,481,931,0
24802346,1444,0.3394,0.8193,0.5972,45.3491,114.8071,-207.3364,464,917,0
24807345,1445,0.3296,0.7603,0.6138,51.3916,111.8774,-205.6885,463,935,0
24812347,1446,0.3008,0.7222,0.6255,56.7627,110.7788,-203.1250,474,1000,0
24817347,1447,0.2681,0.7021,0.6509,63.0493,110.1074,-201.4160,478,922,0
24822366,1448,0.2568,0.6646,0.6938,70.8008,110.2295,-201.8432,466,943,0
24827343,1449,0.2495,0.5894,0.7388,77.8809,112.7319,-202.8808,476,901,0
24832345,1450,0.2383,0.5093,0.7583,82.8857,117.4316,-202.2095,480,905,0
24837348,1451,0.2280,0.4443,0.7471,84.8389,123.4741,-200.2563,491,959,0
24842346,1452,0.2075,0.3921,0.7124,86.6699,129.9438,-198.1201,466,962,0
24847345,1453,0.1841,0.3589,0.6758,88.6230,135.0098,-196.0449,470,825,0
24852343,1454,0.1724,0.3120,0.6416,88.3789,138.7329,-194.0307,483,918,0
24857344,1455,0.1553,0.2593,0.6040,84.2895,141.9678,-191.5283,476,928,0
24862347,1456,0.1299,0.2256,0.5649,76.4160,144.1650,-188.2934,489,927,0
24867345,1457,0.1040,0.1870,0.5171,68.1763,144.1650,-184.3872,473,923,0
24872342,1458,0.1060,0.1426,0.4570,59.3262,141.6626,-180.1758,490,914,0
24877343,1459,0.1167,0.0874,0.3813,50.9033,137.8174,-175.5981,462,947,0
24882347,1460,0.1147,0.0400,0.3076,42.9077,132.7515,-170.3491,463,956,0
24887346,1461,0.0908,0.0137,0.2437,36.8042,126.5869,-164.9780,479,955,0
24892342,1462,0.1265,-0.0239,0.1899,33.5083,120.1172,-160.5835,462,950,0
24897351,1463,0.1445,-0.0518,0.1455,32.7759,112.9150,-157.2266,480,936,0
24902348,1464,0.1387,-0.0654,0.1226,33.9355,104.1870,-152.0386,464,940,0
24907346,1465,0.1406,-0.1074,0.1123,36.3159,96.0693,-146.6675,470,945,0
24912343,1466,0.1611,-0.1636,0.0918,37.7808,91.1865,-142.8833,479,999,0
24917350,1467,0.1792,-0.2432,0.0771,38.2690,86.0596,-137.8784,465,905,0
24922364,1468,0.1821,-0.3477,0.0742,40.4663,77.8809,-127.0752,465,866,0
24927347,1469,0.2085,-0.4326,0.1064,44.8608,67.6880,-110.5957,475,898,0
24932344,1470,0.3081,-0.4849,0.1665,47.3022,62.3169,-93.4448,506,901,0
24937347,1471,0.4302,-0.4824,0.2041,45.3491,64.3921,-77.9419,487,955,0
24942345,1472,0.4985,-0.4243,0.1895,40.9546,71.5942,-64.8193,463,936,0
24947347,1473,0.5171,-0.3613,0.1279,38.8184,79.8340,-53.9551,473,859,0
24952347,1474,0.5205,-0.3242,0.0498,39.4287,89.2334,-46.8140,477,889,0
24957342,1475,0.5298,-0.2944,0.0127,40.2832,98.9990,-41.8701,486,920,0
24962343,1476,0.5410,-0.2759,0.0117,39.6118,108.3374,-37.4756,476,919,0
24967342,1477,0.5469,-0.2578,0.0176,36.2549,116.8213,-32.2876,481,939,0
24972349,1478,0.5532,-0.2324,-0.0054,30.6396,122.7417,-27.0996,486,882,0
24977345,1479,0.5757,-0.2031,-0.0498,24.4751,124.8169,-22.1558,489,896,0
24982348,1480,0.6069,-0.1704,-0.1069,20.6299,124.2065,-17.6392,462,921,0
24987342,1481,0.6440,-0.1538,-0.1514,18.7988,122.1313,-14.2212,463,918,0
24992343,1482,0.6812,-0.1514,-0.1665,17.1509,120.4834,-10.5591,478,957,0
24997350,1483,0.7051,-0.1577,-0.1738,15.1978,120.1172,-6.1035,462,942,0
25002349,1484,0.7197,-0.1670,-0.1870,11.1084,121.2158,-0.9155,480,898,0
25007346,1485,0.7334,-0.1479,-0.2129,3.6621,122.9858,5.5542,464,932,0
25012347,1486,0.7568,-0.1123,-0.2422,-3.5400,124.3896,12.2681,465,953,0
25017342,1487,0.7852,-0.0894,-0.2812,-8.2397,124.4507,18.1885,468,999,0
25022346,1488,0.8101,-0.0713,-0.3223,-11.7798,122.1313,23.4375,478,925,0
25027359,1489,0.8374,-0.0566,-0.3525,-15.0146,117.6758,27.8320,464,939,0
25032347,1490,0.8716,-0.0610,-0.3691,-16.7236,112.3047,31.1279,474,886,0
25037350,1491,0.9004,-0.0723,-0.3643,-17.5781,108.0933,32.5928,507,934,0
25042342,1492,0.9136,-0.0688,-0.3481,-18.7988,105.8350,31.9824,482,931,0
25047346,1493,0.9150,-0.0562,-0.3369,-18.9819,103.8208,29.9072,490,952,0
25052343,1494,0.9146,-0.0537,-0.3340,-19.3481,100.6470,27.8320,478,815,0
25057347,1495,0.9243,-0.0381,-0.3354,-19.7754,96.6797,26.7944,489,900,0
25062342,1496,0.9307,-0.0039,-0.3672,-20.1416,91.6138,25.9399,473,915,0
25067342,1497,0.9321,0.0361,-0.4224,-20.3247,84.9609,24.6582,486,884,0
25072343,1498,0.9463,0.0767,-0.4517,-18.0664,77.1484,22.5220,474,897,0
25077349,1499,0.9810,0.1201,-0.4526,-14.3433,70.3735,19.1040,472,904,0
25082346,1500,1.0151,0.1382,-0.4331,-3.6011,66.5894,13.6719,490,905,0
25087364,1501,1.0361,0.1118,-0.3906,10.1318,65.9180,7.6904,463,926,0
25092342,1502,1.0527,0.0762,-0.3286,19.0430,68.7866,2.1973,462,932,0
25097345,1503,1.0562,0.0527,-0.3062,19.9585,74.3408,-2.8076,462,920,0
25102347,1504,1.0527,0.0327,-0.3853,8.8501,76.9653,-7.8735,476,906,0
25107348,1505,1.0161,0.0918,-0.3750,-12.3291,70.1904,-12.7563,463,806,0
25112349,1506,0.9878,0.1689,-0.2666,-15.1978,64.8193,-16.3574,468,913,0
25117344,1507,1.0088,0.1904,-0.2529,-17.0288,63.5376,-19.8975,472,977,0
25122342,1508,1.0132,0.2671,-0.1709,-11.9019,60.6079,-19.0430,464,933,0
25127343,1509,1.0415,0.2598,-0.1890,-7.4463,63.9038,-16.1743,470,921,0
25132346,1510,1.0420,0.2764,-0.2217,-15.6250,67.2607,-13.0615,476,882,0
25137343,1511,1.0220,0.2959,-0.1855,-19.7754,69.5801,-8.8501,499,926,0
25142344,1512,1.0234,0.2773,-0.1851,-24.5972,72.9370,-4.5166,467,908,0
25147342,1513,1.0176,0.2627,-0.1763,-31.6772,75.0122,-0.8545,489,929,0
25152342,1514,1.0049,0.2456,-0.1323,-36.8042,78.1860,1.7090,463,820,0
25157348,1515,1.0195,0.2065,-0.1426,-40.2222,84.7168,2.6245,474,889,0
25162349,1516,1.0352,0.1694,-0.2197,-42.3584,90.7593,1.0376,483,876,0
25167347,1517,1.0503,0.1265,-0.2803,-44.1284,94.6045,-2.9907,471,903,0
25172343,1518,1.0518,0.0850,-0.2764,-44.6777,98.3276,-7.4463,486,898,0
25177348,1519,1.0376,0.0825,-0.2495,-45.2270,103.6377,-12.1460,489,905,0
25182349,1520,1.0244,0.0879,-0.2280,-45.8374,109.8022,-17.0898,490,928,0
25187352,1521,1.0107,0.0508,-0.2051,-47.8516,116.3330,-21.8506,463,948,0
25192342,1522,0.9980,0.0322,-0.1777,-54.3213,121.3379,-25.5737,463,915,0
25197346,1523,1.0005,0.0278,-0.1880,-64.0259,125.9766,-28.9307,479,931,0
25202348,1524,0.9976,0.0352,-0.2368,-75.9277,129.5166,-31.6772,470,911,0
25207342,1525,0.9932,0.0469,-0.3008,-86.4868,130.0049,-32.1655,463,938,0
25212344,1526,0.9878,0.0620,-0.3818,-93.6890,127.9907,-30.7007,472,928,0
25217345,1527,0.9805,0.0737,-0.4570,-97.1069,124.3286,-27.8931,477,978,0
25222349,1528,0.9668,0.0649,-0.4961,-96.3135,119.2017,-24.2310,464,921,0
25227342,1529,0.9521,0.0576,-0.5010,-93.6890,113.6475,-20.4468,466,917,0
25232346,1530,0.9541,0.0405,-0.5039,-91.4307,109.5581,-17.5171,479,906,0
25237342,1531,0.9556,0.0171,-0.5112,-90.2710,106.5063,-14.7095,500,924,0
25242344,1532,0.9521,0.0049,-0.5161,-89.7827,102.9663,-10.3149,470,916,0
25247346,1533,0.9434,-0.0112,-0.5542,-87.7075,98.5718,-4.6997,491,959,0
25252344,1534,0.9419,-0.0376,-0.5859,-85.0220,91.4917,1.3428,464,839,0
25257343,1535,0.9478,-0.0625,-0.5825,-84.7778,84.7168,8.4229,477,869,0
25262350,1536,0.9624,-0.0605,-0.5586,-87.1582,79.5288,18.0054,470,876,0
25267346,1537,0.9434,-0.0732,-0.5830,-88.9893,76.5381,27.9541,475,906,0
25272345,1538,0.9805,-0.1265,-0.6763,-89.7827,74.2798,36.9873,489,881,0
25277345,1539,0.9810,-0.1416,-0.7354,-93.2007,69.8853,47.9126,490,880,0
25282348,1540,0.9731,-0.1548,-0.7256,-94.2993,63.2324,63.1714,490,911,0
25287342,1541,0.9502,-0.1851,-0.7070,-94.1162,53.5889,71.5332,462,956,0
25292348,1542,0.9375,-0.1855,-0.7446,-94.5434,48.6450,75.8667,462,942,0
25297347,1543,0.8975,-0.1943,-0.7842,-94.3603,48.0957,79.8340,462,953,0
25302344,1544,0.9033,-0.2422,-0.7979,-94.2383,49.6826,82.2143,480,942,0
25307343,1545,0.9263,-0.2803,-0.7607,-96.1304,51.8799,84.4116,464,916,0
25312345,1546,0.9194,-0.2910,-0.7104,-96.2524,50.6592,87.4634,463,947,0
25317347,1547,0.9048,-0.2827,-0.6968,-93.4448,47.1191,90.5151,466,1000,0
25322350,1548,0.8872,-0.2686,-0.7036,-89.7217,41.4429,92.1631,470,923,0
25327346,1549,0.8750,-0.2456,-0.7217,-85.2051,34.5459,91.4917,476,919,0
25332350,1550,0.8706,-0.2261,-0.7295,-80.9326,27.7710,89.1113,464,922,0
25337348,1551,0.8711,-0.2021,-0.7183,-78.0640,22.2778,86.4868,505,930,0
25342343,1552,0.8667,-0.1792,-0.6987,-75.3174,18.1885,85.2661,472,942,0
25347344,1553,0.8608,-0.1611,-0.6909,-72.6929,14.8315,85.6323,463,939,0
25352342,1554,0.8511,-0.1567,-0.6841,-68.8477,11.5356,87.7075,469,848,0
25357344,1555,0.8257,-0.1567,-0.6768,-63.9648,8.3008,91.2476,479,916,0
25362349,1556,0.8223,-0.1572,-0.6743,-59.0820,5.9204,94.8486,487,903,0
25367347,1557,0.8438,-0.1611,-0.6646,-55.6641,5.0049,97.4121,490,912,0
25372345,1558,0.8511,-0.1831,-0.6421,-53.7109,4.5166,99.8535,483,931,0
25377349,1559,0.8384,-0.1929,-0.6245,-52.9785,3.7231,102.4780,487,908,0
25382344,1560,0.8276,-0.1802,-0.6343,-52.3071,2.1362,104.7363,490,885,0
25387357,1561,0.8145,-0.1548,-0.6621,-51.2695,-0.9766,106.2622,462,912,0
25392349,1562,0.8027,-0.1294,-0.6938,-48.7061,-4.8218,106.9946,462,936,0
25397349,1563,0.8008,-0.1265,-0.6968,-43.7622,-7.9956,106.5674,479,909,0
25402344,1564,0.7871,-0.1372,-0.6782,-38.3911,-7.9956,106.6284,466,937,0
25407343,1565,0.7700,-0.1484,-0.6787,-32.9590,-5.1270,107.6050,463,907,0
25412349,1566,0.7607,-0.1528,-0.6841,-28.6865,-1.5869,109.3750,464,933,0
25417344,1567,0.7515,-0.1396,-0.6929,-25.8179,1.0376,112.1826,464,975,0
25422344,1568,0.7373,-0.1255,-0.7202,-22.7661,2.1973,115.2344,472,928,0
25427345,1569,0.7256,-0.1250,-0.7559,-18.9209,0.9155,118.1641,477,905,0
25432366,1570,0.7134,-0.1440,-0.7920,-13.4277,-3.1128,121.2768,479,877,0
25437346,1571,0.7026,-0.1621,-0.8159,-5.9814,-8.4229,124.9390,462,928,0
25442350,1572,0.6924,-0.1509,-0.8477,4.6997,-14.2212,128.6011,507,881,0
25447345,1573,0.6885,-0.1201,-0.8765,18.5547,-20.5688,130.8594,481,897,0
25452350,1574,0.6797,-0.1030,-0.8794,33.2642,-27.2217,131.3477,491,907,0
25457344,1575,0.6694,-0.0859,-0.8491,47.1802,-33.6914,130.7373,474,815,0
25462345,1576,0.6709,-0.0488,-0.7808,58.1665,-39.5508,129.9438,488,898,0
25467342,1577,0.6743,-0.0020,-0.7231,67.5659,-44.4946,129.9438,472,882,0
25472344,1578,0.6650,0.0454,-0.7041,75.4395,-50.3540,129.2114,485,921,0
25477346,1579,0.6504,0.0752,-0.6895,81.4819,-57.9224,126.2817,469,936,0
25482343,1580,0.6328,0.1079,-0.6641,87.0972,-66.4673,123.1689,489,896,0
25487343,1581,0.6284,0.1621,-0.6362,93.6890,-74.2188,121.0937,490,919,0
25492352,1582,0.6465,0.2129,-0.6260,102.1118,-79.0405,118.1641,463,989,0
25497345,1583,0.6675,0.2549,-0.6187,110.2295,-80.0171,112.7319,462,919,0
25502346,1584,0.6685,0.2715,-0.5815,114.8071,-76.9653,106.3232,479,946,0
25507346,1585,0.6514,0.2646,-0.5234,113.5864,-70.8008,103.3325,466,959,0
25512345,1586,0.6392,0.2524,-0.4741,107.6050,-64.5752,106.0791,481,917,0
25517346,1587,0.6338,0.2358,-0.4473,97.7783,-60.7300,113.5254,480,939,0
25522347,1588,0.6108,0.2295,-0.4678,86.9141,-61.4624,124.3896,479,957,0
25527346,1589,0.5903,0.2441,-0.5459,81.4819,-68.7866,136.0474,464,916,0
25532342,1590,0.6235,0.2427,-0.6548,84.7778,-82.0923,144.8364,468,909,0
25537363,1591,0.6182,0.2500,-0.7119,91.8579,-99.7925,150.8789,477,943,0
25542343,1592,0.5620,0.2461,-0.7231,103.3325,-115.7226,156.1279,479,900,0
25547349,1593,0.5024,0.2163,-0.7344,115.7837,-126.4038,157.9590,506,947,0
25552350,1594,0.4619,0.2041,-0.7466,127.3804,-134.8267,156.4331,463,931,0
25557345,1595,0.4214,0.2104,-0.7568,141.6626,-143.0054,153.6255,491,924,0
25562344,1596,0.3716,0.2378,-0.7500,159.1797,-152.5269,149.2920,466,810,0
25567343,1597,0.3525,0.3008,-0.7070,179.1382,-163.5742,143.0054,474,918,0
25572349,1598,0.3892,0.4038,-0.6455,200.5005,-173.4009,133.7891,484,924,0
25577346,1599,0.4268,0.5078,-0.5361,221.4355,-181.2744,123.4131,484,916,0
25582349,1600,0.4624,0.5938,-0.3301,233.0322,-184.0210,113.6475,487,938,0
25587349,1601,0.4697,0.6445,-0.0952,232.6050,-178.8330,106.0791,490,959,0
25592347,1602,0.4473,0.6260,0.1089,220.7641,-169.2505,105.7129,490,934,0
25597349,1603,0.4326,0.5742,0.2842,196.0449,-159.1187,113.8916,462,956,0
25602345,1604,0.4111,0.5552,0.3872,164.1846,-152.2827,128.6011,462,931,0
25607344,1605,0.3960,0.5713,0.3442,135.5591,-152.6489,145.1416,479,953,0
25612347,1606,0.3779,0.5981,0.1665,118.7744,-162.9639,158.5083,462,920,0
25617343,1607,0.3320,0.6162,-0.0654,118.7134,-180.7861,166.5649,480,969,0
25622350,1608,0.2705,0.6069,-0.2422,133.1177,-200.0732,169.9219,464,932,0
25627351,1609,0.1978,0.5659,-0.3179,154.4800,-211.8530,168.7012,475,924,0
25632345,1610,0.1455,0.5088,-0.3438,178.1006,-215.4541,163.6352,478,970,0
25637345,1611,0.1138,0.4385,-0.3276,203.0639,-216.9189,155.0293,464,1044,0
25642345,1612,0.0718,0.3984,-0.2822,226.5625,-220.9473,145.1416,471,956,0
25647357,1613,0.0386,0.3882,-0.2178,248.7793,-228.5766,136.5356,473,884,0
25652350,1614,0.0312,0.4341,-0.1191,265.8081,-238.2202,128.6621,480,941,0
25657348,1615,0.0122,0.5322,0.0073,275.5127,-247.4365,122.5586,506,958,0
25662343,1616,-0.0156,0.6396,0.1172,279.6021,-256.1035,118.6523,481,962,0
25667347,1617,-0.0269,0.7056,0.1699,280.5786,-265.3198,116.5771,464,840,0
25672344,1618,-0.0518,0.7661,0.3335,272.9492,-289.0015,120.9106,480,830,0
25677343,1619,-0.0537,0.8037,0.4619,265.8691,-298.9502,124.1455,473,930,0
25682349,1620,-0.0576,0.8457,0.6191,256.4697,-305.6030,126.7700,483,898,0
25687348,1621,-0.0684,0.8662,0.7769,249.2676,-308.5938,128.4790,476,926,0
25692345,1622,-0.0801,0.8687,0.8765,243.4692,-307.6782,127.7466,483,929,0
25697347,1623,-0.0557,0.8687,0.8940,239.3188,-303.9551,123.2300,488,894,0
25702347,1624,-0.0386,0.8672,0.8994,237.4878,-299.0112,113.4643,463,927,0
25707343,1625,-0.0234,0.8687,0.9326,238.4643,-290.8936,101.7456,463,930,0
25712346,1626,-0.0483,0.8345,0.9692,240.5395,-277.8931,88.9282,479,957,0
25717345,1627,-0.0640,0.7402,1.0117,239.5019,-260.6812,76.1108,462,925,0
25722345,1628,-0.0903,0.6978,1.0361,228.4546,-239.7461,64.2090,480,945,0
25727350,1629,-0.1113,0.7339,1.0239,212.9516,-218.6889,57.1899,464,939,0
25732346,1630,-0.1060,0.7524,0.9707,202.2095,-204.4678,53.1616,463,940,0
25737345,1631,-0.1304,0.7163,0.9390,194.3970,-197.5098,49.1333,472,999,0
25742345,1632,-0.1348,0.7593,0.9229,182.6172,-194.6411,42.6025,479,947,0
25747357,1633,-0.1372,0.8340,0.8716,175.5371,-194.5801,33.8745,464,947,0
25752376,1634,-0.1240,0.8501,0.8203,173.7671,-198.4253,27.0386,475,906,0
25757349,1635,-0.0986,0.8740,0.8042,168.5791,-203.4302,21.1792,478,933,0
25762350,1636,-0.0903,0.9092,0.8257,161.6211,-206.6650,17.5781,463,922,0
25767347,1637,-0.1011,0.9224,0.8418,155.0903,-207.6416,16.4185,491,917,0
25772342,1638,-0.1260,0.9004,0.8589,148.0713,-209.2285,16.6016,469,840,0
25777344,1639,-0.1660,0.8872,0.9014,140.0757,-211.6699,17.1509,482,859,0
25782342,1640,-0.1924,0.8911,0.9819,131.9580,-214.3555,16.7847,488,894,0
25787342,1641,-0.1768,0.8784,1.0840,124.2065,-215.3320,15.5029,491,921,0
25792348,1642,-0.1387,0.8384,1.1597,118.2251,-214.6606,15.0757,480,906,0
25797347,1643,-0.1211,0.7754,1.1870,112.9150,-210.9375,15.5029,480,898,0
25802349,1644,-0.1431,0.7163,1.1836,106.2622,-204.5898,15.9302,490,928,0
25807349,1645,-0.1543,0.6924,1.1841,99.2432,-196.5942,16.6016,462,927,0
25812348,1646,-0.1841,0.6943,1.1934,95.2759,-187.6221,16.2354,463,915,0
25817349,1647,-0.1353,0.6963,1.1733,95.5200,-177.4902,14.1602,479,947,0
25822347,1648,-0.0830,0.6836,1.1348,97.2900,-167.1142,11.9629,466,957,0
25827349,1649,-0.1064,0.6699,1.1421,100.0366,-160.5225,9.1553,463,947,0
25832342,1650,-0.1558,0.7031,1.1479,103.1494,-156.6772,2.2583,481,902,0
25837346,1651,-0.1885,0.7285,1.1030,108.0933,-152.5269,-7.9346,471,978,0
25842342,1652,-0.2202,0.7212,1.0547,113.0981,-148.4985,-18.1885,474,894,0
25847349,1653,-0.2197,0.7437,1.0747,114.0747,-144.3481,-27.5269,480,909,0
25852346,1654,-0.1958,0.7798,1.1333,112.3047,-138.6719,-34.4849,478,882,0
25857344,1655,-0.1924,0.8013,1.1753,109.4971,-133.5449,-39.3066,476,932,0
25862346,1656,-0.2197,0.8271,1.2002,104.4311,-130.8594,-43.0298,506,925,0
25867347,1657,-0.2339,0.8750,1.2085,97.7783,-130.0659,-47.7295,464,920,0
25872345,1658,-0.2266,0.9165,1.2061,91.4307,-130.0659,-54.3213,490,918,0
25877346,1659,-0.2222,0.9346,1.1943,85.1440,-129.0283,-62.1948,488,915,0
25882342,1660,-0.2324,0.9365,1.1851,78.9795,-126.7700,-70.6787,474,925,0
25887346,1661,-0.2480,0.9043,1.1807,71.2280,-122.9858,-79.1016,481,889,0
25892350,1662,-0.2837,0.8813,1.1831,60.7300,-118.6523,-86.9751,489,881,0
25897349,1663,-0.2974,0.8813,1.1670,48.7061,-115.4785,-95.2759,478,901,0
25902345,1664,-0.2959,0.8677,1.1289,37.3535,-113.7085,-104.0039,486,898,0
25907347,1665,-0.3276,0.7896,1.0879,28.0762,-114.1357,-111.0229,462,920,0
25912345,1666,-0.4072,0.6270,1.0288,21.4233,-115.6006,-114.0747,463,931,0
25917348,1667,-0.4858,0.4663,1.0376,16.1743,-120.9717,-111.7554,479,958,0
25922350,1668,-0.4761,0.3516,1.1641,10.1929,-128.8452,-103.3935,463,928,0
25927345,1669,-0.4111,0.3198,1.3110,0.6714,-132.6294,-89.2334,480,950,0
25932344,1670,-0.3442,0.3550,1.3877,-10.1318,-131.0425,-72.6318,475,829,0
25937347,1671,-0.3149,0.4062,1.3716,-17.3340,-125.9766,-57.9834,463,975,0
25942343,1672,-0.3228,0.4575,1.3066,-18.0664,-119.3848,-48.5229,465,1021,0
25947346,1673,-0.3228,0.4971,1.2280,-13.1226,-109.8633,-46.3867,476,945,0
25952345,1674,-0.3350,0.5034,1.1670,-1.8311,-97.5342,-50.0488,480,945,0
25957344,1675,-0.3652,0.4668,1.1499,12.7563,-86.2427,-57.5561,479,912,0
25962345,1676,-0.3691,0.4771,1.1689,23.0103,-74.6460,-67.8101,506,915,0
25967351,1677,-0.3247,0.5088,1.1509,30.0903,-63.7207,-78.7964,466,932,0
25972348,1678,-0.2930,0.5312,1.0811,35.7056,-57.0068,-88.5620,490,936,0
25977348,1679,-0.2881,0.5537,1.0283,38.9404,-53.8940,-95.7031,487,850,0
25982346,1680,-0.2886,0.5825,1.0195,40.2832,-51.2085,-99.8535,475,842,0
25987344,1681,-0.2881,0.6060,1.0190,40.5273,-48.2788,-101.1352,480,894,0
25992344,1682,-0.2954,0.5815,1.0049,40.4663,-46.6309,-100.8301,471,923,0
