t_us, seq, ax, ay, az, gx, gy, gz, valid, t_imu_us, t_serial_us, missed
9101756,10,-0.0220,-0.0186,1.0234,-0.1221,-0.1221,-0.0610,1,483,830,0
9106757,11,-0.0225,-0.0181,1.0239,-0.2441,-0.0610,-0.1831,1,491,836,0
9111756,12,-0.0220,-0.0171,1.0225,-0.3052,-0.1221,-0.3662,1,466,843,0
9116756,13,-0.0215,-0.0176,1.0210,-0.3052,-0.1221,-0.3052,1,466,862,0
9121755,14,-0.0210,-0.0195,1.0210,-0.2441,-0.0610,-0.2441,1,483,857,0
9126758,15,-0.0195,-0.0210,1.0220,-0.2441,0.1831,-0.0610,1,465,870,0
9131762,16,-0.0190,-0.0205,1.0234,0.0000,0.1221,0.0610,1,484,861,0
9136754,17,-0.0195,-0.0186,1.0229,-0.0610,0.1831,-0.0610,1,465,895,0
9141760,18,-0.0205,-0.0176,1.0215,-0.1221,0.3052,-0.1831,1,479,930,0
9146759,19,-0.0225,-0.0186,1.0205,0.0000,0.2441,-0.1831,1,472,856,0
9151757,20,-0.0234,-0.0195,1.0205,0.0610,0.3052,-0.1221,1,474,825,0
9156762,21,-0.0234,-0.0195,1.0210,0.2441,0.3052,-0.1831,1,477,862,0
9161761,22,-0.0234,-0.0186,1.0220,0.2441,0.3052,-0.2441,1,477,852,0
9166760,23,-0.0220,-0.0176,1.0229,0.1221,0.3662,-0.2441,1,477,851,0
9171758,24,-0.0200,-0.0171,1.0229,0.0610,0.5493,-0.2441,1,484,853,0
9176755,25,-0.0205,-0.0171,1.0215,0.0000,0.4272,-0.2441,1,466,870,0
9181761,26,-0.0210,-0.0186,1.0205,0.0610,0.2441,0.0000,1,494,745,0
9186756,27,-0.0200,-0.0195,1.0220,0.0610,0.1831,-0.1831,1,466,803,0
9191762,28,-0.0200,-0.0195,1.0225,0.0610,0.3052,-0.1221,1,489,852,0
9196759,29,-0.0220,-0.0190,1.0205,0.1221,0.3052,-0.1221,1,488,832,0
9201756,30,-0.0229,-0.0181,1.0195,0.1221,0.1831,-0.1221,1,473,853,0
9206754,31,-0.0229,-0.0195,1.0200,0.0610,0.4272,-0.1831,1,481,839,0
9211755,32,-0.0229,-0.0195,1.0205,0.1221,0.3662,-0.0610,1,490,844,0
9216761,33,-0.0229,-0.0186,1.0200,0.1831,0.3052,0.0000,1,488,842,0
9221757,34,-0.0225,-0.0181,1.0200,0.1831,0.3052,-0.1221,1,493,793,0
9226759,35,-0.0229,-0.0181,1.0215,-0.0610,0.1831,-0.0610,1,466,859,0
9231756,36,-0.0229,-0.0190,1.0215,-0.0610,0.3662,-0.1221,1,465,865,0
9236762,37,-0.0225,-0.0190,1.0205,-0.0610,0.3052,-0.1221,1,465,868,0
9241756,38,-0.0225,-0.0195,1.0205,-0.2441,0.0000,0.0610,1,478,851,0
9246756,39,-0.0229,-0.0205,1.0210,-0.3052,0.1831,-0.0610,1,465,891,0
9251757,40,-0.0244,-0.0200,1.0200,-0.1221,0.2441,-0.1221,1,474,930,0
9256757,41,-0.0249,-0.0181,1.0190,-0.2441,0.3052,-0.0610,1,475,855,0
9261760,42,-0.0239,-0.0181,1.0210,-0.3662,0.1831,0.0610,1,481,857,0
9266754,43,-0.0239,-0.0190,1.0225,-0.3662,0.1831,-0.1221,1,483,867,0
9271762,44,-0.0229,-0.0195,1.0220,-0.3052,0.3052,-0.1221,1,470,855,0
9276759,45,-0.0220,-0.0190,1.0210,-0.3662,0.3052,-0.1221,1,481,844,0
9281759,46,-0.0225,-0.0190,1.0205,-0.2441,0.0610,-0.0610,1,510,846,0
9286754,47,-0.0234,-0.0186,1.0210,-0.2441,0.2441,0.0000,1,473,866,0
9291756,48,-0.0229,-0.0176,1.0220,-0.3052,0.1221,-0.0610,1,494,751,0
9296754,49,-0.0229,-0.0181,1.0225,-0.2441,0.2441,-0.1831,1,464,844,0
9301760,50,-0.0229,-0.0190,1.0225,-0.3662,0.4272,-0.2441,1,479,846,0
9306759,51,-0.0225,-0.0190,1.0229,-0.3052,0.3052,-0.2441,1,482,848,0
9311757,52,-0.0215,-0.0186,1.0239,-0.2441,0.2441,-0.1831,1,490,840,0
9316757,53,-0.0210,-0.0186,1.0229,-0.3052,0.3662,-0.1221,1,482,848,0
9321762,54,-0.0205,-0.0200,1.0220,-0.3052,0.1221,-0.1831,1,477,838,0
9326761,55,-0.0210,-0.0205,1.0234,-0.1831,0.2441,-0.1831,1,493,835,0
9331771,56,-0.0220,-0.0200,1.0239,-0.1221,0.3662,-0.2441,1,466,874,0
9336759,57,-0.0229,-0.0200,1.0225,0.0610,0.3052,-0.1831,1,465,872,0
9341762,58,-0.0229,-0.0195,1.0215,-0.1221,0.3662,-0.2441,1,483,867,0
9346756,59,-0.0229,-0.0186,1.0215,0.0610,0.3662,-0.1831,1,469,863,0
9351763,60,-0.0225,-0.0181,1.0215,0.0000,0.3662,-0.0610,1,466,869,0
9356760,61,-0.0220,-0.0176,1.0225,0.0000,0.4883,0.0000,1,479,809,0
9361755,62,-0.0225,-0.0181,1.0229,-0.1221,0.4883,-0.1221,1,466,773,0
9366761,63,-0.0234,-0.0186,1.0220,-0.1221,0.3662,-0.1221,1,474,852,0
9371760,64,-0.0239,-0.0186,1.0200,0.0000,0.2441,0.0610,1,472,865,0
9376760,65,-0.0239,-0.0176,1.0195,0.0000,0.3052,-0.0610,1,479,805,0
9381754,66,-0.0239,-0.0171,1.0200,-0.0610,0.1221,-0.0610,1,478,803,0
9386760,67,-0.0239,-0.0181,1.0210,-0.0610,0.3662,-0.0610,1,511,842,0
9391761,68,-0.0249,-0.0195,1.0205,0.0610,0.4272,0.0000,1,493,865,0
9396759,69,-0.0244,-0.0205,1.0200,0.0000,0.3052,-0.0610,1,489,751,0
9401759,70,-0.0229,-0.0200,1.0210,0.0610,0.4272,-0.0610,1,466,789,0
9406759,71,-0.0234,-0.0200,1.0215,0.0610,0.3052,0.0000,1,488,838,0
9411754,72,-0.0234,-0.0195,1.0215,0.0610,0.2441,0.0000,1,473,788,0
9416759,73,-0.0225,-0.0195,1.0220,0.1831,0.1831,-0.1221,1,485,796,0
9421754,74,-0.0229,-0.0205,1.0229,0.1831,0.1221,-0.0610,1,477,842,0
9426757,75,-0.0225,-0.0205,1.0229,0.1221,0.1831,-0.0610,1,490,842,0
9431761,76,-0.0215,-0.0186,1.0220,0.1221,0.1831,-0.1221,1,488,841,0
9436756,77,-0.0225,-0.0176,1.0210,0.0610,0.2441,0.0000,1,493,835,0
9441756,78,-0.0229,-0.0186,1.0205,0.0000,0.2441,-0.1221,1,466,819,0
9446762,79,-0.0210,-0.0200,1.0190,-0.0610,0.1221,-0.1831,1,483,824,0
9451755,80,-0.0200,-0.0195,1.0186,0.0000,0.0610,-0.1221,1,466,853,0
9456756,81,-0.0200,-0.0195,1.0195,0.0000,-0.0610,-0.1221,1,484,846,0
9461756,82,-0.0215,-0.0190,1.0205,0.1221,0.0000,-0.2441,1,471,811,0
9466760,83,-0.0234,-0.0186,1.0220,0.1221,-0.1831,-0.1221,1,474,821,0
9471762,84,-0.0239,-0.0190,1.0229,-0.0610,-0.1831,-0.1221,1,472,865,0
9476760,85,-0.0225,-0.0195,1.0215,0.0000,-0.0610,-0.0610,1,475,871,0
9481754,86,-0.0220,-0.0200,1.0210,0.0610,-0.0610,-0.0610,1,479,801,0
9486760,87,-0.0225,-0.0200,1.0210,0.1221,-0.1221,-0.1831,1,466,842,0
9491757,88,-0.0234,-0.0200,1.0210,0.1221,-0.0610,-0.2441,1,483,843,0
9496757,89,-0.0239,-0.0200,1.0215,0.0610,0.0000,-0.2441,1,509,847,0
9501763,90,-0.0234,-0.0190,1.0215,0.1221,0.0610,-0.3052,1,466,748,0
9506756,91,-0.0229,-0.0190,1.0205,0.1221,0.1831,-0.2441,1,494,787,0
9511762,92,-0.0225,-0.0205,1.0215,0.2441,0.0610,-0.1831,1,484,854,0
9516759,93,-0.0225,-0.0205,1.0244,0.2441,0.1221,-0.1831,1,486,852,0
9521759,94,-0.0229,-0.0190,1.0254,0.1831,0.1221,-0.2441,1,474,844,0
9526758,95,-0.0220,-0.0176,1.0244,0.0000,0.0610,-0.3662,1,472,870,0
9531754,96,-0.0205,-0.0176,1.0225,0.0000,0.2441,-0.3052,1,482,797,0
9536762,97,-0.0200,-0.0190,1.0205,0.1831,0.2441,-0.2441,1,492,793,0
9541762,98,-0.0210,-0.0200,1.0190,0.1831,0.3052,-0.3052,1,493,846,0
9546761,99,-0.0210,-0.0190,1.0186,-0.0610,0.2441,-0.3052,1,466,861,0
9551761,100,-0.0215,-0.0190,1.0205,-0.1221,0.2441,-0.2441,1,466,864,0
9556761,101,-0.0225,-0.0190,1.0225,0.0000,0.4272,-0.3052,1,466,872,0
9561755,102,-0.0229,-0.0195,1.0234,0.0000,0.3662,-0.2441,1,484,820,0
9566758,103,-0.0220,-0.0195,1.0234,0.0610,0.2441,-0.3052,1,465,904,0
9571760,104,-0.0210,-0.0200,1.0215,0.0610,0.1831,-0.2441,1,482,933,0
9576759,105,-0.0215,-0.0205,1.0205,0.1221,0.1831,-0.3052,1,466,868,0
9581758,106,-0.0215,-0.0181,1.0210,0.1221,0.0610,-0.2441,1,472,820,0
9586759,107,-0.0220,-0.0171,1.0225,0.0000,0.1831,-0.1831,1,475,845,0
9591760,108,-0.0220,-0.0176,1.0220,0.1221,0.1221,-0.1831,1,477,807,0
9596755,109,-0.0225,-0.0186,1.0200,0.0610,0.1221,-0.1221,1,483,847,0
9601759,110,-0.0234,-0.0190,1.0190,0.3052,0.1221,-0.1221,1,510,842,0
9606761,111,-0.0234,-0.0190,1.0205,0.2441,0.0610,-0.1221,1,469,808,0
9611754,112,-0.0229,-0.0200,1.0229,0.1831,0.1221,-0.2441,1,493,793,0
9616759,113,-0.0229,-0.0205,1.0239,0.1221,0.1831,-0.1831,1,479,818,0
9621760,114,-0.0225,-0.0205,1.0225,0.1831,0.1831,-0.2441,1,484,846,0
9626754,115,-0.0225,-0.0205,1.0210,0.0610,0.2441,-0.3052,1,485,846,0
9631762,116,-0.0225,-0.0190,1.0195,0.0000,0.2441,-0.3052,1,480,836,0
9636762,117,-0.0225,-0.0186,1.0195,0.1221,0.3662,-0.1831,1,480,796,0
9641754,118,-0.0229,-0.0195,1.0210,0.1221,0.2441,-0.2441,1,488,843,0
9646764,119,-0.0225,-0.0205,1.0225,0.1831,0.3052,-0.1831,1,466,872,0
9651756,120,-0.0234,-0.0205,1.0220,0.1831,0.3052,-0.1831,1,465,868,0
9656754,121,-0.0244,-0.0195,1.0215,0.1221,0.1221,-0.2441,1,483,871,0
9661754,122,-0.0249,-0.0186,1.0210,0.1831,0.0000,-0.1221,1,472,859,0
9666754,123,-0.0239,-0.0186,1.0210,0.1221,0.0610,-0.1831,1,466,881,0
9671762,124,-0.0234,-0.0186,1.0215,0.2441,0.1221,-0.1221,1,465,931,0
9676762,125,-0.0229,-0.0186,1.0234,0.1221,0.0610,-0.2441,1,482,855,0
9681760,126,-0.0234,-0.0195,1.0210,0.1221,0.1221,0.0000,1,468,861,0
9686754,127,-0.0225,-0.0190,1.0210,0.1831,-0.0610,-0.1831,1,474,800,0
9691762,128,-0.0205,-0.0186,1.0210,0.1221,0.0000,-0.1831,1,482,852,0
9696785,129,-0.0205,-0.0176,1.0205,0.1831,0.1221,-0.1831,1,475,803,0
9701758,130,-0.0210,-0.0176,1.0210,0.3052,0.1221,-0.2441,1,483,853,0
9706759,131,-0.0205,-0.0176,1.0215,0.1831,0.1221,-0.2441,1,493,862,0
9711757,132,-0.0210,-0.0186,1.0220,0.1221,0.1831,-0.1221,1,487,869,0
9716762,133,-0.0225,-0.0190,1.0225,0.0610,0.1831,-0.1831,1,465,857,0
9721763,134,-0.0234,-0.0200,1.0229,0.2441,0.3052,-0.2441,1,478,816,0
9726754,135,-0.0234,-0.0200,1.0215,0.1831,0.3052,-0.1831,1,478,843,0
9731757,136,-0.0225,-0.0195,1.0210,0.1221,0.1831,-0.2441,1,473,842,0
9736754,137,-0.0220,-0.0195,1.0220,0.1831,0.1831,-0.3052,1,478,842,0
9741759,138,-0.0225,-0.0186,1.0225,0.1831,0.3662,-0.1221,1,490,842,0
9746755,139,-0.0220,-0.0171,1.0220,0.1831,0.3052,-0.1831,1,487,841,0
9751758,140,-0.0210,-0.0176,1.0215,0.1831,0.3052,-0.1221,1,466,839,0
9756762,141,-0.0220,-0.0181,1.0210,0.1221,0.2441,-0.2441,1,466,861,0
9761757,142,-0.0220,-0.0186,1.0210,0.0610,0.1221,-0.1831,1,483,865,0
9766755,143,-0.0225,-0.0190,1.0220,0.1221,0.1831,-0.1221,1,465,855,0
9771761,144,-0.0220,-0.0200,1.0229,0.0000,0.1831,-0.1831,1,484,801,0
9776759,145,-0.0215,-0.0200,1.0225,0.0000,0.1831,-0.1221,1,466,818,0
9781760,146,-0.0220,-0.0200,1.0205,0.1221,0.1831,-0.1831,1,471,819,0
9786760,147,-0.0220,-0.0190,1.0195,0.2441,0.0610,-0.1831,1,472,869,0
9791757,148,-0.0215,-0.0195,1.0205,0.3052,0.0610,-0.1831,1,474,874,0
9796757,149,-0.0215,-0.0195,1.0229,0.3052,0.0610,-0.1221,1,482,851,0
9801764,150,-0.0210,-0.0186,1.0234,0.1221,0.1831,-0.1221,1,465,847,0
9806759,151,-0.0215,-0.0176,1.0225,0.1221,0.0610,-0.1221,1,483,847,0
9811761,152,-0.0229,-0.0186,1.0225,0.1831,0.1221,-0.1831,1,511,842,0
9816755,153,-0.0234,-0.0195,1.0234,0.1221,0.1221,-0.2441,1,472,870,0
9821754,154,-0.0239,-0.0200,1.0220,0.0610,0.0610,-0.3052,1,464,796,0
9826759,155,-0.0239,-0.0195,1.0210,0.0610,0.1221,-0.1831,1,470,845,0
9831758,156,-0.0234,-0.0190,1.0205,-0.0610,0.1831,-0.1831,1,476,841,0
9836759,157,-0.0225,-0.0195,1.0215,0.0610,0.1831,-0.2441,1,487,845,0
9841755,158,-0.0220,-0.0195,1.0220,0.0610,0.2441,-0.1831,1,473,844,0
9846756,159,-0.0220,-0.0186,1.0215,0.0000,0.3052,-0.1221,1,484,845,0
9851758,160,-0.0234,-0.0176,1.0195,0.0610,0.1831,-0.1831,1,487,788,0
9856757,161,-0.0239,-0.0176,1.0200,0.0000,0.2441,-0.1221,1,493,845,0
9861762,162,-0.0234,-0.0186,1.0220,0.0610,0.1831,-0.1831,1,466,821,0
9866755,163,-0.0220,-0.0190,1.0234,0.0000,0.3052,-0.2441,1,466,870,0
9871760,164,-0.0215,-0.0190,1.0239,-0.0610,0.2441,-0.1831,1,466,815,0
9876757,165,-0.0234,-0.0190,1.0220,0.1221,0.2441,-0.2441,1,484,864,0
9881757,166,-0.0254,-0.0186,1.0186,0.1221,0.1831,-0.1221,1,466,897,0
9886759,167,-0.0259,-0.0190,1.0176,-0.0610,0.0000,-0.1831,1,474,931,0
9891759,168,-0.0244,-0.0200,1.0205,-0.0610,0.1221,-0.3052,1,474,814,0
9896758,169,-0.0220,-0.0195,1.0229,0.0610,0.1831,-0.1831,1,479,855,0
9901758,170,-0.0200,-0.0190,1.0229,0.0610,0.1831,-0.1831,1,482,875,0
9906762,171,-0.0200,-0.0181,1.0225,0.1221,0.0610,-0.1831,1,466,855,0
9911757,172,-0.0205,-0.0171,1.0225,0.1221,0.2441,-0.1221,1,478,845,0
9916759,173,-0.0210,-0.0171,1.0225,0.0610,0.2441,-0.2441,1,483,845,0
9921754,174,-0.0215,-0.0176,1.0220,0.1221,0.1831,-0.3052,1,466,868,0
9926754,175,-0.0220,-0.0176,1.0210,0.1831,0.2441,-0.2441,1,470,863,0
9931759,176,-0.0225,-0.0181,1.0215,0.2441,0.4272,-0.1831,1,494,796,0
9936759,177,-0.0220,-0.0181,1.0225,0.1221,0.3052,-0.2441,1,476,853,0
9941761,178,-0.0215,-0.0186,1.0239,0.1221,0.3662,-0.2441,1,485,835,0
9946757,179,-0.0210,-0.0190,1.0229,0.0000,0.3052,-0.1831,1,488,844,0
9951754,180,-0.0200,-0.0186,1.0210,0.0000,0.3052,-0.3052,1,478,795,0
9956761,181,-0.0195,-0.0181,1.0200,0.1831,0.3052,-0.3052,1,487,786,0
9961754,182,-0.0190,-0.0171,1.0215,0.1831,0.4272,-0.2441,1,477,834,0
9966758,183,-0.0195,-0.0176,1.0234,0.1831,0.4272,-0.3052,1,493,844,0
9971755,184,-0.0215,-0.0186,1.0244,0.0610,0.4272,-0.2441,1,465,872,0
9976758,185,-0.0234,-0.0186,1.0239,0.0610,0.3662,-0.1831,1,483,871,0
9981760,186,-0.0225,-0.0186,1.0229,0.0000,0.2441,-0.1831,1,465,873,0
9986756,187,-0.0205,-0.0190,1.0225,0.0000,0.2441,-0.2441,1,484,764,0
9991761,188,-0.0205,-0.0186,1.0229,-0.0610,0.3052,-0.1831,1,465,894,0
9996759,189,-0.0200,-0.0171,1.0244,0.0610,0.2441,-0.2441,1,471,931,0
10001754,190,-0.0195,-0.0176,1.0239,0.0000,0.3662,-0.2441,1,475,861,0
10006759,191,-0.0195,-0.0186,1.0229,-0.0610,0.3052,-0.2441,1,465,815,0
10011760,192,-0.0195,-0.0181,1.0225,0.0000,0.2441,-0.2441,1,481,871,0
10016759,193,-0.0205,-0.0176,1.0220,-0.0610,0.2441,-0.3052,1,482,810,0
10021759,194,-0.0215,-0.0186,1.0229,0.0000,0.3052,-0.3052,1,478,850,0
10026760,195,-0.0215,-0.0200,1.0234,0.0610,0.3052,-0.2441,1,484,801,0
10031757,196,-0.0215,-0.0205,1.0229,0.0000,0.2441,-0.2441,1,492,849,0
10036756,197,-0.0215,-0.0205,1.0210,-0.0610,0.1221,-0.3662,1,470,756,0
10041758,198,-0.0225,-0.0190,1.0195,0.0610,0.2441,-0.2441,1,493,789,0
10046757,199,-0.0234,-0.0171,1.0186,0.1221,0.1831,-0.2441,1,480,855,0
10051762,200,-0.0229,-0.0171,1.0190,-0.0610,0.1221,-0.3052,1,490,853,0
10056755,201,-0.0210,-0.0181,1.0205,-0.0610,0.0000,-0.1831,1,488,835,0
10061754,202,-0.0200,-0.0181,1.0215,0.0610,0.0000,-0.0610,1,491,793,0
10066763,203,-0.0210,-0.0181,1.0225,0.0610,0.1831,-0.1831,1,475,789,0
10071762,204,-0.0220,-0.0190,1.0225,0.0610,0.1831,-0.1831,1,471,839,0
10076754,205,-0.0225,-0.0200,1.0210,0.1221,0.1831,-0.1831,1,493,845,0
10081775,206,-0.0244,-0.0200,1.0200,0.0610,0.1221,-0.2441,1,466,866,0
10086754,207,-0.0254,-0.0195,1.0210,0.0610,0.1221,-0.1221,1,466,867,0
10091762,208,-0.0239,-0.0190,1.0220,0.1221,0.0610,-0.1221,1,484,862,0
10096762,209,-0.0229,-0.0186,1.0210,0.0610,0.1221,-0.1831,1,467,856,0
10101756,210,-0.0229,-0.0186,1.0195,0.1221,0.1831,-0.1831,1,484,804,0
10106759,211,-0.0215,-0.0186,1.0195,0.1831,0.1831,-0.1221,1,465,929,0
10111757,212,-0.0205,-0.0186,1.0210,0.2441,0.0610,-0.1831,1,465,862,0
10116759,213,-0.0205,-0.0186,1.0220,0.0000,0.0000,-0.0610,1,469,861,0
10121754,214,-0.0205,-0.0181,1.0225,0.1831,-0.1221,-0.0610,1,469,757,0
10126759,215,-0.0220,-0.0186,1.0215,0.0610,0.0610,-0.0610,1,477,849,0
10131765,216,-0.0239,-0.0190,1.0215,0.0000,0.0610,-0.2441,1,469,847,0
10136762,217,-0.0249,-0.0195,1.0205,0.0000,0.1221,-0.1831,1,483,809,0
10141761,218,-0.0244,-0.0190,1.0195,0.0610,0.0000,-0.0610,1,492,808,0
10146760,219,-0.0225,-0.0181,1.0200,0.0610,0.0000,-0.1831,1,473,751,0
10151756,220,-0.0210,-0.0171,1.0225,0.0610,0.0000,-0.1221,1,493,801,0
10156755,221,-0.0200,-0.0171,1.0234,0.0000,0.0610,-0.1831,1,473,788,0
10161760,222,-0.0210,-0.0176,1.0229,-0.0610,0.0610,-0.1221,1,491,795,0
10166757,223,-0.0225,-0.0181,1.0229,0.0000,0.1221,-0.2441,1,492,836,0
10171754,224,-0.0239,-0.0176,1.0225,0.0000,0.1831,-0.2441,1,476,795,0
10176756,225,-0.0244,-0.0181,1.0225,0.0000,0.1221,-0.1831,1,486,801,0
10181762,226,-0.0225,-0.0186,1.0225,0.1831,0.0610,-0.1221,1,488,795,0
10186761,227,-0.0205,-0.0195,1.0225,0.0610,0.1221,-0.1831,1,492,837,0
10191757,228,-0.0205,-0.0195,1.0229,0.0610,0.1831,-0.2441,1,492,841,0
10196754,229,-0.0225,-0.0186,1.0225,0.0000,0.3662,-0.2441,1,466,876,0
10201759,230,-0.0225,-0.0190,1.0220,-0.0610,0.1831,-0.1221,1,465,817,0
10206756,231,-0.0210,-0.0200,1.0215,-0.0610,0.2441,-0.2441,1,481,857,0
10211758,232,-0.0205,-0.0186,1.0210,0.0000,0.2441,-0.1831,1,466,869,0
10216760,233,-0.0215,-0.0166,1.0225,0.0000,0.3052,-0.1221,1,467,818,0
10221763,234,-0.0229,-0.0166,1.0239,0.0000,0.3052,-0.1221,1,466,811,0
10226754,235,-0.0239,-0.0176,1.0229,0.0000,0.3052,-0.1831,1,469,823,0
10231762,236,-0.0229,-0.0200,1.0225,0.0000,0.3052,-0.2441,1,481,810,0
10236755,237,-0.0220,-0.0205,1.0215,0.0610,0.3052,-0.1831,1,477,806,0
10241780,238,-0.0215,-0.0195,1.0210,0.0610,0.1831,-0.1831,1,479,849,0
10246754,239,-0.0220,-0.0186,1.0215,0.1221,0.2441,-0.3052,1,483,854,0
10251758,240,-0.0220,-0.0181,1.0234,0.0000,0.1831,-0.2441,1,493,865,0
10256757,241,-0.0225,-0.0171,1.0239,0.0000,0.1831,-0.2441,1,486,774,0
10261761,242,-0.0234,-0.0161,1.0234,-0.0610,0.2441,-0.3052,1,493,753,0
10266761,243,-0.0239,-0.0176,1.0229,0.0000,0.2441,-0.3052,1,468,853,0
10271761,244,-0.0225,-0.0195,1.0225,0.1221,0.2441,-0.3052,1,473,799,0
10276762,245,-0.0215,-0.0195,1.0225,0.0000,0.3052,-0.1831,1,483,839,0
10281758,246,-0.0220,-0.0181,1.0229,0.0610,0.1831,-0.2441,1,490,795,0
10286757,247,-0.0229,-0.0176,1.0229,0.1221,0.2441,-0.2441,1,485,844,0
10291759,248,-0.0220,-0.0186,1.0225,0.0000,0.3052,0.0000,1,488,847,0
10296757,249,-0.0205,-0.0190,1.0220,0.0000,0.1221,-0.1831,1,493,746,0
10301754,250,-0.0190,-0.0186,1.0220,0.0610,0.1831,-0.2441,1,466,822,0
10306757,251,-0.0186,-0.0176,1.0220,0.0000,0.1831,-0.3052,1,483,871,0
10311761,252,-0.0200,-0.0166,1.0215,0.0000,0.1221,-0.3052,1,466,811,0
10316758,253,-0.0220,-0.0171,1.0210,0.0000,0.2441,-0.3052,1,484,846,0
10321759,254,-0.0229,-0.0190,1.0220,-0.1831,0.1831,-0.2441,1,467,810,0
10326755,255,-0.0229,-0.0200,1.0229,-0.0610,0.3052,-0.2441,1,469,953,0
10331757,256,-0.0225,-0.0195,1.0229,0.0610,0.1831,-0.3662,1,474,870,0
10336756,257,-0.0210,-0.0176,1.0229,0.0610,0.0610,-0.3052,1,474,875,0
10341754,258,-0.0195,-0.0171,1.0229,0.0610,0.1221,-0.0610,1,479,846,0
10346754,259,-0.0200,-0.0186,1.0220,-0.1221,0.1831,-0.1221,1,482,848,0
10351755,260,-0.0215,-0.0190,1.0215,-0.0610,0.2441,-0.1221,1,484,846,0
10356762,261,-0.0215,-0.0181,1.0220,0.0000,0.2441,-0.1831,1,509,851,0
10361762,262,-0.0210,-0.0176,1.0220,0.0000,0.1831,-0.1221,1,466,823,0
10366757,263,-0.0205,-0.0176,1.0220,0.0000,0.1221,-0.1831,1,475,747,0
10371761,264,-0.0215,-0.0171,1.0234,0.1221,0.3052,-0.3052,1,465,796,0
10376757,265,-0.0215,-0.0181,1.0254,0.0610,0.1221,-0.1221,1,492,842,0
10381758,266,-0.0210,-0.0200,1.0254,0.0610,0.0610,-0.1831,1,481,832,0
10386762,267,-0.0220,-0.0190,1.0229,0.0610,0.0610,-0.1831,1,488,837,0
10391763,268,-0.0229,-0.0181,1.0210,0.0610,0.1831,-0.3052,1,486,864,0
10396762,269,-0.0234,-0.0181,1.0190,0.0610,0.1221,-0.2441,1,483,836,0
10401757,270,-0.0234,-0.0176,1.0190,0.0610,0.1221,-0.2441,1,488,838,0
10406759,271,-0.0234,-0.0171,1.0200,0.0610,0.0610,-0.1831,1,493,840,0
10411757,272,-0.0225,-0.0176,1.0200,0.1831,0.0000,-0.0610,1,466,865,0
10416759,273,-0.0215,-0.0181,1.0195,0.1831,-0.0610,-0.2441,1,484,820,0
10421757,274,-0.0220,-0.0176,1.0210,0.1221,-0.0610,-0.2441,1,465,862,0
10426755,275,-0.0225,-0.0176,1.0229,0.1831,0.0610,-0.1221,1,484,801,0
10431760,276,-0.0229,-0.0176,1.0229,0.1221,0.0000,-0.1831,1,470,895,0
10436756,277,-0.0229,-0.0176,1.0225,0.1221,0.1221,-0.3052,1,471,826,0
10441760,278,-0.0215,-0.0176,1.0215,0.0610,0.1831,-0.3662,1,478,862,0
10446754,279,-0.0200,-0.0186,1.0215,0.1221,0.0610,-0.1831,1,477,870,0
10451755,280,-0.0200,-0.0171,1.0220,0.1221,0.0610,-0.1831,1,483,848,0
10456764,281,-0.0215,-0.0151,1.0220,0.1831,0.0610,-0.1221,1,465,846,0
10461781,282,-0.0225,-0.0151,1.0220,0.0610,0.0610,-0.1831,1,484,850,0
10466762,283,-0.0225,-0.0156,1.0205,0.0000,0.1831,-0.1221,1,484,851,0
10471758,284,-0.0220,-0.0156,1.0215,0.0000,0.1221,-0.1831,1,493,824,0
10476756,285,-0.0215,-0.0171,1.0239,0.0000,0.1221,-0.2441,1,493,750,0
10481759,286,-0.0210,-0.0186,1.0249,0.0000,0.3052,-0.1831,1,464,795,0
10486756,287,-0.0215,-0.0186,1.0215,0.0000,0.1831,-0.1831,1,490,794,0
10491758,288,-0.0220,-0.0186,1.0205,0.0000,0.1831,-0.3052,1,478,799,0
10496759,289,-0.0229,-0.0186,1.0205,0.0610,0.1831,-0.2441,1,475,795,0
10501761,290,-0.0234,-0.0186,1.0205,0.0610,0.1831,-0.1221,1,480,846,0
10506760,291,-0.0229,-0.0181,1.0210,-0.0610,0.1831,-0.1831,1,483,840,0
10511756,292,-0.0220,-0.0171,1.0215,0.0000,0.2441,-0.3052,1,487,843,0
10516777,293,-0.0220,-0.0166,1.0215,0.0000,0.4272,-0.2441,1,466,792,0
10521758,294,-0.0220,-0.0171,1.0220,-0.0610,0.2441,-0.2441,1,466,829,0
10526761,295,-0.0225,-0.0186,1.0225,-0.1221,0.3052,-0.2441,1,484,870,0
10531762,296,-0.0225,-0.0200,1.0234,-0.0610,0.1831,-0.2441,1,466,854,0
10536754,297,-0.0210,-0.0195,1.0239,0.0610,0.2441,-0.1831,1,484,808,0
10541756,298,-0.0210,-0.0190,1.0229,-0.0610,0.2441,-0.1831,1,476,902,0
10546763,299,-0.0210,-0.0190,1.0210,-0.1221,0.2441,-0.2441,1,474,864,0
10551760,300,-0.0200,-0.0186,1.0205,-0.0610,0.1831,-0.2441,1,469,867,0
10556758,301,-0.0205,-0.0186,1.0205,-0.1221,0.2441,-0.1831,1,470,871,0
10561762,302,-0.0210,-0.0186,1.0215,-0.2441,0.3662,-0.2441,1,476,855,0
10566761,303,-0.0210,-0.0176,1.0220,-0.1831,0.3052,-0.2441,1,472,857,0
10571778,304,-0.0220,-0.0181,1.0220,-0.0610,0.3052,-0.2441,1,483,851,0
10576754,305,-0.0225,-0.0181,1.0234,0.0610,0.1221,-0.1221,1,484,846,0
10581762,306,-0.0225,-0.0181,1.0254,-0.0610,0.3052,-0.2441,1,494,862,0
10586761,307,-0.0215,-0.0176,1.0249,-0.1221,0.3662,-0.2441,1,483,863,0
10591762,308,-0.0200,-0.0176,1.0220,-0.0610,0.4272,-0.2441,1,464,798,0
10596763,309,-0.0195,-0.0171,1.0200,-0.0610,0.3662,-0.1831,1,470,852,0
10601757,310,-0.0200,-0.0161,1.0200,0.0000,0.3662,-0.3052,1,476,843,0
10606762,311,-0.0205,-0.0176,1.0200,-0.1831,0.4272,-0.3662,1,490,821,0
10611757,312,-0.0210,-0.0195,1.0200,-0.0610,0.4272,-0.3052,1,490,867,0
10616756,313,-0.0210,-0.0195,1.0210,0.0000,0.4272,-0.3052,1,483,837,0
10621759,314,-0.0215,-0.0181,1.0225,-0.1221,0.3662,-0.3052,1,484,792,0
10626756,315,-0.0220,-0.0166,1.0215,-0.0610,0.3662,-0.2441,1,493,834,0
10631754,316,-0.0210,-0.0176,1.0205,0.0610,0.3662,-0.1831,1,466,874,0
10636756,317,-0.0210,-0.0190,1.0215,-0.0610,0.2441,-0.3052,1,484,869,0
10641754,318,-0.0220,-0.0200,1.0225,-0.1221,0.2441,-0.3052,1,466,855,0
10646756,319,-0.0229,-0.0190,1.0225,0.0610,0.3052,-0.2441,1,484,809,0
10651760,320,-0.0215,-0.0190,1.0215,-0.0610,0.3662,-0.1831,1,467,898,0
10656758,321,-0.0205,-0.0195,1.0210,-0.0610,0.4272,-0.1831,1,467,862,0
10661759,322,-0.0210,-0.0186,1.0200,0.0610,0.2441,-0.1831,1,473,870,0
10666762,323,-0.0210,-0.0176,1.0200,0.0000,0.3052,-0.2441,1,472,869,0
10671761,324,-0.0195,-0.0186,1.0210,-0.0610,0.3052,-0.3052,1,472,802,0
10676759,325,-0.0200,-0.0190,1.0220,0.0000,0.2441,-0.2441,1,476,843,0
10681760,326,-0.0210,-0.0186,1.0215,-0.0610,0.1831,-0.3052,1,484,809,0
10686760,327,-0.0210,-0.0181,1.0205,0.1221,0.2441,-0.3052,1,483,847,0
10691762,328,-0.0210,-0.0195,1.0215,0.0000,0.2441,-0.2441,1,466,862,0
10696758,329,-0.0220,-0.0205,1.0225,0.0000,0.2441,-0.1221,1,466,754,0
10701760,330,-0.0225,-0.0200,1.0220,0.0000,0.1221,-0.2441,1,494,767,0
10706763,331,-0.0215,-0.0190,1.0215,-0.1221,0.3052,-0.1831,1,481,793,0
10711758,332,-0.0205,-0.0176,1.0220,-0.0610,0.3052,-0.1831,1,485,837,0
10716761,333,-0.0205,-0.0166,1.0220,0.0000,0.3052,-0.2441,1,476,839,0
10721762,334,-0.0210,-0.0156,1.0220,0.1831,0.3662,-0.2441,1,478,797,0
10726754,335,-0.0220,-0.0166,1.0229,0.0000,0.3052,-0.3052,1,483,847,0
10731756,336,-0.0229,-0.0186,1.0229,0.0000,0.2441,-0.2441,1,486,794,0
10736757,337,-0.0225,-0.0190,1.0229,0.0000,0.3052,-0.2441,1,492,804,0
10741754,338,-0.0220,-0.0186,1.0229,-0.0610,0.3052,-0.1831,1,466,823,0
10746758,339,-0.0220,-0.0171,1.0225,0.0000,0.2441,-0.1221,1,484,868,0
10751759,340,-0.0220,-0.0171,1.0210,0.0000,0.3052,-0.1831,1,466,812,0
10756761,341,-0.0220,-0.0176,1.0210,0.0000,0.3052,-0.2441,1,484,847,0
10761754,342,-0.0220,-0.0171,1.0229,-0.0610,0.3052,-0.1831,1,465,811,0
10766760,343,-0.0225,-0.0176,1.0229,-0.1221,0.3052,-0.2441,1,470,858,0
10771756,344,-0.0229,-0.0186,1.0215,-0.0610,0.3662,-0.3052,1,467,866,0
10776757,345,-0.0229,-0.0195,1.0210,0.0000,0.2441,-0.3052,1,474,823,0
10781761,346,-0.0225,-0.0195,1.0225,-0.0610,0.2441,-0.1831,1,477,808,0
10786754,347,-0.0225,-0.0195,1.0239,-0.1221,0.3662,-0.1831,1,473,856,0
10791760,348,-0.0229,-0.0190,1.0239,-0.0610,0.4272,-0.1831,1,483,857,0
10796756,349,-0.0220,-0.0195,1.0229,0.0000,0.3052,-0.2441,1,484,859,0
10801757,350,-0.0220,-0.0195,1.0220,0.0610,0.2441,-0.1831,1,492,828,0
10806758,351,-0.0205,-0.0190,1.0210,0.0000,0.3662,-0.1831,1,473,873,0
10811759,352,-0.0195,-0.0186,1.0200,0.0610,0.1221,-0.1831,1,493,763,0
10816758,353,-0.0205,-0.0176,1.0215,-0.0610,0.3052,-0.2441,1,486,840,0
10821759,354,-0.0225,-0.0166,1.0225,-0.0610,0.3052,-0.1831,1,471,839,0
10826757,355,-0.0234,-0.0156,1.0210,0.0000,0.3662,-0.1831,1,477,840,0
10831763,356,-0.0244,-0.0156,1.0205,-0.0610,0.4272,-0.1221,1,475,798,0
10836760,357,-0.0244,-0.0171,1.0215,0.0610,0.3052,-0.2441,1,478,842,0
10841759,358,-0.0234,-0.0190,1.0210,0.0610,0.2441,-0.1221,1,484,839,0
10846755,359,-0.0225,-0.0195,1.0200,-0.0610,0.3662,-0.1831,1,492,838,0
10851761,360,-0.0225,-0.0200,1.0210,0.0000,0.3662,-0.1831,1,466,872,0
10856759,361,-0.0215,-0.0200,1.0225,0.0000,0.3662,-0.1831,1,483,823,0
10861758,362,-0.0210,-0.0186,1.0229,0.0000,0.4272,-0.1221,1,466,762,0
10866754,363,-0.0215,-0.0171,1.0225,0.0000,0.3052,-0.2441,1,484,822,0
10871756,364,-0.0225,-0.0176,1.0225,0.0000,0.2441,-0.3052,1,465,810,0
10876761,365,-0.0244,-0.0195,1.0225,0.0610,0.3662,-0.2441,1,479,812,0
10881761,366,-0.0239,-0.0200,1.0229,0.0610,0.3662,-0.1831,1,473,865,0
10886757,367,-0.0229,-0.0190,1.0229,0.0000,0.3662,-0.3662,1,475,866,0
10891758,368,-0.0220,-0.0181,1.0229,-0.0610,0.3662,-0.3052,1,479,815,0
10896757,369,-0.0215,-0.0181,1.0229,0.1221,0.4272,-0.1831,1,477,850,0
10901755,370,-0.0220,-0.0181,1.0220,0.0610,0.3662,-0.2441,1,474,851,0
10906758,371,-0.0229,-0.0186,1.0210,-0.1831,0.3052,-0.2441,1,484,851,0
10911754,372,-0.0225,-0.0186,1.0215,-0.1221,0.3052,-0.1831,1,466,851,0
10916757,373,-0.0225,-0.0186,1.0225,-0.0610,0.3662,-0.2441,1,466,864,0
10921754,374,-0.0225,-0.0200,1.0220,0.0610,0.3662,-0.1831,1,494,871,0
10926760,375,-0.0229,-0.0195,1.0210,0.0000,0.3052,-0.2441,1,473,795,0
10931756,376,-0.0229,-0.0176,1.0210,-0.0610,0.1831,-0.2441,1,488,798,0
10936757,377,-0.0239,-0.0176,1.0205,-0.1221,0.1831,-0.1221,1,475,845,0
10941755,378,-0.0239,-0.0195,1.0205,-0.0610,0.1831,-0.1221,1,480,840,0
10946756,379,-0.0225,-0.0200,1.0225,-0.0610,0.2441,-0.2441,1,487,844,0
10951758,380,-0.0210,-0.0186,1.0234,-0.0610,0.2441,-0.2441,1,489,843,0
10956760,381,-0.0205,-0.0166,1.0229,-0.0610,0.3052,-0.1831,1,487,845,0
10961776,382,-0.0210,-0.0171,1.0220,0.0000,0.3052,-0.1221,1,493,844,0
10966760,383,-0.0215,-0.0200,1.0205,0.0610,0.3052,-0.2441,1,466,786,0
10971759,384,-0.0215,-0.0195,1.0205,-0.0610,0.2441,-0.2441,1,484,864,0
10976758,385,-0.0215,-0.0181,1.0215,0.0000,0.2441,-0.0610,1,472,865,0
10981761,386,-0.0220,-0.0176,1.0234,0.0000,0.2441,-0.1221,1,484,849,0
10986762,387,-0.0225,-0.0186,1.0239,0.1221,0.2441,-0.2441,1,478,815,0
10991757,388,-0.0225,-0.0186,1.0220,0.0000,0.2441,-0.2441,1,478,863,0
10996761,389,-0.0225,-0.0190,1.0205,-0.0610,0.4272,-0.2441,1,482,826,0
11001754,390,-0.0229,-0.0190,1.0200,0.0610,0.2441,-0.2441,1,481,872,0
11006761,391,-0.0220,-0.0186,1.0205,0.0000,0.1221,-0.2441,1,469,856,0
11011754,392,-0.0205,-0.0186,1.0210,0.1221,0.1831,-0.1831,1,465,805,0
11016756,393,-0.0205,-0.0190,1.0225,0.1221,0.3662,-0.1831,1,483,851,0
11021762,394,-0.0205,-0.0190,1.0239,0.1221,0.3662,-0.1831,1,484,853,0
11026754,395,-0.0220,-0.0186,1.0249,0.0610,0.1831,-0.2441,1,466,875,0
11031761,396,-0.0229,-0.0186,1.0249,0.1221,0.0000,-0.0610,1,473,874,0
11036759,397,-0.0220,-0.0190,1.0249,0.0610,0.2441,-0.2441,1,493,760,0
11041755,398,-0.0210,-0.0195,1.0239,0.0610,0.1831,-0.2441,1,483,870,0
11046755,399,-0.0210,-0.0195,1.0229,0.0000,0.1831,-0.2441,1,473,847,0
11051754,400,-0.0210,-0.0195,1.0220,0.0000,0.1831,-0.1221,1,481,803,0
11056762,401,-0.0210,-0.0181,1.0215,0.0610,0.1221,-0.1221,1,488,794,0
11061760,402,-0.0210,-0.0176,1.0205,-0.1221,0.1221,-0.1831,1,479,831,0
11066761,403,-0.0220,-0.0181,1.0205,0.0000,0.1831,-0.1831,1,485,837,0
11071772,404,-0.0225,-0.0181,1.0210,0.0610,0.0610,-0.3052,1,492,797,0
11076763,405,-0.0234,-0.0181,1.0220,0.0610,0.0610,-0.3052,1,465,857,0
11081758,406,-0.0234,-0.0181,1.0225,0.0610,0.2441,-0.1831,1,483,860,0
11086757,407,-0.0225,-0.0181,1.0220,-0.0610,0.2441,-0.1221,1,469,859,0
11091759,408,-0.0220,-0.0186,1.0210,-0.1221,0.1221,-0.2441,1,484,800,0
11096762,409,-0.0229,-0.0190,1.0205,0.0000,0.2441,-0.3052,1,471,893,0
11101754,410,-0.0234,-0.0195,1.0190,0.0610,0.3052,-0.3052,1,469,824,0
11106757,411,-0.0229,-0.0200,1.0186,-0.0610,0.1831,-0.2441,1,476,863,0
11111759,412,-0.0220,-0.0200,1.0190,-0.0610,0.1831,-0.1221,1,473,873,0
11116758,413,-0.0215,-0.0186,1.0200,-0.0610,0.1831,-0.1831,1,476,849,0
11121759,414,-0.0220,-0.0166,1.0205,-0.0610,0.1831,-0.2441,1,475,853,0
11126757,415,-0.0225,-0.0166,1.0210,0.1221,0.2441,-0.2441,1,483,858,0
11131755,416,-0.0229,-0.0176,1.0205,0.1221,0.2441,-0.1831,1,466,871,0
11136759,417,-0.0234,-0.0195,1.0205,-0.0610,0.2441,-0.1831,1,493,874,0
11141762,418,-0.0244,-0.0205,1.0220,0.0000,0.2441,-0.2441,1,466,874,0
11146762,419,-0.0254,-0.0210,1.0220,0.0000,0.1831,-0.2441,1,493,756,0
11151760,420,-0.0244,-0.0205,1.0215,-0.0610,0.2441,-0.2441,1,473,797,0
11156757,421,-0.0234,-0.0190,1.0225,0.0610,0.0610,-0.1831,1,480,857,0
11161757,422,-0.0225,-0.0186,1.0225,0.1221,0.0610,-0.1831,1,487,842,0
11166759,423,-0.0205,-0.0176,1.0215,0.0000,0.3662,-0.3052,1,483,838,0
11171758,424,-0.0190,-0.0166,1.0215,0.0610,0.2441,-0.1831,1,488,794,0
11176757,425,-0.0200,-0.0161,1.0225,0.0000,0.1221,-0.3052,1,473,848,0
11181759,426,-0.0220,-0.0171,1.0229,0.0000,0.2441,-0.2441,1,493,791,0
11186758,427,-0.0234,-0.0176,1.0225,0.1221,0.3052,-0.1221,1,465,801,0
11191754,428,-0.0234,-0.0186,1.0225,-0.0610,0.2441,-0.3662,1,483,861,0
11196761,429,-0.0225,-0.0190,1.0215,0.0000,0.2441,-0.2441,1,465,862,0
11201761,430,-0.0229,-0.0186,1.0210,0.0000,0.3052,-0.1831,1,484,817,0
11206762,431,-0.0225,-0.0176,1.0215,0.0000,0.2441,-0.2441,1,465,890,0
11211756,432,-0.0215,-0.0171,1.0210,0.0000,0.2441,-0.3052,1,470,817,0
11216757,433,-0.0210,-0.0171,1.0220,0.0610,0.3662,-0.2441,1,473,810,0
11221761,434,-0.0210,-0.0176,1.0225,0.1221,0.2441,-0.2441,1,475,860,0
11226755,435,-0.0215,-0.0176,1.0215,0.1221,0.3052,-0.1831,1,472,868,0
11231755,436,-0.0229,-0.0186,1.0205,0.0610,0.3052,-0.1831,1,480,847,0
11236754,437,-0.0249,-0.0195,1.0200,0.0000,0.1221,-0.1831,1,478,852,0
11241757,438,-0.0254,-0.0195,1.0220,-0.0610,0.1221,-0.3662,1,484,808,0
11246763,439,-0.0244,-0.0195,1.0239,0.0000,0.1831,-0.2441,1,466,867,0
11251760,440,-0.0229,-0.0190,1.0234,0.0610,0.1831,-0.1831,1,466,833,0
11256762,441,-0.0225,-0.0176,1.0215,-0.0610,0.1831,-0.2441,1,494,878,0
11261760,442,-0.0220,-0.0171,1.0205,-0.0610,0.3052,-0.4272,1,464,797,0
11266760,443,-0.0220,-0.0176,1.0215,0.0000,0.1221,-0.3052,1,474,848,0
11271757,444,-0.0225,-0.0181,1.0225,0.0000,0.1831,-0.1831,1,480,789,0
11276754,445,-0.0244,-0.0176,1.0220,0.0000,0.1221,-0.3052,1,486,823,0
11281760,446,-0.0249,-0.0181,1.0215,0.0610,0.2441,-0.3052,1,473,791,0
11286757,447,-0.0239,-0.0181,1.0210,-0.0610,0.3052,-0.1221,1,491,839,0
11291761,448,-0.0229,-0.0181,1.0210,0.0610,0.1831,-0.2441,1,474,833,0
11296767,449,-0.0229,-0.0181,1.0220,0.0610,0.3052,-0.1831,1,487,842,0
11301756,450,-0.0229,-0.0181,1.0220,-0.0610,0.2441,-0.1221,1,493,838,0
11306759,451,-0.0229,-0.0176,1.0220,-0.1221,0.3052,-0.2441,1,483,868,0
11311759,452,-0.0229,-0.0176,1.0215,-0.0610,0.2441,-0.1831,1,465,859,0
11316755,453,-0.0229,-0.0181,1.0210,0.0000,0.3052,-0.2441,1,484,864,0
11321755,454,-0.0229,-0.0171,1.0215,0.0000,0.3052,-0.1831,1,467,811,0
11326756,455,-0.0229,-0.0166,1.0225,-0.1221,0.4272,-0.3052,1,469,822,0
11331759,456,-0.0229,-0.0171,1.0229,-0.0610,0.4883,-0.2441,1,467,869,0
11336755,457,-0.0239,-0.0190,1.0229,-0.0610,0.3052,-0.2441,1,465,872,0
11341757,458,-0.0259,-0.0195,1.0225,-0.0610,0.3052,-0.2441,1,466,854,0
11346758,459,-0.0269,-0.0195,1.0215,0.0000,0.1831,-0.2441,1,465,850,0
11351757,460,-0.0249,-0.0190,1.0205,0.0000,0.1831,-0.1831,1,478,812,0
11356762,461,-0.0215,-0.0186,1.0215,0.0000,0.2441,-0.2441,1,483,813,0
11361755,462,-0.0200,-0.0186,1.0215,0.0610,0.3052,-0.3052,1,492,809,0
11366759,463,-0.0200,-0.0190,1.0210,-0.0610,0.2441,-0.2441,1,493,860,0
11371759,464,-0.0210,-0.0186,1.0210,-0.0610,0.1831,-0.1831,1,480,870,0
11376762,465,-0.0225,-0.0176,1.0215,0.0610,0.1221,-0.1831,1,493,794,0
11381762,466,-0.0234,-0.0166,1.0210,0.0000,0.4272,-0.2441,1,490,848,0
11386760,467,-0.0239,-0.0171,1.0210,-0.0610,0.1221,-0.1831,1,471,800,0
11391756,468,-0.0244,-0.0190,1.0225,0.0610,0.0610,-0.2441,1,479,838,0
11396755,469,-0.0234,-0.0210,1.0225,0.0610,0.2441,-0.3052,1,480,864,0
11401760,470,-0.0225,-0.0205,1.0215,0.0000,0.1221,-0.2441,1,483,837,0
11406761,471,-0.0210,-0.0186,1.0200,-0.1221,0.1831,-0.1831,1,482,794,0
11411772,472,-0.0205,-0.0171,1.0200,0.0000,0.3662,-0.2441,1,492,840,0
11416754,473,-0.0210,-0.0176,1.0215,0.1221,0.1831,-0.3052,1,465,797,0
11421762,474,-0.0215,-0.0181,1.0220,0.1221,0.1831,-0.1831,1,483,863,0
11426755,475,-0.0220,-0.0176,1.0225,0.0610,0.1831,-0.2441,1,465,858,0
11431756,476,-0.0220,-0.0181,1.0220,0.0000,0.1831,-0.1221,1,484,808,0
11436757,477,-0.0225,-0.0195,1.0210,0.0610,0.1831,-0.1831,1,474,810,0
11441756,478,-0.0234,-0.0195,1.0205,-0.1221,0.1221,-0.2441,1,476,862,0
11446757,479,-0.0234,-0.0181,1.0210,0.0000,0.1221,-0.1831,1,475,868,0
11451763,480,-0.0225,-0.0171,1.0205,0.0610,0.1221,-0.3052,1,475,802,0
11456756,481,-0.0225,-0.0166,1.0205,0.0000,0.1831,-0.2441,1,472,843,0
11461758,482,-0.0210,-0.0166,1.0220,-0.0610,0.2441,-0.1831,1,481,811,0
11466766,483,-0.0205,-0.0186,1.0220,0.0000,0.2441,-0.1831,1,484,855,0
11471761,484,-0.0225,-0.0195,1.0205,0.0610,0.1221,-0.2441,1,466,827,0
11476757,485,-0.0229,-0.0195,1.0195,0.0610,0.1221,-0.1831,1,493,871,0
11481756,486,-0.0220,-0.0190,1.0210,0.1221,0.1221,-0.1221,1,469,872,0
11486758,487,-0.0220,-0.0190,1.0229,0.0000,0.1221,-0.1831,1,493,787,0
11491757,488,-0.0220,-0.0186,1.0229,0.0000,0.1221,-0.2441,1,483,807,0
11496759,489,-0.0229,-0.0181,1.0225,-0.0610,0.0610,-0.1831,1,492,798,0
11501758,490,-0.0225,-0.0181,1.0215,-0.1221,0.1221,-0.1221,1,487,840,0
11506760,491,-0.0215,-0.0181,1.0210,0.0610,0.0610,-0.0610,1,492,852,0
11511760,492,-0.0205,-0.0176,1.0210,0.1221,0.0000,-0.0610,1,473,832,0
11516759,493,-0.0215,-0.0166,1.0215,0.0610,0.1221,-0.1831,1,478,789,0
11521757,494,-0.0220,-0.0166,1.0225,0.0610,0.1221,-0.1831,1,492,840,0
11526756,495,-0.0225,-0.0186,1.0229,0.0610,0.1831,-0.1221,1,466,869,0
11531758,496,-0.0225,-0.0200,1.0229,0.0610,0.1831,-0.2441,1,483,867,0
11536756,497,-0.0234,-0.0200,1.0215,0.1221,0.2441,-0.3052,1,465,863,0
11541755,498,-0.0239,-0.0200,1.0210,0.0610,0.1221,-0.2441,1,484,854,0
11546756,499,-0.0234,-0.0205,1.0210,0.1831,0.1221,-0.1831,1,466,893,0
11551759,500,-0.0229,-0.0200,1.0205,0.1831,0.0610,-0.1831,1,479,930,0
11556758,501,-0.0234,-0.0190,1.0210,0.1221,0.0000,-0.2441,1,475,863,0
11561761,502,-0.0234,-0.0181,1.0215,-0.0610,0.1831,-0.1831,1,477,820,0
11566754,503,-0.0229,-0.0176,1.0229,-0.0610,0.0610,-0.1221,1,472,870,0
11571760,504,-0.0234,-0.0190,1.0234,-0.0610,0.0610,-0.1831,1,479,851,0
11576754,505,-0.0229,-0.0200,1.0225,0.1221,0.0000,-0.1831,1,470,855,0
11581781,506,-0.0234,-0.0195,1.0210,0.0610,0.1221,-0.2441,1,484,806,0
11586756,507,-0.0234,-0.0181,1.0205,-0.0610,0.0610,-0.2441,1,466,849,0
11591762,508,-0.0229,-0.0181,1.0215,0.0000,-0.0610,-0.1831,1,493,866,0
11596761,509,-0.0229,-0.0190,1.0210,0.0000,0.0610,-0.1831,1,483,824,0
11601760,510,-0.0229,-0.0181,1.0200,-0.0610,0.1221,-0.1831,1,494,751,0
11606761,511,-0.0234,-0.0176,1.0205,-0.1221,0.1221,-0.2441,1,464,849,0
11611759,512,-0.0239,-0.0181,1.0215,0.0000,0.1221,-0.2441,1,490,839,0
11616763,513,-0.0229,-0.0176,1.0215,0.1221,0.0610,-0.1221,1,473,822,0
11621756,514,-0.0220,-0.0176,1.0215,0.0000,0.1221,-0.2441,1,474,836,0
11626762,515,-0.0215,-0.0190,1.0220,0.0000,0.1831,-0.3662,1,485,795,0
11631759,516,-0.0225,-0.0190,1.0215,-0.0610,0.1221,-0.3662,1,473,799,0
11636755,517,-0.0229,-0.0186,1.0200,0.0610,0.1221,-0.1221,1,474,840,0
11641759,518,-0.0220,-0.0190,1.0200,0.0000,0.1221,-0.1831,1,493,835,0
11646759,519,-0.0215,-0.0195,1.0215,0.0610,0.2441,-0.2441,1,483,821,0
11651755,520,-0.0215,-0.0190,1.0225,0.0610,0.1831,-0.1221,1,465,874,0
11656757,521,-0.0205,-0.0181,1.0220,0.0000,0.1221,-0.1831,1,484,856,0
11661760,522,-0.0205,-0.0171,1.0215,-0.0610,0.2441,-0.3052,1,465,893,0
11666763,523,-0.0210,-0.0176,1.0205,-0.1221,0.2441,-0.3052,1,469,932,0
11671760,524,-0.0210,-0.0181,1.0205,0.0000,0.2441,-0.1831,1,465,856,0
11676761,525,-0.0215,-0.0186,1.0225,0.1221,0.3052,-0.1221,1,469,825,0
11681761,526,-0.0220,-0.0186,1.0239,-0.1221,0.3052,-0.1831,1,468,841,0
11686757,527,-0.0215,-0.0186,1.0234,-0.1221,0.1221,-0.1831,1,471,850,0
11691758,528,-0.0220,-0.0181,1.0220,-0.0610,0.1221,-0.0610,1,470,850,0
11696759,529,-0.0229,-0.0176,1.0215,-0.0610,0.2441,-0.1221,1,483,845,0
11701761,530,-0.0225,-0.0176,1.0215,0.0610,0.3662,-0.2441,1,466,869,0
11706757,531,-0.0220,-0.0171,1.0229,0.1221,0.3052,-0.2441,1,493,871,0
11711758,532,-0.0215,-0.0151,1.0239,0.0000,0.1831,-0.2441,1,471,865,0
11716755,533,-0.0215,-0.0146,1.0234,0.0000,0.1831,-0.1831,1,494,765,0
11721757,534,-0.0210,-0.0171,1.0229,0.1221,0.3052,-0.3662,1,488,804,0
11726754,535,-0.0210,-0.0181,1.0234,0.0610,0.4272,-0.3662,1,489,837,0
11731761,536,-0.0215,-0.0176,1.0229,0.0000,0.3662,-0.3052,1,489,842,0
11736758,537,-0.0205,-0.0181,1.0215,0.0000,0.3662,-0.3052,1,491,796,0
11741758,538,-0.0205,-0.0190,1.0220,0.0610,0.2441,-0.2441,1,479,792,0
11746761,539,-0.0225,-0.0190,1.0229,0.0610,0.3662,-0.3052,1,488,846,0
11751756,540,-0.0239,-0.0181,1.0229,0.0610,0.3662,-0.2441,1,493,841,0
11756754,541,-0.0239,-0.0176,1.0210,0.0610,0.3052,-0.1831,1,466,873,0
11761758,542,-0.0225,-0.0181,1.0200,0.0000,0.2441,-0.1831,1,466,865,0
11766756,543,-0.0215,-0.0186,1.0210,0.0000,0.2441,-0.1831,1,478,815,0
11771754,544,-0.0215,-0.0186,1.0225,0.0610,0.1221,-0.1831,1,465,885,0
11776756,545,-0.0215,-0.0186,1.0234,0.0000,0.1221,-0.2441,1,466,931,0
11781754,546,-0.0210,-0.0186,1.0239,-0.0610,0.1221,-0.2441,1,465,816,0
11786759,547,-0.0210,-0.0190,1.0239,-0.1831,0.1221,-0.2441,1,467,860,0
11791758,548,-0.0220,-0.0190,1.0234,-0.0610,0.3052,-0.1831,1,466,871,0
11796760,549,-0.0225,-0.0190,1.0215,0.0000,0.1831,-0.1831,1,467,853,0
11801754,550,-0.0229,-0.0190,1.0205,0.0000,0.0610,-0.2441,1,465,810,0
11806765,551,-0.0229,-0.0186,1.0210,-0.0610,0.1831,-0.2441,1,484,809,0
11811761,552,-0.0225,-0.0181,1.0229,0.0610,0.1221,-0.2441,1,466,872,0
11816757,553,-0.0205,-0.0186,1.0234,0.0610,0.1831,-0.1831,1,493,868,0
11821758,554,-0.0205,-0.0186,1.0229,0.0000,0.1221,-0.2441,1,474,873,0
11826759,555,-0.0205,-0.0186,1.0225,0.0610,0.1831,-0.2441,1,494,751,0
11831757,556,-0.0215,-0.0181,1.0225,0.1831,0.1831,-0.1221,1,466,817,0
11836757,557,-0.0225,-0.0181,1.0229,0.2441,0.1221,-0.1831,1,486,840,0
11841759,558,-0.0220,-0.0176,1.0234,0.1221,0.1221,-0.1831,1,490,844,0
11846763,559,-0.0215,-0.0171,1.0234,0.0610,0.1831,-0.1831,1,471,867,0
11851759,560,-0.0220,-0.0176,1.0234,0.1831,0.1221,-0.1831,1,474,843,0
11856756,561,-0.0220,-0.0181,1.0239,0.1221,0.1831,-0.2441,1,482,846,0
11861761,562,-0.0210,-0.0171,1.0225,0.0000,0.1221,-0.1831,1,493,843,0
11866760,563,-0.0200,-0.0181,1.0215,0.1221,0.2441,-0.2441,1,493,790,0
11871762,564,-0.0190,-0.0190,1.0225,0.0610,0.2441,-0.3662,1,483,866,0
11876760,565,-0.0190,-0.0186,1.0234,0.0610,0.2441,-0.3052,1,466,862,0
11881755,566,-0.0200,-0.0171,1.0239,0.0000,0.3662,-0.2441,1,484,859,0
11886763,567,-0.0215,-0.0166,1.0234,0.1221,0.4883,-0.3662,1,467,818,0
11891758,568,-0.0225,-0.0166,1.0229,0.0000,0.3052,-0.3052,1,465,863,0
11896757,569,-0.0225,-0.0176,1.0229,-0.0610,0.3052,-0.3052,1,470,776,0
11901759,570,-0.0229,-0.0195,1.0225,0.1221,0.3662,-0.2441,1,470,818,0
11906762,571,-0.0210,-0.0195,1.0234,0.1831,0.4272,-0.1831,1,471,857,0
11911755,572,-0.0200,-0.0181,1.0249,0.0610,0.4883,-0.2441,1,469,861,0
11916757,573,-0.0205,-0.0176,1.0244,0.0610,0.3662,-0.2441,1,483,850,0
11921762,574,-0.0210,-0.0171,1.0225,0.0000,0.3662,-0.2441,1,466,857,0
11926757,575,-0.0215,-0.0171,1.0215,0.0610,0.3662,-0.2441,1,492,824,0
11931755,576,-0.0220,-0.0186,1.0205,0.1831,0.3052,-0.2441,1,466,869,0
11936759,577,-0.0225,-0.0195,1.0210,0.1831,0.3052,-0.3052,1,484,871,0
11941761,578,-0.0234,-0.0190,1.0220,-0.0610,0.3662,-0.3052,1,493,790,0
11946762,579,-0.0249,-0.0181,1.0225,0.0000,0.3052,-0.2441,1,490,849,0
11951755,580,-0.0254,-0.0176,1.0229,0.0610,0.3662,-0.2441,1,489,795,0
11956755,581,-0.0239,-0.0190,1.0225,0.0000,0.2441,-0.1221,1,483,846,0
11961755,582,-0.0220,-0.0186,1.0210,0.0610,0.1221,-0.1221,1,487,797,0
11966754,583,-0.0220,-0.0171,1.0200,-0.0610,0.1221,-0.1221,1,482,833,0
11971755,584,-0.0229,-0.0176,1.0210,0.0610,0.1221,-0.1831,1,484,831,0
11976774,585,-0.0239,-0.0176,1.0220,0.0610,0.1221,-0.2441,1,492,839,0
11981755,586,-0.0244,-0.0176,1.0225,-0.0610,0.1221,-0.2441,1,493,840,0
11986760,587,-0.0249,-0.0176,1.0220,-0.0610,0.0610,-0.1831,1,484,869,0
11991760,588,-0.0259,-0.0176,1.0210,0.0000,0.0610,-0.1221,1,469,861,0
11996760,589,-0.0249,-0.0176,1.0210,0.0000,0.0000,-0.1831,1,484,845,0
12001755,590,-0.0229,-0.0181,1.0225,0.0000,0.0610,-0.2441,1,470,780,0
12006757,591,-0.0215,-0.0181,1.0239,-0.0610,0.1221,-0.2441,1,475,823,0
12011754,592,-0.0210,-0.0176,1.0225,-0.0610,0.0000,-0.1831,1,473,866,0
12016755,593,-0.0205,-0.0176,1.0205,-0.0610,0.1221,-0.1831,1,474,805,0
12021754,594,-0.0200,-0.0181,1.0205,-0.1221,0.0000,-0.1221,1,476,851,0
12026755,595,-0.0205,-0.0186,1.0225,-0.0610,0.0000,-0.1221,1,477,799,0
12031760,596,-0.0200,-0.0181,1.0239,-0.1831,0.0610,-0.1221,1,484,801,0
12036787,597,-0.0234,-0.0181,1.0225,0.0000,0.3052,-0.2441,1,466,849,0
12041762,598,-0.0229,-0.0181,1.0220,-0.0610,0.4272,-0.3052,1,466,820,0
12046761,599,-0.0220,-0.0181,1.0215,0.0000,0.3662,-0.3052,1,493,867,0
12051760,600,-0.0205,-0.0181,1.0205,0.0610,0.3662,-0.2441,1,482,746,0
12056757,601,-0.0200,-0.0176,1.0200,0.0610,0.3052,-0.1221,1,466,796,0
12061758,602,-0.0195,-0.0166,1.0220,0.0610,0.5493,-0.3052,1,473,841,0
12066756,603,-0.0195,-0.0171,1.0239,-0.1221,0.5493,-0.3052,1,487,843,0
12071756,604,-0.0210,-0.0176,1.0234,-0.1221,0.4883,-0.3052,1,490,842,0
12076755,605,-0.0229,-0.0186,1.0229,-0.0610,0.6714,-0.3052,1,492,836,0
12081758,606,-0.0244,-0.0186,1.0215,-0.0610,0.6714,-0.2441,1,475,840,0
12086754,607,-0.0244,-0.0190,1.0200,-0.0610,0.6104,-0.1831,1,474,844,0
12091757,608,-0.0234,-0.0205,1.0200,0.0610,0.6714,-0.3662,1,492,841,0
12096756,609,-0.0229,-0.0210,1.0200,-0.0610,0.6104,-0.3052,1,493,839,0
12101759,610,-0.0239,-0.0200,1.0205,-0.1221,0.5493,-0.3052,1,483,834,0
12106759,611,-0.0234,-0.0195,1.0205,0.0610,0.6104,-0.3052,1,465,857,0
12111756,612,-0.0220,-0.0186,1.0200,0.0610,0.5493,-0.3052,1,484,854,0
12116762,613,-0.0205,-0.0176,1.0210,-0.0610,0.6104,-0.3052,1,465,893,0
12121759,614,-0.0200,-0.0186,1.0220,0.0000,0.6104,-0.3052,1,483,900,0
12126760,615,-0.0210,-0.0195,1.0215,0.0000,0.6104,-0.3052,1,483,816,0
12131757,616,-0.0220,-0.0200,1.0220,-0.0610,0.6104,-0.3052,1,480,773,0
12136763,617,-0.0239,-0.0205,1.0225,-0.0610,0.4883,-0.1831,1,480,816,0
12141758,618,-0.0244,-0.0200,1.0229,-0.0610,0.4883,-0.1831,1,477,854,0
12146754,619,-0.0249,-0.0190,1.0225,-0.0610,0.4272,-0.2441,1,480,857,0
12151758,620,-0.0244,-0.0181,1.0229,0.0000,0.4883,-0.2441,1,483,857,0
12156758,621,-0.0225,-0.0166,1.0239,0.0000,0.6104,-0.2441,1,466,827,0
12161761,622,-0.0205,-0.0171,1.0239,0.0000,0.3662,-0.1831,1,493,827,0
12166754,623,-0.0205,-0.0186,1.0229,-0.0610,0.3052,-0.3052,1,493,827,0
12171760,624,-0.0225,-0.0181,1.0229,-0.0610,0.3662,-0.3052,1,479,864,0
12176762,625,-0.0229,-0.0176,1.0229,0.0000,0.3662,-0.2441,1,493,791,0
12181755,626,-0.0225,-0.0176,1.0229,0.0610,0.4272,-0.3052,1,479,804,0
12186754,627,-0.0229,-0.0176,1.0234,0.0000,0.1831,-0.2441,1,491,840,0
12191755,628,-0.0239,-0.0181,1.0239,-0.0610,0.2441,-0.1221,1,475,825,0
12196756,629,-0.0244,-0.0195,1.0239,0.0000,0.2441,-0.2441,1,491,843,0
12201757,630,-0.0239,-0.0215,1.0229,0.0000,0.3052,-0.1831,1,473,806,0
12206759,631,-0.0229,-0.0205,1.0225,0.0610,0.3052,-0.1221,1,476,798,0
12211775,632,-0.0229,-0.0186,1.0220,-0.1221,0.2441,-0.1831,1,493,835,0
12216762,633,-0.0225,-0.0176,1.0215,-0.0610,0.1831,-0.1831,1,493,845,0
12221759,634,-0.0220,-0.0176,1.0229,0.1221,0.1831,-0.2441,1,483,872,0
12226761,635,-0.0210,-0.0176,1.0239,0.0610,0.2441,-0.1831,1,472,863,0
12231760,636,-0.0210,-0.0186,1.0234,0.0610,0.1221,-0.2441,1,484,862,0
12236757,637,-0.0225,-0.0190,1.0220,0.0610,0.0610,-0.2441,1,474,908,0
12241761,638,-0.0244,-0.0200,1.0215,0.0610,0.0000,-0.1831,1,479,858,0
12246754,639,-0.0254,-0.0210,1.0205,0.0000,-0.0610,-0.1831,1,477,824,0
12251761,640,-0.0249,-0.0195,1.0205,0.0610,0.0000,-0.1831,1,465,805,0
12256754,641,-0.0239,-0.0176,1.0215,0.0610,0.0000,-0.1221,1,479,811,0
12261757,642,-0.0220,-0.0171,1.0220,0.0610,0.0610,-0.3052,1,466,802,0
12266756,643,-0.0215,-0.0171,1.0225,0.0610,0.0000,-0.2441,1,483,844,0
12271757,644,-0.0225,-0.0171,1.0225,0.0610,0.0000,-0.1831,1,466,822,0
12276755,645,-0.0249,-0.0171,1.0225,0.0000,0.0000,-0.1831,1,466,822,0
12281760,646,-0.0249,-0.0181,1.0225,0.0610,0.0610,-0.1831,1,465,725,0
12286758,647,-0.0244,-0.0186,1.0220,0.0000,0.0000,-0.2441,1,494,868,0
12291761,648,-0.0249,-0.0190,1.0220,-0.0610,0.1221,-0.1221,1,466,753,0
12296755,649,-0.0249,-0.0200,1.0215,0.0610,0.1221,-0.1831,1,490,860,0
12301756,650,-0.0249,-0.0195,1.0190,0.0000,0.1221,-0.1831,1,471,841,0
12306756,651,-0.0249,-0.0186,1.0181,0.0000,0.1831,-0.1831,1,474,800,0
12311759,652,-0.0239,-0.0186,1.0200,-0.0610,0.0610,-0.2441,1,479,799,0
12316759,653,-0.0234,-0.0186,1.0229,0.1221,-0.1221,-0.1831,1,483,841,0
12321763,654,-0.0234,-0.0181,1.0244,0.1221,0.0610,-0.0610,1,485,841,0
12326762,655,-0.0225,-0.0181,1.0234,0.1221,0.2441,-0.1831,1,493,836,0
12331756,656,-0.0229,-0.0181,1.0220,0.0000,0.1221,-0.1831,1,510,842,0
12336759,657,-0.0239,-0.0171,1.0210,-0.1221,0.1221,-0.0610,1,465,758,0
12341756,658,-0.0249,-0.0176,1.0210,0.0610,0.0610,-0.0610,1,484,799,0
12346755,659,-0.0249,-0.0200,1.0225,0.0610,0.1221,-0.2441,1,465,905,0
12351761,660,-0.0239,-0.0215,1.0234,0.0000,0.2441,-0.0610,1,467,859,0
12356756,661,-0.0225,-0.0210,1.0229,0.0000,0.3662,-0.1221,1,466,827,0
12361754,662,-0.0210,-0.0200,1.0220,-0.1221,0.2441,-0.1831,1,468,806,0
12366760,663,-0.0200,-0.0186,1.0220,-0.0610,0.2441,-0.1831,1,475,851,0
12371754,664,-0.0210,-0.0171,1.0215,0.0000,0.2441,-0.3052,1,468,853,0
12376757,665,-0.0220,-0.0171,1.0210,0.0610,0.1221,-0.2441,1,483,801,0
12381780,666,-0.0220,-0.0176,1.0215,0.0610,0.2441,-0.2441,1,466,846,0
12386759,667,-0.0220,-0.0176,1.0220,0.0000,0.3662,-0.2441,1,466,871,0
12391760,668,-0.0220,-0.0186,1.0220,0.0000,0.3052,-0.2441,1,493,827,0
12396757,669,-0.0220,-0.0190,1.0215,0.0610,0.3052,-0.3662,1,483,767,0
12401761,670,-0.0234,-0.0200,1.0210,0.0000,0.3662,-0.3052,1,493,813,0
12406756,671,-0.0244,-0.0195,1.0205,0.0000,0.3662,-0.3052,1,464,791,0
12411754,672,-0.0234,-0.0181,1.0205,-0.0610,0.2441,-0.1831,1,486,799,0
12416754,673,-0.0220,-0.0171,1.0210,0.0610,0.2441,-0.2441,1,490,843,0
12421761,674,-0.0220,-0.0166,1.0215,0.0000,0.3662,-0.3052,1,471,868,0
12426760,675,-0.0225,-0.0171,1.0215,-0.0610,0.2441,-0.2441,1,489,797,0
12431756,676,-0.0225,-0.0186,1.0210,0.0000,0.0610,-0.2441,1,485,842,0
12436762,677,-0.0225,-0.0186,1.0210,0.0610,0.1221,-0.1221,1,491,792,0
12441759,678,-0.0229,-0.0190,1.0215,-0.1221,0.1221,-0.1221,1,492,832,0
12446757,679,-0.0234,-0.0190,1.0220,0.1221,0.2441,-0.1831,1,511,836,0
12451762,680,-0.0234,-0.0190,1.0225,0.1221,0.1831,-0.1831,1,465,870,0
12456756,681,-0.0229,-0.0186,1.0225,-0.0610,0.1221,-0.3052,1,475,862,0
12461759,682,-0.0229,-0.0181,1.0215,-0.0610,0.1831,-0.2441,1,465,864,0
12466759,683,-0.0239,-0.0176,1.0205,0.0000,0.1221,-0.1831,1,471,899,0
12471760,684,-0.0249,-0.0171,1.0210,0.1221,0.0610,-0.0610,1,471,823,0
12476759,685,-0.0249,-0.0176,1.0220,0.1831,-0.0610,-0.1831,1,467,862,0
12481761,686,-0.0225,-0.0181,1.0225,0.2441,0.0000,-0.1221,1,469,874,0
12486760,687,-0.0215,-0.0181,1.0234,0.0610,0.0000,-0.1221,1,468,803,0
12491758,688,-0.0210,-0.0186,1.0239,0.0610,-0.0610,-0.1221,1,468,801,0
12496757,689,-0.0215,-0.0195,1.0229,0.1831,-0.1221,-0.1221,1,484,847,0
12501776,690,-0.0229,-0.0200,1.0220,0.1221,0.0000,-0.1221,1,465,853,0
12506762,691,-0.0244,-0.0195,1.0229,0.0610,-0.1221,-0.2441,1,466,819,0
12511759,692,-0.0239,-0.0186,1.0225,0.0610,-0.1221,-0.0610,1,493,875,0
12516755,693,-0.0225,-0.0171,1.0215,0.0610,-0.1221,-0.1221,1,480,865,0
12521757,694,-0.0210,-0.0166,1.0205,0.0000,-0.0610,-0.2441,1,466,855,0
12526760,695,-0.0215,-0.0176,1.0205,0.0000,0.0000,-0.1831,1,476,799,0
12531754,696,-0.0229,-0.0181,1.0205,0.0610,-0.0610,-0.1831,1,491,751,0
12536756,697,-0.0234,-0.0181,1.0205,0.0610,-0.0610,-0.0610,1,483,842,0
12541763,698,-0.0239,-0.0190,1.0225,0.1221,0.0610,-0.1221,1,488,835,0
12546757,699,-0.0225,-0.0200,1.0244,0.0610,0.1221,-0.1831,1,488,837,0
12551756,700,-0.0220,-0.0205,1.0239,0.0610,0.0610,-0.1831,1,476,839,0
12556762,701,-0.0220,-0.0190,1.0215,-0.1221,0.1221,-0.2441,1,493,843,0
12561754,702,-0.0220,-0.0176,1.0215,-0.0610,0.0000,-0.1221,1,483,866,0
12566760,703,-0.0225,-0.0171,1.0239,0.0610,-0.0610,-0.1831,1,466,808,0
12571754,704,-0.0215,-0.0176,1.0249,0.0000,0.0610,-0.1831,1,485,858,0
12576758,705,-0.0195,-0.0171,1.0239,0.0610,0.1831,-0.3662,1,465,817,0
12581754,706,-0.0205,-0.0171,1.0225,0.0610,0.3052,-0.1831,1,465,864,0
12586755,707,-0.0229,-0.0176,1.0200,0.0610,0.1221,-0.3052,1,470,864,0
12591762,708,-0.0239,-0.0186,1.0195,-0.0610,0.2441,-0.2441,1,470,817,0
12596759,709,-0.0234,-0.0186,1.0190,0.0610,0.3052,-0.2441,1,466,859,0
12601754,710,-0.0225,-0.0181,1.0190,0.0610,0.3052,-0.2441,1,467,850,0
12606757,711,-0.0229,-0.0186,1.0205,0.0000,0.0610,-0.1831,1,483,847,0
12611778,712,-0.0234,-0.0190,1.0220,0.0610,0.0610,-0.1831,1,466,807,0
12616762,713,-0.0229,-0.0200,1.0229,0.0610,0.1831,-0.2441,1,466,870,0
12621757,714,-0.0220,-0.0190,1.0229,0.0000,0.1831,-0.1221,1,493,876,0
12626755,715,-0.0225,-0.0181,1.0215,-0.1221,0.2441,-0.0610,1,483,825,0
12631754,716,-0.0234,-0.0181,1.0215,0.0000,0.2441,-0.1831,1,465,790,0
12636757,717,-0.0244,-0.0186,1.0220,0.0000,0.1831,-0.3052,1,471,797,0
12641756,718,-0.0244,-0.0181,1.0225,-0.0610,0.1831,-0.1831,1,473,796,0
12646757,719,-0.0239,-0.0190,1.0225,-0.1221,0.3052,-0.2441,1,480,843,0
12651760,720,-0.0244,-0.0210,1.0229,-0.0610,0.2441,-0.2441,1,486,868,0
12656756,721,-0.0239,-0.0205,1.0229,0.0000,0.1831,-0.2441,1,490,847,0
12661755,722,-0.0229,-0.0195,1.0210,-0.0610,0.2441,-0.1831,1,475,805,0
12666762,723,-0.0234,-0.0186,1.0195,0.0000,0.1221,-0.1221,1,493,848,0
12671758,724,-0.0229,-0.0181,1.0210,0.0000,0.1221,-0.2441,1,510,791,0
12676756,725,-0.0220,-0.0186,1.0225,-0.0610,0.3052,-0.2441,1,466,810,0
12681754,726,-0.0220,-0.0195,1.0234,-0.0610,0.3662,-0.2441,1,484,857,0
12686761,727,-0.0225,-0.0190,1.0229,0.0000,0.2441,-0.2441,1,465,875,0
12691756,728,-0.0229,-0.0181,1.0210,0.0610,0.3662,-0.3052,1,471,820,0
12696755,729,-0.0229,-0.0166,1.0195,0.0000,0.2441,-0.3052,1,474,855,0
12701756,730,-0.0215,-0.0166,1.0205,-0.0610,0.2441,-0.1831,1,475,828,0
12706756,731,-0.0195,-0.0181,1.0215,0.0000,0.1831,-0.1831,1,473,829,0
12711756,732,-0.0190,-0.0181,1.0210,-0.0610,0.2441,-0.2441,1,474,810,0
12716759,733,-0.0200,-0.0166,1.0205,-0.0610,0.2441,-0.2441,1,470,851,0
12721759,734,-0.0205,-0.0161,1.0215,-0.0610,0.1831,-0.0610,1,483,857,0
12726760,735,-0.0205,-0.0171,1.0210,0.0000,0.1831,-0.0610,1,466,872,0
12731756,736,-0.0210,-0.0181,1.0200,0.2441,0.1221,-0.1221,1,493,820,0
12736761,737,-0.0220,-0.0190,1.0220,0.0610,0.0000,-0.1831,1,493,861,0
12741755,738,-0.0225,-0.0200,1.0239,0.0000,0.0610,-0.1831,1,475,750,0
12746756,739,-0.0225,-0.0195,1.0239,0.0610,0.0610,-0.1221,1,466,798,0
12751754,740,-0.0225,-0.0186,1.0220,0.1221,0.1221,-0.1831,1,490,849,0
12756754,741,-0.0220,-0.0176,1.0210,0.0000,0.1831,-0.0610,1,475,837,0
12761759,742,-0.0220,-0.0171,1.0215,-0.0610,0.0000,-0.2441,1,479,815,0
12766756,743,-0.0215,-0.0176,1.0229,0.0610,0.1221,-0.1221,1,489,796,0
12771757,744,-0.0200,-0.0186,1.0244,-0.0610,0.0610,-0.1221,1,475,836,0
12776758,745,-0.0195,-0.0186,1.0254,-0.0610,0.0610,-0.1221,1,477,837,0
12781756,746,-0.0200,-0.0186,1.0244,-0.0610,0.0000,-0.1221,1,493,837,0
12786756,747,-0.0220,-0.0195,1.0229,-0.1221,0.1221,-0.1831,1,493,792,0
12791759,748,-0.0220,-0.0186,1.0229,-0.1831,0.1831,-0.1831,1,465,870,0
12796759,749,-0.0215,-0.0186,1.0220,-0.0610,0.1221,-0.2441,1,473,866,0
12801758,750,-0.0210,-0.0195,1.0215,0.0610,0.1831,-0.1221,1,484,858,0
12806759,751,-0.0215,-0.0195,1.0205,0.0610,0.2441,-0.2441,1,472,895,0
12811754,752,-0.0225,-0.0186,1.0200,-0.0610,0.1831,-0.3052,1,474,863,0
12816756,753,-0.0229,-0.0176,1.0195,0.0000,0.1221,-0.1831,1,477,864,0
12821755,754,-0.0220,-0.0171,1.0195,0.1831,0.2441,-0.2441,1,475,809,0
12826762,755,-0.0220,-0.0176,1.0210,0.1831,0.2441,-0.1221,1,479,859,0
12831757,756,-0.0225,-0.0176,1.0229,0.0610,0.2441,-0.2441,1,472,852,0
12836756,757,-0.0229,-0.0186,1.0229,0.1221,0.1221,-0.2441,1,483,856,0
12841780,758,-0.0244,-0.0195,1.0225,0.1221,0.1831,-0.1831,1,466,870,0
12846755,759,-0.0254,-0.0195,1.0215,0.1831,0.2441,-0.1831,1,466,877,0
12851758,760,-0.0244,-0.0190,1.0215,0.1221,0.3052,-0.1831,1,493,877,0
12856759,761,-0.0220,-0.0186,1.0225,0.0610,0.1831,-0.3052,1,482,868,0
12861762,762,-0.0215,-0.0181,1.0225,0.1221,0.1831,-0.2441,1,464,793,0
12866756,763,-0.0220,-0.0176,1.0205,0.0610,0.0000,-0.1831,1,464,849,0
12871757,764,-0.0225,-0.0171,1.0200,0.1221,0.0610,-0.1831,1,474,797,0
12876761,765,-0.0225,-0.0171,1.0195,0.1221,0.1221,-0.1831,1,478,836,0
12881762,766,-0.0225,-0.0176,1.0195,0.1831,0.0610,-0.1831,1,481,864,0
12886758,767,-0.0215,-0.0171,1.0210,0.1831,0.0000,-0.1831,1,484,845,0
12891754,768,-0.0210,-0.0166,1.0234,0.0000,0.0000,-0.3662,1,490,795,0
12896760,769,-0.0215,-0.0176,1.0254,0.0000,0.0000,-0.2441,1,488,743,0
12901761,770,-0.0215,-0.0171,1.0249,0.1831,0.0000,-0.1221,1,511,739,0
12906754,771,-0.0215,-0.0166,1.0229,0.1831,-0.1831,-0.1831,1,465,759,0
12911756,772,-0.0210,-0.0176,1.0220,0.1831,-0.3052,-0.1221,1,484,869,0
12916758,773,-0.0210,-0.0190,1.0220,0.0610,-0.2441,-0.1221,1,466,892,0
12921760,774,-0.0205,-0.0205,1.0234,0.0610,-0.1831,-0.1221,1,469,932,0
12926757,775,-0.0205,-0.0195,1.0239,0.1831,-0.1831,-0.1221,1,466,862,0
12931755,776,-0.0210,-0.0181,1.0234,0.0610,-0.1221,-0.1221,1,472,867,0
12936756,777,-0.0215,-0.0176,1.0229,0.0610,0.0610,-0.1221,1,472,862,0
12941755,778,-0.0210,-0.0181,1.0229,-0.0610,0.0610,-0.1221,1,470,847,0
12946757,779,-0.0215,-0.0186,1.0229,0.0610,-0.0610,0.0000,1,468,845,0
12951756,780,-0.0220,-0.0186,1.0225,-0.1221,0.1221,-0.1221,1,483,804,0
12956762,781,-0.0229,-0.0186,1.0220,-0.1831,0.3052,-0.1831,1,466,861,0
12961754,782,-0.0225,-0.0186,1.0215,-0.0610,0.3662,-0.1831,1,466,873,0
12966759,783,-0.0229,-0.0186,1.0205,-0.0610,0.3052,-0.2441,1,493,871,0
12971755,784,-0.0229,-0.0190,1.0186,-0.0610,0.5493,-0.3052,1,466,869,0
12976756,785,-0.0225,-0.0186,1.0186,-0.0610,0.4883,-0.1831,1,494,817,0
12981754,786,-0.0220,-0.0176,1.0200,-0.1221,0.4272,-0.3052,1,470,849,0
12986762,787,-0.0205,-0.0176,1.0220,-0.1831,0.6104,-0.3052,1,473,836,0
12991762,788,-0.0190,-0.0186,1.0220,-0.1221,0.6104,-0.1831,1,491,837,0
12996761,789,-0.0190,-0.0195,1.0215,-0.1221,0.6714,-0.2441,1,472,840,0
13001763,790,-0.0205,-0.0195,1.0210,-0.1221,0.6714,-0.3052,1,490,870,0
13006757,791,-0.0220,-0.0190,1.0210,-0.1831,0.6104,-0.3052,1,492,836,0
13011768,792,-0.0234,-0.0186,1.0220,-0.0610,0.5493,-0.1831,1,477,837,0
13016758,793,-0.0244,-0.0181,1.0229,0.0000,0.5493,-0.3052,1,493,844,0
13021758,794,-0.0234,-0.0171,1.0234,-0.0610,0.5493,-0.2441,1,483,812,0
13026763,795,-0.0215,-0.0166,1.0234,-0.1221,0.4883,-0.3052,1,465,863,0
13031754,796,-0.0205,-0.0166,1.0220,-0.1221,0.4272,-0.3052,1,484,803,0
13036756,797,-0.0205,-0.0171,1.0220,-0.2441,0.3662,-0.3662,1,472,896,0
13041758,798,-0.0215,-0.0176,1.0225,-0.2441,0.3662,-0.3052,1,470,866,0
13046754,799,-0.0220,-0.0176,1.0220,-0.2441,0.3052,-0.3052,1,469,868,0
13051755,800,-0.0210,-0.0186,1.0225,0.0000,0.3052,-0.2441,1,475,819,0
13056755,801,-0.0205,-0.0205,1.0234,-0.1221,0.2441,-0.2441,1,472,803,0
13061754,802,-0.0205,-0.0200,1.0249,-0.1831,0.2441,-0.3052,1,470,857,0
13066762,803,-0.0210,-0.0186,1.0249,-0.1221,0.1831,-0.1221,1,484,856,0
13071757,804,-0.0210,-0.0186,1.0239,-0.0610,0.3052,-0.1221,1,483,849,0
13076760,805,-0.0200,-0.0186,1.0234,-0.0610,0.2441,-0.2441,1,466,865,0
13081757,806,-0.0190,-0.0171,1.0244,0.0000,0.1221,-0.2441,1,492,873,0
13086757,807,-0.0200,-0.0161,1.0239,0.1221,0.1221,-0.1831,1,466,750,0
13091758,808,-0.0215,-0.0171,1.0215,0.1221,0.1221,0.0000,1,494,870,0
13096762,809,-0.0229,-0.0186,1.0220,0.0610,0.0000,-0.1221,1,474,788,0
13101758,810,-0.0239,-0.0200,1.0239,0.1221,0.1221,-0.2441,1,490,793,0
13106760,811,-0.0239,-0.0200,1.0239,0.1221,0.1221,-0.2441,1,480,842,0
13111763,812,-0.0229,-0.0200,1.0229,0.1221,0.1831,-0.1221,1,483,841,0
13116755,813,-0.0220,-0.0195,1.0215,0.1221,0.0610,-0.1221,1,488,842,0
13121762,814,-0.0220,-0.0181,1.0215,0.2441,0.0000,-0.1221,1,478,836,0
13126777,815,-0.0220,-0.0176,1.0215,0.1221,0.1221,-0.1221,1,490,791,0
13131762,816,-0.0229,-0.0176,1.0215,0.2441,0.1831,-0.3662,1,492,833,0
13136757,817,-0.0239,-0.0171,1.0200,0.3052,0.1221,-0.1221,1,483,848,0
13141757,818,-0.0234,-0.0161,1.0195,0.2441,0.0610,-0.1221,1,473,849,0
13146762,819,-0.0234,-0.0161,1.0210,0.2441,0.0000,-0.3662,1,484,809,0
13151755,820,-0.0234,-0.0171,1.0234,0.1831,-0.0610,-0.3052,1,470,819,0
13156758,821,-0.0229,-0.0181,1.0244,0.1831,0.0000,-0.1831,1,478,858,0
13161759,822,-0.0225,-0.0181,1.0234,0.1831,-0.1221,-0.1831,1,476,829,0
13166758,823,-0.0225,-0.0176,1.0210,0.1221,-0.0610,-0.1221,1,474,870,0
13171761,824,-0.0220,-0.0176,1.0195,0.1221,-0.0610,-0.2441,1,479,843,0
13176758,825,-0.0215,-0.0190,1.0195,0.1221,-0.0610,-0.0610,1,477,852,0
13181756,826,-0.0205,-0.0200,1.0205,0.0610,-0.1221,-0.0610,1,483,848,0
13186781,827,-0.0200,-0.0200,1.0210,0.1221,0.0000,-0.2441,1,466,863,0
13191758,828,-0.0215,-0.0190,1.0210,0.1221,0.0000,-0.3052,1,466,820,0
13196756,829,-0.0225,-0.0171,1.0220,0.1831,-0.1221,-0.1831,1,493,817,0
13201760,830,-0.0225,-0.0151,1.0220,0.0610,-0.1221,-0.1831,1,466,869,0
13206754,831,-0.0229,-0.0161,1.0210,0.0000,0.0000,-0.2441,1,494,869,0
13211755,832,-0.0234,-0.0186,1.0210,0.1221,0.0610,-0.1221,1,471,755,0
13216761,833,-0.0234,-0.0200,1.0215,0.0000,0.1221,-0.1831,1,474,833,0
13221754,834,-0.0220,-0.0200,1.0215,0.0000,0.0610,-0.3052,1,491,794,0
13226757,835,-0.0205,-0.0176,1.0220,0.0000,0.0610,-0.1221,1,478,790,0
13231760,836,-0.0200,-0.0161,1.0225,0.0000,0.1831,-0.1831,1,490,791,0
13236758,837,-0.0210,-0.0161,1.0225,0.0000,0.1831,-0.1831,1,489,802,0
13241771,838,-0.0220,-0.0166,1.0225,0.0000,0.1831,-0.1221,1,471,799,0
13246755,839,-0.0215,-0.0171,1.0239,0.0000,0.3052,-0.1221,1,493,797,0
13251761,840,-0.0210,-0.0181,1.0234,0.0000,0.2441,-0.1831,1,484,806,0
13256761,841,-0.0210,-0.0190,1.0225,0.0610,0.2441,-0.1221,1,465,762,0
13261756,842,-0.0215,-0.0190,1.0225,0.1221,0.3052,-0.1221,1,484,857,0
13266756,843,-0.0215,-0.0186,1.0225,0.0000,0.3662,-0.1221,1,469,901,0
13271756,844,-0.0195,-0.0171,1.0239,-0.0610,0.4272,-0.1831,1,469,821,0
13276757,845,-0.0190,-0.0166,1.0244,-0.1221,0.4883,-0.3052,1,467,873,0
13281758,846,-0.0205,-0.0166,1.0234,-0.0610,0.2441,-0.1831,1,465,869,0
13286761,847,-0.0220,-0.0171,1.0225,0.0610,0.4272,-0.1831,1,465,861,0
13291757,848,-0.0225,-0.0176,1.0210,-0.0610,0.3662,-0.2441,1,483,851,0
13296759,849,-0.0225,-0.0186,1.0205,0.0000,0.3052,-0.1831,1,479,852,0
13301755,850,-0.0229,-0.0190,1.0205,0.0000,0.3662,-0.1831,1,484,804,0
13306760,851,-0.0220,-0.0190,1.0210,0.0610,0.4272,-0.2441,1,465,832,0
13311758,852,-0.0215,-0.0186,1.0210,-0.0610,0.3662,-0.2441,1,466,870,0
13316757,853,-0.0220,-0.0181,1.0215,-0.1831,0.3662,-0.3052,1,466,870,0
13321762,854,-0.0210,-0.0181,1.0215,-0.1221,0.3052,-0.1831,1,494,867,0
13326758,855,-0.0205,-0.0181,1.0215,-0.0610,0.2441,-0.1831,1,464,788,0
13331754,856,-0.0205,-0.0181,1.0210,-0.0610,0.3052,-0.1221,1,482,852,0
13336754,857,-0.0200,-0.0186,1.0220,-0.0610,0.3662,-0.1831,1,490,831,0
13341757,858,-0.0205,-0.0190,1.0234,0.0610,0.3052,-0.1831,1,476,844,0
13346762,859,-0.0220,-0.0195,1.0225,0.0610,0.3052,-0.1831,1,478,842,0
13351763,860,-0.0234,-0.0195,1.0200,-0.0610,0.2441,-0.2441,1,478,839,0
13356776,861,-0.0239,-0.0190,1.0186,0.0610,0.1831,-0.3052,1,481,845,0
13361761,862,-0.0239,-0.0186,1.0195,0.0610,0.1831,-0.2441,1,493,841,0
13366755,863,-0.0244,-0.0200,1.0215,0.0000,0.1831,-0.1831,1,511,847,0
13371759,864,-0.0239,-0.0195,1.0229,0.0610,0.1831,-0.1831,1,480,817,0
13376762,865,-0.0225,-0.0176,1.0220,0.1221,0.3052,-0.1831,1,465,868,0
13381755,866,-0.0205,-0.0166,1.0215,0.0610,0.2441,-0.2441,1,477,905,0
13386761,867,-0.0205,-0.0176,1.0215,0.0610,0.1221,-0.1831,1,465,865,0
13391755,868,-0.0234,-0.0181,1.0210,0.1221,0.1831,-0.1831,1,479,867,0
13396758,869,-0.0249,-0.0186,1.0200,0.1221,0.2441,-0.1831,1,465,866,0
13401760,870,-0.0229,-0.0190,1.0205,0.1221,0.1831,-0.2441,1,482,855,0
13406762,871,-0.0210,-0.0190,1.0220,0.0610,0.1831,-0.1221,1,480,857,0
13411757,872,-0.0210,-0.0195,1.0225,0.0000,0.2441,-0.1831,1,483,849,0
13416774,873,-0.0220,-0.0190,1.0229,0.0000,0.2441,-0.2441,1,466,826,0
13421762,874,-0.0220,-0.0181,1.0225,0.0000,0.1221,-0.1221,1,466,831,0
13426754,875,-0.0205,-0.0171,1.0225,0.0610,0.1221,-0.2441,1,493,818,0
13431761,876,-0.0200,-0.0176,1.0229,0.0610,0.1221,-0.2441,1,483,864,0
13436763,877,-0.0210,-0.0181,1.0229,0.0000,0.1831,-0.1831,1,492,867,0
13441758,878,-0.0215,-0.0181,1.0229,0.0000,0.1831,-0.1221,1,464,798,0
13446760,879,-0.0215,-0.0181,1.0229,-0.0610,0.2441,-0.3662,1,486,794,0
13451756,880,-0.0215,-0.0176,1.0220,0.0610,0.2441,-0.2441,1,489,845,0
13456754,881,-0.0215,-0.0176,1.0215,-0.0610,0.3052,-0.1831,1,478,843,0
13461763,882,-0.0220,-0.0181,1.0210,0.0610,0.1831,-0.1831,1,486,839,0
13466756,883,-0.0220,-0.0190,1.0220,0.0610,0.1831,-0.2441,1,473,839,0
13471758,884,-0.0200,-0.0186,1.0229,0.0610,0.2441,-0.2441,1,479,845,0
13476756,885,-0.0195,-0.0176,1.0239,0.0000,0.3662,-0.2441,1,492,845,0
13481759,886,-0.0205,-0.0176,1.0234,-0.1221,0.2441,-0.1831,1,465,821,0
13486756,887,-0.0205,-0.0181,1.0234,-0.1221,0.3052,-0.2441,1,477,863,0
13491754,888,-0.0186,-0.0190,1.0239,-0.0610,0.4272,-0.1831,1,466,866,0
13496763,889,-0.0181,-0.0195,1.0244,0.0000,0.3052,-0.3052,1,482,902,0
13501762,890,-0.0205,-0.0181,1.0244,-0.1221,0.3662,-0.2441,1,474,819,0
13506759,891,-0.0225,-0.0166,1.0220,-0.1221,0.3052,-0.2441,1,472,871,0
13511757,892,-0.0229,-0.0166,1.0210,-0.0610,0.3052,-0.1221,1,472,823,0
13516757,893,-0.0234,-0.0181,1.0220,-0.0610,0.4272,-0.1831,1,474,848,0
13521760,894,-0.0215,-0.0186,1.0234,0.0000,0.4272,-0.2441,1,472,853,0
13526760,895,-0.0200,-0.0181,1.0239,0.0610,0.3662,-0.1831,1,484,811,0
13531760,896,-0.0195,-0.0176,1.0234,-0.0610,0.1831,-0.3052,1,466,853,0
13536761,897,-0.0215,-0.0181,1.0205,0.0610,0.3052,-0.1831,1,466,873,0
13541762,898,-0.0220,-0.0190,1.0200,-0.0610,0.2441,-0.2441,1,466,864,0
13546758,899,-0.0225,-0.0190,1.0200,0.0000,0.2441,-0.3052,1,466,872,0
13551757,900,-0.0220,-0.0186,1.0200,0.1221,0.1831,-0.2441,1,495,746,0
13556758,901,-0.0215,-0.0186,1.0215,0.0610,0.2441,-0.2441,1,464,852,0
13561762,902,-0.0215,-0.0186,1.0225,0.0000,0.0610,-0.1221,1,488,816,0
13566759,903,-0.0225,-0.0176,1.0225,0.0000,0.0610,-0.1221,1,479,791,0
13571757,904,-0.0220,-0.0166,1.0229,0.0000,0.0610,-0.1221,1,483,790,0
13576758,905,-0.0220,-0.0176,1.0234,0.0610,0.0610,-0.0610,1,490,797,0
13581758,906,-0.0215,-0.0186,1.0225,0.0610,0.0610,-0.0610,1,473,838,0
13586770,907,-0.0210,-0.0176,1.0220,0.0000,0.0610,-0.1221,1,474,835,0
13591759,908,-0.0220,-0.0181,1.0225,-0.0610,0.1221,-0.1221,1,492,789,0
13596762,909,-0.0234,-0.0190,1.0229,0.1221,0.1831,-0.1221,1,510,833,0
13601763,910,-0.0234,-0.0195,1.0229,0.0610,0.1831,-0.1221,1,465,860,0
13606755,911,-0.0234,-0.0186,1.0229,0.1221,0.1831,-0.2441,1,484,861,0
13611763,912,-0.0234,-0.0176,1.0220,0.1221,0.3052,-0.2441,1,469,900,0
13616760,913,-0.0229,-0.0171,1.0215,0.0610,0.1831,-0.1831,1,482,932,0
13621763,914,-0.0225,-0.0181,1.0229,0.0610,0.1221,-0.2441,1,466,871,0
13626756,915,-0.0220,-0.0186,1.0229,0.1221,0.1221,-0.1221,1,465,866,0
13631754,916,-0.0220,-0.0186,1.0225,0.0000,0.3052,-0.1221,1,471,846,0
13636760,917,-0.0220,-0.0181,1.0220,-0.1831,0.4883,-0.0610,1,472,801,0
13641761,918,-0.0225,-0.0186,1.0210,-0.1221,0.2441,-0.0610,1,480,850,0
13646761,919,-0.0220,-0.0186,1.0200,0.0610,0.1831,-0.2441,1,483,848,0
13651761,920,-0.0210,-0.0181,1.0220,0.0000,0.2441,-0.1221,1,466,871,0
13656762,921,-0.0200,-0.0166,1.0239,0.0000,0.1831,-0.1221,1,466,820,0
13661756,922,-0.0200,-0.0166,1.0234,-0.1831,0.1221,-0.1221,1,466,828,0
13666756,923,-0.0205,-0.0171,1.0220,-0.0610,0.1221,-0.1831,1,473,870,0
13671755,924,-0.0195,-0.0176,1.0210,-0.0610,0.1831,-0.1831,1,494,788,0
13676758,925,-0.0195,-0.0176,1.0205,-0.0610,0.1831,-0.3052,1,485,854,0
13681754,926,-0.0205,-0.0176,1.0210,-0.0610,0.2441,-0.1221,1,488,841,0
13686758,927,-0.0205,-0.0181,1.0229,-0.0610,0.3662,-0.1221,1,476,839,0
13691758,928,-0.0205,-0.0176,1.0244,0.0610,0.2441,-0.2441,1,477,860,0
13696763,929,-0.0200,-0.0181,1.0234,0.1831,0.6104,-0.3662,1,483,847,0
13701772,930,-0.0205,-0.0181,1.0229,0.3052,0.4272,-0.1831,1,474,842,0
13706756,931,-0.0215,-0.0171,1.0244,0.0000,0.1221,-0.1221,1,487,843,0
13711757,932,-0.0225,-0.0181,1.0244,-0.1221,0.3662,-0.1221,1,511,778,0
13716760,933,-0.0225,-0.0190,1.0225,-0.1221,0.4272,-0.2441,1,469,854,0
13721761,934,-0.0225,-0.0190,1.0210,0.0000,0.3052,-0.3052,1,484,861,0
13726758,935,-0.0220,-0.0186,1.0200,0.0610,0.1831,-0.3052,1,467,806,0
13731754,936,-0.0220,-0.0186,1.0200,0.0000,0.3052,-0.2441,1,474,855,0
13736758,937,-0.0234,-0.0186,1.0210,-0.0610,0.3052,-0.1831,1,479,775,0
13741762,938,-0.0239,-0.0186,1.0210,0.0610,0.4883,-0.2441,1,476,819,0
13746760,939,-0.0229,-0.0186,1.0210,0.1221,0.3662,-0.3052,1,469,851,0
13751755,940,-0.0225,-0.0186,1.0220,0.0000,0.4272,-0.2441,1,469,848,0
13756762,941,-0.0234,-0.0186,1.0234,0.0610,0.4272,-0.1831,1,484,808,0
13761763,942,-0.0234,-0.0190,1.0229,0.0000,0.4272,-0.3052,1,483,856,0
13766784,943,-0.0229,-0.0205,1.0210,-0.1221,0.3052,-0.1831,1,465,825,0
13771761,944,-0.0234,-0.0205,1.0210,-0.1221,0.4883,-0.2441,1,466,867,0
13776755,945,-0.0220,-0.0205,1.0220,0.0000,0.4272,-0.2441,1,494,868,0
13781759,946,-0.0205,-0.0200,1.0225,0.0610,0.2441,-0.3052,1,488,754,0
13786762,947,-0.0210,-0.0195,1.0215,0.0000,0.3052,-0.3052,1,467,799,0
13791762,948,-0.0210,-0.0186,1.0210,0.0000,0.3052,-0.2441,1,490,788,0
13796759,949,-0.0220,-0.0181,1.0210,0.0610,0.3662,-0.2441,1,473,792,0
13801755,950,-0.0229,-0.0181,1.0215,-0.0610,0.2441,-0.1221,1,492,840,0
13806757,951,-0.0229,-0.0186,1.0225,-0.0610,0.3052,-0.1221,1,478,866,0
13811759,952,-0.0229,-0.0190,1.0239,-0.0610,0.2441,-0.3662,1,483,836,0
13816769,953,-0.0234,-0.0195,1.0244,-0.1221,0.3052,-0.3052,1,486,850,0
13821761,954,-0.0225,-0.0200,1.0244,-0.1221,0.2441,-0.2441,1,493,836,0
13826754,955,-0.0215,-0.0190,1.0229,0.0000,0.2441,-0.1831,1,511,844,0
13831761,956,-0.0225,-0.0181,1.0210,-0.0610,0.2441,-0.1831,1,470,765,0
13836762,957,-0.0225,-0.0181,1.0205,-0.0610,0.2441,-0.2441,1,484,802,0
13841760,958,-0.0210,-0.0186,1.0205,0.1221,0.0610,-0.1831,1,466,898,0
13846757,959,-0.0215,-0.0190,1.0215,-0.1221,0.1221,-0.0610,1,468,856,0
13851755,960,-0.0234,-0.0190,1.0229,-0.1221,0.3052,-0.3052,1,471,863,0
13856762,961,-0.0239,-0.0190,1.0234,0.0610,0.3052,-0.2441,1,473,819,0
13861762,962,-0.0234,-0.0190,1.0225,0.0610,0.2441,-0.1221,1,469,854,0
13866760,963,-0.0239,-0.0190,1.0220,-0.0610,0.1831,-0.3052,1,471,850,0
13871760,964,-0.0234,-0.0190,1.0220,-0.1831,0.1831,-0.2441,1,483,852,0
13876759,965,-0.0225,-0.0181,1.0225,-0.1831,0.3052,-0.1831,1,466,859,0
13881756,966,-0.0210,-0.0181,1.0220,-0.1831,0.3662,-0.2441,1,466,868,0
13886755,967,-0.0210,-0.0190,1.0205,-0.0610,0.3052,-0.1831,1,492,873,0
13891760,968,-0.0220,-0.0186,1.0200,-0.1831,0.1221,-0.2441,1,465,867,0
13896756,969,-0.0229,-0.0190,1.0205,-0.1221,0.1221,-0.3662,1,494,869,0
13901756,970,-0.0234,-0.0190,1.0210,0.0610,0.0610,-0.1221,1,494,797,0
13906761,971,-0.0229,-0.0195,1.0220,0.0610,0.1221,-0.1831,1,483,845,0
13911755,972,-0.0215,-0.0200,1.0234,0.1221,0.0610,-0.1831,1,485,842,0
13916756,973,-0.0200,-0.0190,1.0239,0.1221,0.0610,-0.2441,1,473,840,0
13921754,974,-0.0205,-0.0186,1.0229,0.0000,0.0610,-0.3052,1,478,841,0
13926758,975,-0.0205,-0.0186,1.0225,0.0610,0.2441,-0.3662,1,486,794,0
13931759,976,-0.0205,-0.0190,1.0220,0.1831,0.1831,-0.4883,1,478,844,0
13936758,977,-0.0205,-0.0186,1.0205,0.4272,0.1221,-0.4272,1,486,846,0
13941762,978,-0.0200,-0.0171,1.0225,0.5493,0.4883,-0.3052,1,465,868,0
13946759,979,-0.0190,-0.0161,1.0264,0.3662,0.1831,-0.3662,1,478,853,0
13951761,980,-0.0195,-0.0171,1.0273,0.1221,0.3052,-0.4883,1,465,877,0
13956754,981,-0.0200,-0.0171,1.0254,-0.0610,0.5493,-0.4272,1,483,905,0
13961758,982,-0.0200,-0.0166,1.0234,-0.3662,0.8545,-0.3052,1,470,859,0
13966757,983,-0.0190,-0.0166,1.0225,-0.7324,0.6714,-0.1831,1,468,863,0
13971761,984,-0.0190,-0.0166,1.0225,-0.7324,0.3662,-0.4272,1,471,830,0
13976758,985,-0.0210,-0.0166,1.0234,-0.7324,0.3052,-0.4272,1,467,861,0
13981762,986,-0.0229,-0.0166,1.0254,-0.6714,0.2441,-0.3662,1,470,856,0
13986756,987,-0.0229,-0.0186,1.0249,-0.4272,0.3052,-0.3662,1,484,860,0
13991784,988,-0.0215,-0.0195,1.0225,-0.2441,0.4883,-0.3662,1,466,875,0
13996762,989,-0.0215,-0.0190,1.0205,-0.3662,0.4272,-0.3052,1,466,877,0
14001757,990,-0.0239,-0.0186,1.0210,-0.2441,0.4883,-0.3052,1,466,870,0
14006757,991,-0.0249,-0.0181,1.0229,-0.1831,0.5493,-0.3662,1,466,868,0
14011755,992,-0.0244,-0.0171,1.0244,-0.1831,0.3662,-0.2441,1,494,878,0
14016759,993,-0.0239,-0.0181,1.0229,-0.3662,0.3662,-0.1831,1,474,832,0
14021754,994,-0.0234,-0.0190,1.0200,-0.3052,0.6104,-0.2441,1,474,850,0
14026758,995,-0.0220,-0.0200,1.0195,-0.1221,0.5493,-0.4272,1,487,839,0
14031757,996,-0.0205,-0.0200,1.0210,0.0000,0.6104,-0.4883,1,479,844,0
14036756,997,-0.0210,-0.0190,1.0220,0.0610,0.6104,-0.3052,1,485,789,0
14041767,998,-0.0229,-0.0190,1.0210,0.1221,0.2441,-0.1831,1,491,833,0
14046758,999,-0.0249,-0.0195,1.0186,0.1221,0.4883,-0.4272,1,481,844,0
14051759,1000,-0.0254,-0.0195,1.0176,0.3662,0.7324,-0.3662,1,511,842,0
14056759,1001,-0.0249,-0.0186,1.0186,0.1221,0.6104,-0.3662,1,465,876,0
14061757,1002,-0.0249,-0.0190,1.0190,-0.0610,0.4883,-0.4272,1,484,858,0
14066755,1003,-0.0244,-0.0205,1.0186,0.0610,0.6104,-0.5493,1,465,873,0
14071754,1004,-0.0239,-0.0205,1.0176,0.0610,0.7324,-0.4272,1,470,931,0
14076760,1005,-0.0244,-0.0205,1.0181,0.0610,0.4883,-0.3052,1,472,864,0
14081760,1006,-0.0239,-0.0205,1.0200,-0.0610,0.5493,-0.3052,1,467,856,0
14086755,1007,-0.0225,-0.0195,1.0215,-0.1221,0.3662,-0.3052,1,467,868,0
14091756,1008,-0.0234,-0.0190,1.0215,0.0000,0.1831,-0.2441,1,474,851,0
14096761,1009,-0.0259,-0.0195,1.0200,0.0610,0.3052,-0.3052,1,469,812,0
14101763,1010,-0.0254,-0.0205,1.0186,0.1831,0.2441,-0.2441,1,483,846,0
14106764,1011,-0.0239,-0.0200,1.0190,0.0000,0.1221,-0.2441,1,466,876,0
14111761,1012,-0.0249,-0.0181,1.0200,-0.0610,0.1221,-0.3052,1,466,825,0
14116761,1013,-0.0259,-0.0176,1.0215,-0.0610,0.0610,-0.3052,1,493,863,0
14121754,1014,-0.0259,-0.0195,1.0215,0.0610,0.0000,-0.1831,1,468,862,0
14126759,1015,-0.0239,-0.0200,1.0195,0.0610,0.3052,-0.1831,1,493,752,0
14131755,1016,-0.0220,-0.0195,1.0190,0.0000,0.3052,-0.1831,1,483,795,0
14136755,1017,-0.0215,-0.0181,1.0220,-0.0610,0.3052,-0.3052,1,485,798,0
14141755,1018,-0.0215,-0.0176,1.0234,0.0000,0.4883,-0.3052,1,488,833,0
14146756,1019,-0.0210,-0.0171,1.0225,0.0000,0.4272,-0.3052,1,472,795,0
14151760,1020,-0.0210,-0.0171,1.0220,0.0610,0.2441,-0.3052,1,480,791,0
14156762,1021,-0.0215,-0.0181,1.0225,-0.1831,0.3052,-0.3052,1,480,836,0
14161763,1022,-0.0220,-0.0200,1.0234,-0.3662,0.2441,-0.3662,1,492,834,0
14166754,1023,-0.0225,-0.0210,1.0249,-0.2441,0.2441,-0.3052,1,510,849,0
14171761,1024,-0.0234,-0.0205,1.0234,-0.1831,0.3052,-0.3052,1,465,862,0
14176757,1025,-0.0239,-0.0186,1.0210,-0.4272,0.2441,-0.2441,1,484,858,0
14181754,1026,-0.0229,-0.0171,1.0210,-0.3662,0.0000,-0.1831,1,465,903,0
14186756,1027,-0.0225,-0.0166,1.0215,-0.3662,0.1221,-0.3052,1,469,826,0
14191760,1028,-0.0225,-0.0176,1.0210,-0.3662,0.3052,-0.2441,1,467,868,0
14196761,1029,-0.0239,-0.0186,1.0210,-0.4883,0.2441,0.1221,1,482,860,0
14201755,1030,-0.0249,-0.0166,1.0229,-0.6104,0.1831,0.3052,1,482,868,0
14206754,1031,-0.0234,-0.0151,1.0244,-1.0986,0.3662,0.0000,1,466,855,0
14211755,1032,-0.0234,-0.0171,1.0244,-1.7090,0.3052,-0.1221,1,484,815,0
14216760,1033,-0.0249,-0.0195,1.0234,-1.8311,0.0610,-0.0610,1,483,846,0
14221788,1034,-0.0249,-0.0215,1.0220,-1.8921,0.0610,0.0000,1,466,872,0
14226755,1035,-0.0239,-0.0220,1.0210,-1.8921,0.0000,0.0000,1,466,823,0
14231761,1036,-0.0229,-0.0215,1.0215,-1.4038,0.1221,-0.1221,1,466,703,0
14236756,1037,-0.0225,-0.0205,1.0215,-0.8545,0.1221,-0.1221,1,466,867,0
14241757,1038,-0.0220,-0.0205,1.0210,-0.4883,0.1831,-0.0610,1,493,789,0
14246760,1039,-0.0215,-0.0205,1.0215,-0.2441,0.0610,-0.0610,1,474,851,0
14251759,1040,-0.0215,-0.0205,1.0225,-0.4272,0.0000,-0.2441,1,478,841,0
14256756,1041,-0.0220,-0.0200,1.0225,-0.6104,0.0610,-0.2441,1,483,801,0
14261762,1042,-0.0229,-0.0210,1.0225,-0.6714,0.2441,-0.1221,1,490,840,0
14266755,1043,-0.0239,-0.0215,1.0234,-0.7324,0.3662,-0.1831,1,483,842,0
14271772,1044,-0.0234,-0.0210,1.0229,-0.6714,0.1831,-0.3052,1,472,852,0
14276756,1045,-0.0220,-0.0210,1.0215,-0.6104,0.1221,-0.1831,1,480,842,0
14281755,1046,-0.0215,-0.0215,1.0210,-0.3052,0.1221,-0.1831,1,511,838,0
14286756,1047,-0.0225,-0.0210,1.0210,0.0000,0.1221,-0.1221,1,473,852,0
14291761,1048,-0.0215,-0.0210,1.0195,0.2441,0.0000,-0.0610,1,484,842,0
14296759,1049,-0.0220,-0.0225,1.0215,0.6714,-0.0610,-0.1221,1,467,815,0
14301755,1050,-0.0239,-0.0225,1.0225,1.1597,0.0610,0.0000,1,471,855,0
14306754,1051,-0.0254,-0.0215,1.0220,1.0986,0.1221,0.0000,1,474,824,0
14311754,1052,-0.0249,-0.0220,1.0200,1.0986,0.1221,-0.1221,1,472,804,0
14316755,1053,-0.0239,-0.0225,1.0195,1.2207,0.3662,-0.2441,1,474,850,0
14321755,1054,-0.0239,-0.0225,1.0210,1.3428,0.5493,-0.2441,1,469,861,0
14326755,1055,-0.0239,-0.0210,1.0210,1.4038,0.5493,-0.2441,1,484,856,0
14331755,1056,-0.0239,-0.0190,1.0200,1.3428,0.4272,-0.4272,1,484,857,0
14336768,1057,-0.0234,-0.0190,1.0195,1.4648,0.5493,-0.6104,1,465,876,0
14341754,1058,-0.0234,-0.0200,1.0190,1.4648,0.7935,-0.6104,1,466,876,0
14346758,1059,-0.0234,-0.0200,1.0195,2.0142,0.7935,-0.4272,1,493,870,0
14351754,1060,-0.0229,-0.0195,1.0210,2.5635,0.6104,-0.1831,1,475,871,0
14356763,1061,-0.0229,-0.0171,1.0234,2.5024,0.4272,-0.0610,1,466,799,0
14361757,1062,-0.0229,-0.0151,1.0249,1.5869,0.4883,-0.3662,1,486,801,0
14366762,1063,-0.0225,-0.0156,1.0244,0.7935,0.4272,-0.3052,1,490,863,0
14371758,1064,-0.0225,-0.0181,1.0244,0.6104,0.6714,-0.4883,1,492,843,0
14376754,1065,-0.0215,-0.0186,1.0234,0.6104,0.7324,-0.4272,1,484,865,0
14381755,1066,-0.0200,-0.0181,1.0220,0.4883,0.3662,-0.1831,1,491,844,0
14386758,1067,-0.0205,-0.0171,1.0225,0.3052,0.4272,-0.1831,1,471,841,0
14391759,1068,-0.0210,-0.0171,1.0239,0.2441,0.4272,-0.1831,1,492,841,0
14396755,1069,-0.0210,-0.0171,1.0249,0.4272,0.4883,-0.3052,1,466,874,0
14401755,1070,-0.0215,-0.0176,1.0239,0.3662,0.6714,-0.1831,1,484,856,0
14406760,1071,-0.0229,-0.0176,1.0229,0.3052,0.4272,-0.1221,1,465,874,0
14411754,1072,-0.0234,-0.0181,1.0225,0.2441,0.3052,-0.1831,1,465,931,0
14416761,1073,-0.0229,-0.0181,1.0220,0.2441,0.2441,-0.1831,1,472,860,0
14421762,1074,-0.0229,-0.0181,1.0229,0.1221,0.4272,-0.1831,1,466,867,0
14426760,1075,-0.0220,-0.0176,1.0229,0.0610,0.3662,-0.2441,1,467,871,0
14431758,1076,-0.0205,-0.0171,1.0225,0.1831,0.3662,-0.0610,1,472,858,0
14436757,1077,-0.0215,-0.0171,1.0225,0.3052,0.2441,0.0000,1,471,853,0
14441761,1078,-0.0225,-0.0171,1.0220,0.3662,0.1831,-0.0610,1,484,803,0
14446763,1079,-0.0225,-0.0171,1.0205,0.3662,0.1221,-0.1221,1,466,869,0
14451755,1080,-0.0229,-0.0176,1.0195,0.3052,0.0000,-0.0610,1,466,864,0
14456759,1081,-0.0244,-0.0176,1.0210,0.1221,-0.0610,-0.0610,1,492,823,0
14461754,1082,-0.0239,-0.0171,1.0225,0.1831,0.0610,-0.1221,1,466,863,0
14466761,1083,-0.0229,-0.0176,1.0225,0.2441,-0.0610,-0.1831,1,486,866,0
14471758,1084,-0.0234,-0.0181,1.0220,0.3662,0.0610,-0.1221,1,493,798,0
14476761,1085,-0.0254,-0.0190,1.0220,0.3662,0.3662,-0.1221,1,473,838,0
14481755,1086,-0.0259,-0.0181,1.0215,0.4883,0.4272,-0.1221,1,475,843,0
14486760,1087,-0.0239,-0.0166,1.0215,0.6714,0.3052,-0.0610,1,488,837,0
14491756,1088,-0.0234,-0.0161,1.0220,0.4883,0.3052,-0.0610,1,490,861,0
14496764,1089,-0.0249,-0.0166,1.0220,0.4883,0.2441,0.0000,1,476,839,0
14501761,1090,-0.0244,-0.0181,1.0210,0.4883,0.2441,-0.0610,1,488,802,0
14506754,1091,-0.0239,-0.0190,1.0210,0.5493,0.3052,-0.1221,1,510,838,0
14511756,1092,-0.0244,-0.0190,1.0220,0.5493,0.3662,-0.2441,1,465,857,0
14516760,1093,-0.0249,-0.0176,1.0225,0.4272,0.4272,-0.2441,1,484,867,0
14521759,1094,-0.0249,-0.0166,1.0225,0.3662,0.2441,-0.1831,1,465,905,0
14526756,1095,-0.0244,-0.0171,1.0220,0.2441,0.2441,-0.3662,1,467,954,0
14531762,1096,-0.0234,-0.0171,1.0215,0.1831,0.2441,-0.3662,1,472,874,0
14536759,1097,-0.0229,-0.0166,1.0220,-0.0610,0.0000,-0.2441,1,467,875,0
14541759,1098,-0.0229,-0.0176,1.0215,-0.1221,-0.1831,-0.4272,1,475,813,0
14546756,1099,-0.0234,-0.0181,1.0215,-0.3052,-0.2441,-0.5493,1,477,856,0
14551760,1100,-0.0229,-0.0181,1.0225,-0.3662,-0.3052,-0.4272,1,484,852,0
14556755,1101,-0.0225,-0.0181,1.0229,-0.2441,-0.1831,-0.6104,1,466,870,0
14561754,1102,-0.0225,-0.0171,1.0225,-0.1831,0.0000,-0.6104,1,466,873,0
14566755,1103,-0.0244,-0.0176,1.0225,-0.1831,0.1831,-0.6104,1,493,822,0
14571756,1104,-0.0244,-0.0190,1.0225,-0.0610,0.9155,-0.9155,1,494,873,0
14576754,1105,-0.0225,-0.0181,1.0244,0.6714,1.3428,-1.1597,1,485,874,0
14581761,1106,-0.0205,-0.0142,1.0244,0.2441,0.4883,-0.8545,1,464,814,0
14586755,1107,-0.0205,-0.0151,1.0239,-0.2441,0.3052,-0.9766,1,492,854,0
14591761,1108,-0.0210,-0.0171,1.0234,0.1221,0.2441,-0.7935,1,483,846,0
14596763,1109,-0.0225,-0.0171,1.0229,0.2441,0.1831,-0.7324,1,483,839,0
14601755,1110,-0.0229,-0.0166,1.0220,-0.0610,0.2441,-0.9155,1,476,869,0
14606754,1111,-0.0225,-0.0166,1.0215,0.1221,0.2441,-0.7935,1,492,849,0
14611762,1112,-0.0229,-0.0171,1.0215,0.0000,0.1831,-0.7935,1,473,842,0
14616761,1113,-0.0244,-0.0171,1.0220,0.0000,0.2441,-0.9155,1,510,797,0
14621759,1114,-0.0259,-0.0176,1.0220,0.1221,0.1221,-0.8545,1,465,762,0
14626763,1115,-0.0264,-0.0186,1.0220,0.0610,0.1221,-0.8545,1,484,797,0
14631762,1116,-0.0254,-0.0186,1.0210,0.0610,0.1221,-0.8545,1,465,893,0
14636755,1117,-0.0249,-0.0166,1.0210,0.1221,0.0000,-0.7935,1,479,931,0
14641758,1118,-0.0244,-0.0151,1.0220,0.0610,0.0610,-0.7935,1,466,795,0
14646761,1119,-0.0249,-0.0156,1.0215,0.0610,-0.1221,-0.8545,1,465,871,0
14651758,1120,-0.0254,-0.0171,1.0205,0.0610,-0.1221,-0.9766,1,465,851,0
14656762,1121,-0.0259,-0.0181,1.0200,0.0000,-0.1831,-0.9155,1,469,845,0
14661758,1122,-0.0259,-0.0190,1.0205,0.0000,-0.3052,-0.8545,1,484,808,0
14666759,1123,-0.0249,-0.0200,1.0200,0.0610,-0.1221,-0.8545,1,466,805,0
14671773,1124,-0.0239,-0.0200,1.0205,0.1221,-0.0610,-0.7935,1,466,866,0
14676757,1125,-0.0234,-0.0200,1.0225,0.1221,-0.3052,-0.7935,1,466,867,0
14681757,1126,-0.0234,-0.0190,1.0239,0.1831,-0.1831,-0.6714,1,493,863,0
14686762,1127,-0.0229,-0.0176,1.0229,0.0610,-0.1221,-0.6714,1,477,877,0
14691760,1128,-0.0229,-0.0161,1.0215,0.0610,-0.0610,-0.6714,1,493,798,0
14696757,1129,-0.0244,-0.0156,1.0220,0.1831,0.0000,-0.7935,1,486,797,0
14701757,1130,-0.0249,-0.0161,1.0220,-0.0610,0.1831,-0.8545,1,485,801,0
14706761,1131,-0.0244,-0.0166,1.0220,-0.1221,0.3052,-0.7935,1,489,848,0
14711759,1132,-0.0249,-0.0161,1.0229,-0.1831,0.5493,-0.8545,1,492,840,0
14716762,1133,-0.0239,-0.0171,1.0225,-0.2441,0.5493,-0.7324,1,476,854,0
14721757,1134,-0.0225,-0.0181,1.0205,-0.1831,0.0610,-0.6714,1,478,848,0
14726760,1135,-0.0215,-0.0181,1.0205,-0.0610,0.2441,-0.5493,1,488,839,0
14731761,1136,-0.0220,-0.0161,1.0210,-0.0610,0.1831,-0.4272,1,492,843,0
14736755,1137,-0.0229,-0.0151,1.0225,0.0000,0.1221,-0.3662,1,476,861,0
14741761,1138,-0.0220,-0.0161,1.0239,0.0000,0.0000,-0.3052,1,465,884,0
14746760,1139,-0.0195,-0.0171,1.0259,0.0610,-0.3052,-0.1831,1,479,780,0
14751758,1140,-0.0181,-0.0176,1.0259,-0.0610,-0.1831,-0.3052,1,480,859,0
14756756,1141,-0.0205,-0.0215,1.0195,-0.1221,-0.9155,0.0000,1,480,864,0
14761758,1142,-0.0215,-0.0205,1.0200,0.3052,-3.1128,0.9155,1,482,808,0
14766760,1143,-0.0195,-0.0151,1.0254,0.1221,-0.8545,0.3662,1,481,850,0
14771756,1144,-0.0195,-0.0142,1.0264,-0.1221,-0.2441,0.1831,1,479,855,0
14776758,1145,-0.0205,-0.0161,1.0244,-0.3052,-0.1221,-0.0610,1,484,856,0
14781762,1146,-0.0220,-0.0195,1.0215,-0.0610,-0.6714,0.3052,1,466,870,0
14786754,1147,-0.0229,-0.0195,1.0215,-0.0610,-0.6104,0.2441,1,466,866,0
14791760,1148,-0.0229,-0.0186,1.0220,0.0000,-0.2441,0.1221,1,466,872,0
14796756,1149,-0.0225,-0.0176,1.0220,0.0610,-0.3662,0.2441,1,466,825,0
14801758,1150,-0.0215,-0.0161,1.0225,-0.0610,-0.3662,0.3052,1,472,872,0
14806758,1151,-0.0205,-0.0166,1.0225,-0.1831,0.0000,0.1221,1,493,789,0
14811756,1152,-0.0210,-0.0190,1.0215,0.0000,-0.1831,0.0610,1,485,800,0
14816754,1153,-0.0225,-0.0190,1.0205,-0.0610,0.0000,0.0000,1,471,796,0
14821757,1154,-0.0239,-0.0186,1.0200,-0.0610,0.0610,0.0610,1,482,749,0
14826756,1155,-0.0239,-0.0166,1.0205,-0.0610,0.0000,0.0000,1,488,858,0
14831770,1156,-0.0234,-0.0156,1.0220,-0.0610,-0.0610,0.0610,1,475,753,0
14836761,1157,-0.0225,-0.0156,1.0225,-0.0610,0.0610,0.0000,1,482,839,0
14841754,1158,-0.0225,-0.0166,1.0229,-0.0610,0.0610,0.0610,1,510,783,0
14846755,1159,-0.0225,-0.0171,1.0234,0.0000,0.1221,0.1831,1,475,857,0
14851756,1160,-0.0229,-0.0176,1.0229,-0.1831,0.0610,0.0610,1,466,885,0
14856762,1161,-0.0239,-0.0181,1.0215,-0.1221,0.0610,0.0610,1,481,900,0
14861754,1162,-0.0244,-0.0176,1.0195,-0.1831,0.1831,0.1221,1,477,855,0
14866757,1163,-0.0244,-0.0176,1.0190,-0.1831,0.1221,0.1831,1,465,865,0
14871759,1164,-0.0229,-0.0176,1.0210,-0.1221,0.0610,0.1221,1,480,873,0
14876762,1165,-0.0220,-0.0181,1.0225,-0.0610,0.1831,0.1221,1,482,845,0
14881756,1166,-0.0220,-0.0181,1.0220,-0.0610,0.1221,0.1831,1,479,848,0
14886755,1167,-0.0220,-0.0171,1.0205,-0.1221,0.0610,0.2441,1,484,848,0
14891755,1168,-0.0220,-0.0161,1.0210,-0.1831,0.1221,0.0610,1,466,866,0
14896763,1169,-0.0225,-0.0161,1.0225,-0.1221,0.2441,0.0000,1,466,870,0
14901756,1170,-0.0225,-0.0166,1.0234,-0.0610,0.3052,-0.0610,1,466,826,0
14906759,1171,-0.0215,-0.0166,1.0239,-0.0610,0.2441,0.0000,1,493,870,0
14911757,1172,-0.0220,-0.0181,1.0229,-0.1221,0.3662,-0.0610,1,471,756,0
14916758,1173,-0.0225,-0.0181,1.0225,-0.1831,0.3052,-0.1221,1,494,792,0
14921756,1174,-0.0215,-0.0181,1.0220,-0.0610,0.2441,-0.3052,1,485,846,0
14926760,1175,-0.0195,-0.0176,1.0220,0.1221,0.2441,-0.3662,1,490,837,0
14931758,1176,-0.0190,-0.0166,1.0229,0.1221,0.3052,-0.5493,1,474,845,0
14936756,1177,-0.0190,-0.0161,1.0239,0.0000,0.3052,-0.6104,1,471,871,0
14941754,1178,-0.0190,-0.0171,1.0244,-0.0610,0.5493,-0.7324,1,482,795,0
14946756,1179,-0.0200,-0.0176,1.0244,0.1831,0.6714,-0.9155,1,486,846,0
14951756,1180,-0.0215,-0.0176,1.0239,0.1221,0.7324,-0.9155,1,505,845,0
14956754,1181,-0.0229,-0.0176,1.0225,0.1831,0.6104,-0.7935,1,465,860,0
14961757,1182,-0.0244,-0.0186,1.0220,0.2441,0.6714,-0.8545,1,484,858,0
14966758,1183,-0.0249,-0.0200,1.0220,-0.0610,1.0376,-0.7935,1,465,900,0
14971759,1184,-0.0229,-0.0195,1.0229,-0.4883,0.9155,-0.6104,1,475,932,0
14976756,1185,-0.0220,-0.0176,1.0234,-0.3052,0.6714,-0.7324,1,473,866,0
14981758,1186,-0.0229,-0.0171,1.0205,-0.3052,0.6714,-0.6104,1,479,862,0
14986759,1187,-0.0229,-0.0181,1.0186,-0.4883,0.4272,-0.4883,1,481,864,0
14991756,1188,-0.0225,-0.0190,1.0181,-0.4272,0.2441,-0.4883,1,482,853,0
14996756,1189,-0.0234,-0.0181,1.0200,-0.1831,0.3052,-0.4883,1,478,854,0
15001759,1190,-0.0229,-0.0176,1.0225,-0.1221,0.2441,-0.4272,1,484,848,0
15006760,1191,-0.0234,-0.0166,1.0215,-0.1221,0.3052,-0.3662,1,466,874,0
15011759,1192,-0.0244,-0.0176,1.0200,-0.1221,0.3662,-0.3662,1,465,870,0
15016754,1193,-0.0244,-0.0190,1.0195,0.0000,0.3662,-0.3662,1,492,872,0
15021759,1194,-0.0244,-0.0186,1.0205,0.0610,0.3662,-0.3662,1,465,757,0
15026756,1195,-0.0229,-0.0176,1.0225,0.0610,0.3052,-0.4272,1,494,874,0
15031758,1196,-0.0220,-0.0171,1.0229,0.0000,0.3052,-0.4883,1,473,793,0
15036754,1197,-0.0220,-0.0171,1.0229,0.0610,0.3052,-0.7935,1,491,793,0
15041755,1198,-0.0220,-0.0181,1.0220,-0.0610,0.2441,-0.6714,1,479,837,0
15046757,1199,-0.0210,-0.0181,1.0210,0.1221,0.1831,-0.6714,1,487,840,0
15051755,1200,-0.0200,-0.0171,1.0200,0.1221,0.1831,-0.7324,1,488,835,0
15056777,1201,-0.0205,-0.0166,1.0215,0.1831,0.1831,-0.7324,1,471,839,0
15061760,1202,-0.0215,-0.0171,1.0239,0.1831,0.2441,-0.7324,1,474,849,0
15066757,1203,-0.0229,-0.0176,1.0254,0.1831,0.1831,-0.6104,1,505,848,0
15071758,1204,-0.0220,-0.0181,1.0244,0.1831,0.2441,-0.9155,1,475,860,0
15076757,1205,-0.0210,-0.0171,1.0244,0.1221,0.3052,-0.9155,1,466,820,0
15081761,1206,-0.0210,-0.0156,1.0234,0.1221,0.2441,-0.8545,1,482,905,0
15086759,1207,-0.0220,-0.0161,1.0225,0.0610,0.4272,-0.9766,1,479,862,0
15091759,1208,-0.0220,-0.0176,1.0220,-0.0610,0.3052,-0.8545,1,481,869,0
15096756,1209,-0.0225,-0.0186,1.0225,-0.1221,0.3052,-0.5493,1,480,819,0
15101762,1210,-0.0239,-0.0190,1.0234,-0.1221,0.3662,-0.4883,1,480,849,0
15106762,1211,-0.0259,-0.0190,1.0234,-0.1221,0.3052,-0.3662,1,472,857,0
15111756,1212,-0.0259,-0.0186,1.0225,-0.0610,0.2441,-0.1831,1,484,852,0
15116756,1213,-0.0254,-0.0176,1.0215,-0.2441,0.1831,-0.0610,1,466,855,0
15121775,1214,-0.0244,-0.0186,1.0215,-0.2441,0.1831,-0.0610,1,466,873,0
15126759,1215,-0.0244,-0.0190,1.0210,-0.1831,0.0610,0.0000,1,466,875,0
15131759,1216,-0.0239,-0.0181,1.0215,-0.3052,0.0000,0.1221,1,493,827,0
15136763,1217,-0.0234,-0.0171,1.0215,-0.4272,0.1221,0.1831,1,466,743,0
15141754,1218,-0.0239,-0.0166,1.0215,-0.3662,0.1221,0.1831,1,494,868,0
15146758,1219,-0.0239,-0.0161,1.0210,-0.4272,0.1221,0.3662,1,472,823,0
15151760,1220,-0.0234,-0.0161,1.0220,-0.4883,0.0610,0.6714,1,478,845,0
15156763,1221,-0.0229,-0.0166,1.0229,-0.4272,0.0610,0.7935,1,483,843,0
15161757,1222,-0.0234,-0.0171,1.0229,-0.4272,0.1221,1.0986,1,488,849,0
15166763,1223,-0.0244,-0.0176,1.0229,-0.4883,0.1221,1.2207,1,490,843,0
15171757,1224,-0.0234,-0.0176,1.0220,-0.5493,0.0610,1.4038,1,491,844,0
15176758,1225,-0.0225,-0.0176,1.0205,-0.6104,0.0610,1.6479,1,498,844,0
15181755,1226,-0.0220,-0.0176,1.0200,-0.4883,0.0000,1.7090,1,466,829,0
15186761,1227,-0.0210,-0.0186,1.0210,-0.5493,0.0610,1.7700,1,484,819,0
15191758,1228,-0.0205,-0.0195,1.0215,-0.5493,0.1831,1.8921,1,466,894,0
15196759,1229,-0.0200,-0.0186,1.0220,-0.4272,0.0610,2.0752,1,477,932,0
15201761,1230,-0.0205,-0.0166,1.0225,-0.4883,0.0000,2.1973,1,477,859,0
15206757,1231,-0.0215,-0.0161,1.0210,-0.5493,-0.1221,2.1973,1,474,827,0
15211755,1232,-0.0215,-0.0171,1.0205,-0.4883,0.0610,2.1362,1,477,870,0
15216761,1233,-0.0215,-0.0181,1.0220,-0.5493,0.0000,1.8921,1,481,853,0
15221760,1234,-0.0225,-0.0186,1.0234,-0.6714,0.1221,1.8311,1,472,804,0
15226758,1235,-0.0220,-0.0186,1.0244,-0.6104,0.3662,1.6479,1,484,850,0
15231756,1236,-0.0225,-0.0190,1.0239,-0.7935,0.5493,1.3428,1,466,875,0
15236784,1237,-0.0225,-0.0195,1.0229,-1.0376,0.6104,1.2207,1,466,876,0
15241761,1238,-0.0210,-0.0186,1.0210,-1.0376,0.6714,1.1597,1,466,872,0
15246761,1239,-0.0195,-0.0176,1.0215,-1.2817,0.6714,1.0376,1,493,865,0
15251756,1240,-0.0200,-0.0176,1.0239,-1.5869,0.6104,0.8545,1,485,871,0
15256758,1241,-0.0215,-0.0181,1.0254,-1.7090,0.5493,0.9155,1,464,816,0
15261758,1242,-0.0205,-0.0176,1.0254,-2.1362,0.4272,1.4648,1,482,814,0
15266755,1243,-0.0073,-0.0176,1.0283,-2.5635,-0.0610,3.6011,1,484,852,0
15271762,1244,-0.0103,-0.0200,1.0278,-4.5166,-0.4883,10.2539,1,487,843,0
15276758,1245,-0.0303,-0.0234,1.0239,-5.2490,-0.4883,5.4321,1,483,865,0
15281766,1246,-0.0312,-0.0239,1.0244,-5.0659,0.3052,3.2959,1,492,849,0
15286758,1247,-0.0259,-0.0210,1.0249,-5.9204,0.1831,4.2114,1,487,920,0
15291760,1248,-0.0234,-0.0195,1.0239,-7.2632,0.1831,3.8452,1,510,851,0
15296754,1249,-0.0234,-0.0200,1.0225,-7.5684,0.1831,3.2959,1,465,882,0
15301758,1250,-0.0239,-0.0200,1.0234,-8.4229,0.0000,3.0518,1,484,863,0
15306760,1251,-0.0244,-0.0200,1.0244,-9.3384,-0.0610,2.5635,1,465,903,0
15311759,1252,-0.0249,-0.0205,1.0264,-10.1318,-0.1221,2.1362,1,479,932,0
15316756,1253,-0.0269,-0.0210,1.0288,-11.2915,-0.1831,1.8921,1,482,887,0
15321762,1254,-0.0679,-0.0220,1.0352,-12.5732,-0.1221,0.7324,1,466,885,0
15326758,1255,-0.0781,-0.0273,1.0430,-16.7236,-0.5493,-12.2070,1,482,891,0
15331760,1256,-0.0171,-0.0347,1.0278,-19.8364,2.6855,-12.2070,1,467,893,0
15336754,1257,0.0137,-0.0337,1.0142,-15.5029,1.0986,-0.6714,1,480,892,0
15341758,1258,-0.0073,-0.0249,1.0273,-15.6860,0.1831,-3.1738,1,466,873,0
15346760,1259,-0.0317,-0.0244,1.0361,-20.7520,-1.8311,-5.4321,1,466,903,0
15351755,1260,-0.0303,-0.0347,1.0288,-21.7285,-2.3193,-5.6152,1,466,899,0
15356756,1261,-0.0244,-0.0425,1.0234,-19.5923,-2.8076,-4.2725,1,492,902,0
15361757,1262,-0.0239,-0.0420,1.0269,-20.5688,-3.1738,-4.6997,1,466,892,0
15366759,1263,-0.0220,-0.0386,1.0288,-22.3389,-3.7231,-5.2490,1,494,903,0
15371756,1264,-0.0171,-0.0361,1.0298,-23.8647,-4.8218,-4.0894,1,494,900,0
15376761,1265,-0.0137,-0.0381,1.0303,-25.5737,-5.4321,-3.5400,1,492,820,0
15381755,1266,-0.0132,-0.0439,1.0269,-26.1230,-5.1880,-3.4180,1,489,866,0
15386759,1267,-0.0137,-0.0479,1.0229,-26.0010,-4.7607,-3.2349,1,485,869,0
15391762,1268,-0.0127,-0.0483,1.0215,-26.5503,-4.8218,-3.0518,1,490,862,0
15396762,1269,-0.0122,-0.0513,1.0195,-26.3672,-4.3945,-2.9297,1,473,862,0
15401757,1270,-0.0132,-0.0571,1.0186,-24.6582,-4.4556,-2.6855,1,474,872,0
15406756,1271,-0.0142,-0.0591,1.0229,-23.4375,-4.8218,-2.4414,1,493,872,0
15411763,1272,-0.0146,-0.0576,1.0288,-24.1089,-5.6152,-2.3804,1,484,894,0
15416755,1273,-0.0142,-0.0591,1.0317,-25.4517,-6.5918,-2.0142,1,465,843,0
15421758,1274,-0.0137,-0.0625,1.0308,-26.3062,-7.2632,-1.7090,1,474,919,0
15426754,1275,-0.0142,-0.0669,1.0249,-26.8555,-7.2021,-1.5869,1,472,877,0
15431754,1276,-0.0142,-0.0718,1.0190,-26.7334,-6.8359,-1.7090,1,479,896,0
15436760,1277,-0.0122,-0.0747,1.0171,-26.2451,-6.0425,-1.8921,1,478,893,0
15441760,1278,-0.0103,-0.0757,1.0200,-25.9399,-5.6763,-1.4648,1,474,874,0
15446758,1279,-0.0098,-0.0776,1.0249,-26.1230,-5.9204,-1.0376,1,470,877,0
15451757,1280,-0.0098,-0.0806,1.0269,-26.4282,-6.4087,-1.1597,1,483,875,0
15456758,1281,-0.0112,-0.0845,1.0225,-26.3672,-6.1646,-1.1597,1,466,887,0
15461759,1282,-0.0137,-0.0874,1.0181,-25.8789,-5.3711,-1.0376,1,466,894,0
15466758,1283,-0.0127,-0.0894,1.0176,-25.3906,-5.1270,-1.4038,1,466,891,0
15471756,1284,-0.0107,-0.0923,1.0181,-25.2075,-4.7607,-1.4648,1,493,893,0
15476759,1285,-0.0088,-0.0947,1.0195,-24.3530,-4.6387,-1.2817,1,477,893,0
15481756,1286,-0.0088,-0.0923,1.0249,-24.2920,-4.8828,-0.7935,1,494,895,0
15486763,1287,-0.0107,-0.0903,1.0312,-26.1841,-5.3711,-0.5493,1,492,827,0
15491755,1288,-0.0127,-0.0918,1.0327,-28.3813,-5.7373,-0.7324,1,471,891,0
15496762,1289,-0.0103,-0.0967,1.0264,-28.9917,-5.6763,-0.8545,1,488,872,0
15501758,1290,-0.0068,-0.1025,1.0186,-28.6865,-5.6152,-0.5493,1,480,860,0
15506758,1291,-0.0059,-0.1079,1.0132,-28.1982,-5.1270,-0.6104,1,491,872,0
15511754,1292,-0.0063,-0.1118,1.0107,-27.3437,-4.3945,-0.9766,1,481,860,0
15516758,1293,-0.0068,-0.1138,1.0117,-26.3672,-3.9062,-1.2207,1,493,870,0
15521760,1294,-0.0078,-0.1147,1.0146,-26.0620,-3.9673,-1.0986,1,481,894,0
15526762,1295,-0.0088,-0.1157,1.0181,-25.8789,-3.9062,-1.0986,1,466,841,0
15531755,1296,-0.0083,-0.1172,1.0220,-25.8179,-4.0283,-1.2817,1,477,894,0
15536754,1297,-0.0063,-0.1182,1.0244,-26.3672,-4.3335,-1.2207,1,482,955,0
15541760,1298,-0.0044,-0.1191,1.0269,-27.7100,-4.5166,-0.9766,1,483,885,0
15546758,1299,-0.0044,-0.1216,1.0273,-28.9307,-4.8828,-1.0376,1,475,883,0
15551759,1300,-0.0063,-0.1235,1.0264,-29.7852,-5.1270,-1.0986,1,479,890,0
15556759,1301,-0.0073,-0.1250,1.0259,-30.8228,-5.4932,-1.2207,1,479,879,0
15561755,1302,-0.0054,-0.1289,1.0234,-32.0435,-5.3711,-1.2817,1,484,872,0
15566763,1303,-0.0039,-0.1348,1.0190,-32.7759,-5.1880,-1.2817,1,466,890,0
15571758,1304,-0.0049,-0.1396,1.0161,-32.4707,-5.1270,-1.4038,1,466,890,0
15576759,1305,-0.0049,-0.1421,1.0156,-32.0435,-5.3101,-1.7700,1,465,892,0
15581758,1306,-0.0039,-0.1440,1.0176,-32.2266,-5.1270,-1.8921,1,493,878,0
15586761,1307,-0.0034,-0.1450,1.0205,-32.8369,-5.1270,-1.8311,1,466,885,0
15591758,1308,-0.0034,-0.1475,1.0215,-33.3252,-5.3711,-1.8311,1,494,890,0
15596757,1309,-0.0029,-0.1514,1.0176,-33.9355,-5.6763,-1.9531,1,478,809,0
15601757,1310,-0.0024,-0.1562,1.0103,-33.8135,-5.3711,-2.0142,1,477,873,0
15606762,1311,-0.0020,-0.1606,1.0068,-33.2642,-5.3711,-2.0752,1,483,885,0
15611755,1312,-0.0020,-0.1631,1.0117,-32.8369,-5.6763,-1.9531,1,486,855,0
15616756,1313,-0.0020,-0.1641,1.0176,-33.0811,-5.7983,-2.1362,1,476,862,0
15621762,1314,0.0000,-0.1655,1.0181,-33.9966,-5.7373,-2.3193,1,481,855,0
15626758,1315,0.0024,-0.1689,1.0156,-34.7900,-5.5542,-2.3804,1,500,823,0
15631760,1316,0.0049,-0.1738,1.0107,-34.7290,-5.2490,-2.4414,1,465,887,0
15636756,1317,0.0054,-0.1787,1.0078,-34.0576,-4.9438,-2.3804,1,484,881,0
15641759,1318,0.0044,-0.1816,1.0068,-33.8135,-5.0049,-2.5024,1,466,887,0
15646756,1319,0.0044,-0.1846,1.0010,-33.0200,-5.1270,-2.6855,1,483,924,0
15651756,1320,0.0049,-0.1870,0.9980,-31.3721,-5.1880,-2.9297,1,469,871,0
15656763,1321,0.0049,-0.1895,1.0005,-29.9683,-5.4321,-2.9907,1,472,881,0
15661759,1322,0.0068,-0.1919,1.0029,-28.8696,-5.9814,-2.8687,1,467,888,0
15666762,1323,0.0078,-0.1943,1.0049,-28.2593,-6.7139,-2.6245,1,474,882,0
15671762,1324,0.0054,-0.1958,1.0083,-28.1982,-7.2632,-2.8076,1,483,880,0
15676754,1325,0.0034,-0.1973,1.0103,-28.1372,-7.5684,-3.2349,1,466,880,0
15681764,1326,0.0039,-0.1997,1.0078,-28.2593,-7.3853,-3.6621,1,466,896,0
15686763,1327,0.0049,-0.1992,1.0112,-28.9307,-6.9580,-3.6621,1,466,900,0
15691760,1328,0.0068,-0.1982,1.0205,-30.6396,-7.4463,-3.9062,1,493,898,0
15696758,1329,0.0098,-0.2031,1.0259,-32.2876,-8.1177,-4.2725,1,479,899,0
15701756,1330,0.0117,-0.2104,1.0181,-33.1421,-8.4229,-4.1504,1,464,803,0
15706763,1331,0.0093,-0.2173,1.0029,-33.5083,-7.7515,-4.0283,1,471,829,0
15711758,1332,0.0059,-0.2217,0.9990,-33.4473,-8.3618,-4.3335,1,474,860,0
15716754,1333,0.0054,-0.2261,1.0024,-33.2642,-9.2163,-4.5776,1,488,857,0
15721755,1334,0.0073,-0.2314,0.9980,-32.5317,-9.7656,-4.8218,1,478,888,0
15726759,1335,0.0122,-0.2329,0.9897,-31.7993,-8.5449,-5.2490,1,486,868,0
15731761,1336,0.0195,-0.2305,0.9858,-30.8228,-6.8359,-5.1270,1,491,881,0
15736761,1337,0.0234,-0.2314,0.9858,-29.6631,-5.3101,-4.8218,1,500,871,0
15741760,1338,0.0225,-0.2354,0.9854,-27.6489,-4.3335,-4.8828,1,475,864,0
15746756,1339,0.0186,-0.2358,0.9902,-25.9399,-4.0283,-4.8828,1,465,833,0
15751756,1340,0.0156,-0.2368,0.9971,-25.7568,-4.0283,-4.8828,1,465,931,0
15756761,1341,0.0156,-0.2422,0.9951,-25.6958,-3.6621,-4.8828,1,465,976,0
15761756,1342,0.0186,-0.2461,0.9922,-24.4141,-3.9673,-4.7607,1,465,894,0
15766755,1343,0.0234,-0.2441,0.9932,-23.1934,-4.2725,-4.3335,1,469,890,0
15771755,1344,0.0264,-0.2412,0.9961,-22.9492,-4.3945,-3.7231,1,473,878,0
15776755,1345,0.0259,-0.2427,0.9966,-22.8882,-4.5166,-3.1128,1,469,886,0
15781762,1346,0.0244,-0.2480,0.9937,-21.9116,-4.5166,-2.8076,1,484,878,0
15786760,1347,0.0225,-0.2534,0.9897,-20.8740,-3.9673,-2.7466,1,466,903,0
15791790,1348,0.0210,-0.2568,0.9863,-20.2026,-3.1128,-2.6245,1,466,899,0
15796755,1349,0.0210,-0.2598,0.9854,-19.2871,-2.1973,-2.6245,1,466,900,0
15801762,1350,0.0220,-0.2617,0.9844,-18.2495,-1.5259,-2.7466,1,465,893,0
15806760,1351,0.0259,-0.2612,0.9858,-17.1509,-1.8921,-2.7466,1,466,890,0
15811756,1352,0.0288,-0.2588,0.9893,-16.6626,-1.2817,-2.3804,1,493,888,0
15816760,1353,0.0269,-0.2573,0.9902,-16.4795,-1.0376,-1.7700,1,483,823,0
15821762,1354,0.0234,-0.2593,0.9922,-16.5405,-1.2207,-1.2817,1,486,859,0
15826760,1355,0.0234,-0.2622,0.9927,-16.4795,-1.4648,-0.9155,1,490,860,0
15831757,1356,0.0273,-0.2642,0.9897,-15.5640,-1.5869,-0.6714,1,473,864,0
15836765,1357,0.0312,-0.2656,0.9883,-14.7705,-1.8921,-0.1221,1,492,890,0
15841754,1358,0.0317,-0.2666,0.9839,-14.4653,-2.1973,0.6104,1,490,890,0
15846755,1359,0.0293,-0.2681,0.9790,-13.6108,-3.1128,1.3428,1,500,870,0
15851762,1360,0.0273,-0.2734,0.9805,-10.3760,-4.8828,2.3804,1,467,864,0
15856754,1361,0.0298,-0.2778,0.9775,-8.9722,-3.7842,2.9297,1,484,886,0
15861754,1362,0.0288,-0.2842,0.9673,-6.7749,-1.5259,3.1128,1,474,910,0
15866757,1363,0.0225,-0.2861,0.9644,-4.0283,0.8545,2.3804,1,477,952,0
15871755,1364,0.0171,-0.2812,0.9766,-2.4414,2.3804,1.7090,1,474,874,0
15876757,1365,0.0186,-0.2739,0.9897,-2.2583,2.6245,1.4038,1,477,893,0
15881757,1366,0.0234,-0.2681,0.9937,-2.6245,2.2583,1.4038,1,478,885,0
15886758,1367,0.0264,-0.2676,0.9932,-2.6855,0.9766,1.5869,1,480,863,0
15891758,1368,0.0259,-0.2705,0.9917,-2.9297,-0.2441,2.0142,1,484,858,0
15896760,1369,0.0254,-0.2734,0.9878,-3.2959,-0.8545,2.1362,1,466,875,0
15901759,1370,0.0249,-0.2759,0.9854,-3.2959,-0.8545,2.2583,1,466,879,0
15906762,1371,0.0239,-0.2769,0.9868,-3.0518,-0.4272,2.1973,1,466,880,0
15911756,1372,0.0225,-0.2778,0.9868,-3.0518,0.5493,2.0752,1,492,878,0
15916761,1373,0.0205,-0.2808,0.9839,-3.1738,2.3193,1.6479,1,467,876,0
15921758,1374,0.0186,-0.2847,0.9780,-2.2583,4.5776,0.7324,1,493,881,0
15926754,1375,0.0181,-0.2827,0.9814,-0.9766,6.2256,0.0610,1,483,827,0
15931755,1376,0.0200,-0.2759,0.9966,-1.4038,6.5918,0.0000,1,473,844,0
15936757,1377,0.0234,-0.2710,1.0034,-3.0518,6.2256,0.1831,1,489,800,0
15941759,1378,0.0264,-0.2734,0.9961,-4.0283,5.7983,0.6104,1,492,845,0
15946768,1379,0.0264,-0.2788,0.9878,-3.8452,5.3711,0.9155,1,473,847,0
15951758,1380,0.0234,-0.2812,0.9878,-3.7842,5.4932,1.0986,1,491,852,0
15956754,1381,0.0210,-0.2827,0.9873,-4.2725,5.8594,1.0376,1,502,877,0
15961755,1382,0.0210,-0.2837,0.9800,-4.5166,6.7749,0.6104,1,467,865,0
15966755,1383,0.0176,-0.2803,0.9844,-3.9673,7.3853,0.4272,1,484,810,0
15971759,1384,0.0156,-0.2744,1.0049,-4.5166,4.9438,0.9766,1,468,901,0
15976759,1385,0.0151,-0.2739,1.0078,-5.8594,4.0283,0.7935,1,467,952,0
15981761,1386,0.0151,-0.2783,0.9946,-6.2866,2.4414,0.6714,1,465,872,0
15986756,1387,0.0151,-0.2837,0.9878,-6.4697,2.4414,0.7935,1,483,885,0
15991756,1388,0.0117,-0.2852,0.9873,-6.7749,1.8311,0.6714,1,468,863,0
15996760,1389,0.0117,-0.2827,0.9878,-6.9580,1.5259,0.1221,1,467,858,0
16001761,1390,0.0137,-0.2817,0.9878,-7.4463,1.3428,0.2441,1,479,856,0
16006757,1391,0.0151,-0.2822,0.9893,-7.9346,1.4038,0.0610,1,483,860,0
16011758,1392,0.0151,-0.2822,0.9927,-8.4229,1.2207,0.0000,1,466,878,0
16016789,1393,0.0156,-0.2837,0.9932,-9.1553,1.0376,0.0610,1,466,833,0
16021762,1394,0.0176,-0.2852,0.9907,-9.5825,0.3052,0.2441,1,466,871,0
16026754,1395,0.0195,-0.2856,0.9907,-9.5825,0.0000,0.7935,1,493,875,0
16031755,1396,0.0190,-0.2856,0.9912,-9.9487,-0.2441,1.2207,1,492,832,0
16036761,1397,0.0166,-0.2871,0.9873,-10.5591,0.1831,1.1597,1,464,811,0
16041760,1398,0.0146,-0.2881,0.9849,-10.4980,0.3052,0.9766,1,471,821,0
16046763,1399,0.0137,-0.2881,0.9888,-10.4980,0.3052,0.9155,1,478,859,0
16051755,1400,0.0117,-0.2886,0.9922,-10.9863,0.1831,0.7935,1,480,857,0
16056758,1401,0.0112,-0.2891,0.9917,-11.4136,0.6104,0.4272,1,490,865,0
16061755,1402,0.0127,-0.2891,0.9917,-12.1460,0.9155,0.0000,1,476,861,0
16066755,1403,0.0151,-0.2886,0.9902,-13.0615,1.0986,-0.4272,1,488,816,0
16071762,1404,0.0171,-0.2891,0.9888,-13.5498,0.2441,-0.3662,1,493,868,0
16076757,1405,0.0186,-0.2920,0.9912,-14.1602,-0.5493,0.0610,1,504,864,0
16081762,1406,0.0190,-0.2959,0.9917,-15.2588,-1.0376,0.3052,1,465,825,0
16086762,1407,0.0200,-0.2983,0.9888,-16.0522,-0.9155,0.3662,1,482,915,0
16091761,1408,0.0195,-0.2988,0.9888,-16.4795,-1.0986,0.3052,1,483,955,0
16096761,1409,0.0176,-0.2988,0.9922,-16.8457,-1.5259,0.3052,1,466,884,0
16101762,1410,0.0171,-0.2998,0.9922,-17.5171,-1.6479,0.6714,1,466,839,0
16106755,1411,0.0176,-0.3027,0.9902,-18.3716,-1.7090,0.8545,1,466,866,0
16111759,1412,0.0181,-0.3057,0.9878,-18.8599,-1.8311,1.0986,1,470,864,0
16116760,1413,0.0186,-0.3062,0.9868,-19.1650,-1.2817,0.8545,1,484,861,0
16121762,1414,0.0190,-0.3081,0.9824,-19.7144,-1.0986,0.6104,1,466,887,0
16126772,1415,0.0195,-0.3110,0.9741,-19.9585,0.0000,0.1831,1,466,886,0
16131754,1416,0.0181,-0.3120,0.9722,-19.5312,0.6714,-0.2441,1,466,845,0
16136760,1417,0.0156,-0.3110,0.9800,-19.1650,0.8545,-0.3052,1,493,920,0
16141762,1418,0.0142,-0.3120,0.9844,-19.1650,0.0000,-0.2441,1,466,883,0
16146759,1419,0.0146,-0.3169,0.9780,-19.1040,-0.7324,-0.2441,1,494,765,0
16151754,1420,0.0166,-0.3218,0.9697,-18.6157,-0.9766,-0.4272,1,464,824,0
16156758,1421,0.0195,-0.3228,0.9692,-18.1274,-0.3052,-0.3662,1,478,863,0
16161759,1422,0.0195,-0.3232,0.9712,-17.7002,0.1831,-0.1221,1,479,863,0
16166757,1423,0.0181,-0.3237,0.9712,-17.2119,0.0610,0.0000,1,484,854,0
16171773,1424,0.0186,-0.3237,0.9741,-16.8457,-0.6104,0.6104,1,485,811,0
16176761,1425,0.0190,-0.3242,0.9795,-16.8457,-0.7324,1.2207,1,475,858,0
16181756,1426,0.0190,-0.3281,0.9771,-17.1509,-1.0376,1.2207,1,488,863,0
16186757,1427,0.0190,-0.3315,0.9702,-16.7236,-0.4883,1.1597,1,469,843,0
16191759,1428,0.0186,-0.3325,0.9702,-16.2354,-0.0610,1.2207,1,483,878,0
16196758,1429,0.0181,-0.3330,0.9736,-16.2354,0.1221,1.4038,1,472,913,0
16201761,1430,0.0161,-0.3340,0.9727,-15.9302,0.3662,1.3428,1,475,952,0
16206755,1431,0.0146,-0.3364,0.9692,-15.5029,0.0610,1.1597,1,474,884,0
16211756,1432,0.0137,-0.3374,0.9673,-14.8315,0.3052,0.9155,1,481,888,0
16216763,1433,0.0127,-0.3364,0.9717,-14.3433,0.9766,0.5493,1,483,892,0
16221759,1434,0.0122,-0.3350,0.9805,-14.7095,1.5259,0.1221,1,478,876,0
16226759,1435,0.0117,-0.3350,0.9829,-15.6250,1.2817,-0.4883,1,483,870,0
16231754,1436,0.0117,-0.3374,0.9785,-16.6626,0.6714,-0.7324,1,466,896,0
16236758,1437,0.0107,-0.3413,0.9775,-17.2729,0.1221,-0.9155,1,466,890,0
16241755,1438,0.0112,-0.3447,0.9800,-17.7002,-0.0610,-1.0376,1,466,892,0
16246757,1439,0.0127,-0.3472,0.9746,-17.8833,-0.1221,-1.3428,1,492,881,0
16251757,1440,0.0142,-0.3491,0.9663,-17.3950,-0.4272,-1.7090,1,465,885,0
16256761,1441,0.0156,-0.3501,0.9688,-17.2729,-0.4272,-1.8311,1,494,890,0
16261763,1442,0.0181,-0.3516,0.9697,-17.8833,-0.4272,-1.7700,1,465,840,0
16266761,1443,0.0225,-0.3525,0.9614,-17.7612,-0.1221,-1.7090,1,491,814,0
16271759,1444,0.0239,-0.3525,0.9551,-16.9067,-0.7324,-1.3428,1,473,859,0
16276761,1445,0.0229,-0.3540,0.9517,-16.2354,-1.5869,-0.8545,1,483,864,0
16281772,1446,0.0205,-0.3589,0.9492,-15.7471,-1.7090,-0.7935,1,486,889,0
16286758,1447,0.0200,-0.3647,0.9512,-15.0757,-1.4038,-0.9766,1,482,863,0
16291759,1448,0.0205,-0.3716,0.9492,-13.6108,-0.7935,-0.6104,1,498,863,0
16296758,1449,0.0210,-0.3755,0.9468,-11.7798,-0.1831,-0.4272,1,468,864,0
16301762,1450,0.0215,-0.3750,0.9512,-10.4980,0.0000,0.0000,1,484,881,0
16306762,1451,0.0210,-0.3730,0.9590,-10.1318,0.3052,0.2441,1,472,786,0
16311760,1452,0.0171,-0.3726,0.9648,-10.0708,0.4272,0.0610,1,475,953,0
16316757,1453,0.0107,-0.3696,0.9668,-10.3760,0.2441,-0.3662,1,479,877,0
16321756,1454,0.0049,-0.3657,0.9668,-10.7422,0.0000,-0.7324,1,465,896,0
16326755,1455,0.0078,-0.3643,0.9668,-11.5356,0.0000,-1.2817,1,465,826,0
16331759,1456,0.0161,-0.3652,0.9644,-12.2070,1.6479,-1.1597,1,466,831,0
16336757,1457,0.0195,-0.3682,0.9624,-12.3291,1.9531,-0.4883,1,483,882,0
16341763,1458,0.0186,-0.3677,0.9634,-12.3291,1.6479,-0.2441,1,466,900,0
16346762,1459,0.0151,-0.3672,0.9678,-12.5122,0.7324,0.0000,1,466,900,0
16351787,1460,0.0166,-0.3701,0.9717,-13.3667,-0.2441,0.4883,1,466,852,0
16356762,1461,0.0210,-0.3735,0.9707,-14.2212,-1.0376,1.4648,1,466,895,0
16361757,1462,0.0210,-0.3755,0.9673,-14.9536,-1.8311,2.0142,1,465,896,0
16366761,1463,0.0181,-0.3765,0.9619,-15.9302,-2.9297,2.1362,1,494,890,0
16371754,1464,0.0220,-0.3750,0.9541,-16.2964,-3.9062,2.1973,1,494,896,0
16376761,1465,0.0269,-0.3696,0.9521,-15.8691,-3.5400,2.6855,1,478,823,0
16381754,1466,0.0254,-0.3682,0.9585,-15.6860,-4.7607,3.1128,1,474,888,0
16386762,1467,0.0229,-0.3765,0.9604,-15.8081,-5.7373,3.4180,1,487,868,0
16391757,1468,0.0244,-0.3833,0.9526,-15.9912,-5.7373,3.5400,1,483,873,0
16396759,1469,0.0269,-0.3784,0.9478,-15.5029,-4.3945,3.8452,1,473,900,0
16401755,1470,0.0239,-0.3799,0.9521,-15.2588,-3.4790,3.9673,1,481,876,0
16406757,1471,0.0205,-0.3921,0.9512,-15.0757,-3.2959,3.9673,1,492,873,0
16411755,1472,0.0215,-0.3882,0.9458,-14.2822,-2.8076,4.0283,1,511,862,0
16416758,1473,0.0225,-0.3716,0.9546,-14.5874,-1.9531,4.3335,1,465,835,0
16421762,1474,0.0176,-0.3789,0.9595,-15.9302,-0.9155,4.2725,1,468,927,0
16426759,1475,0.0132,-0.3989,0.9463,-15.9912,-0.6714,3.6621,1,465,885,0
16431760,1476,0.0171,-0.4014,0.9399,-15.1367,0.1221,2.6855,1,471,899,0
16436755,1477,0.0215,-0.3838,0.9438,-14.7705,1.0376,2.4414,1,472,894,0
16441757,1478,0.0195,-0.3745,0.9526,-14.2212,0.9766,2.5024,1,480,880,0
16446761,1479,0.0146,-0.3818,0.9561,-13.9770,0.4883,2.3193,1,475,881,0
16451754,1480,0.0117,-0.3799,0.9551,-13.4888,0.7935,1.5259,1,483,881,0
16456759,1481,0.0137,-0.3779,0.9600,-13.6719,0.9766,0.7324,1,465,891,0
16461780,1482,0.0171,-0.3867,0.9575,-14.4653,1.3428,0.4272,1,465,895,0
16466757,1483,0.0200,-0.3950,0.9507,-14.5264,0.8545,0.2441,1,465,901,0
16471762,1484,0.0215,-0.3960,0.9512,-15.0757,0.6104,0.0610,1,465,892,0
16476758,1485,0.0220,-0.3950,0.9531,-15.9302,0.1221,-0.1221,1,466,884,0
16481760,1486,0.0215,-0.3979,0.9502,-16.0522,-0.2441,-0.3662,1,494,887,0
16486756,1487,0.0200,-0.4048,0.9443,-15.4419,-0.9766,-0.4883,1,474,824,0
16491757,1488,0.0215,-0.4077,0.9385,-14.7705,-1.7700,-0.5493,1,485,861,0
16496761,1489,0.0249,-0.4058,0.9360,-13.6108,-1.7700,-0.3662,1,490,868,0
16501760,1490,0.0273,-0.4019,0.9409,-12.7563,-1.2817,-0.2441,1,490,868,0
16506779,1491,0.0269,-0.3989,0.9434,-12.3291,-0.4883,0.4883,1,490,893,0
16511754,1492,0.0225,-0.3965,0.9458,-11.7798,-0.1221,1.2817,1,476,867,0
16516759,1493,0.0181,-0.3970,0.9531,-12.0850,-0.3662,1.7700,1,493,865,0
16521755,1494,0.0190,-0.4014,0.9536,-12.6343,-0.2441,1.8921,1,506,863,0
16526754,1495,0.0195,-0.4048,0.9468,-12.4512,-0.1831,2.0142,1,466,827,0
16531761,1496,0.0176,-0.4072,0.9434,-12.3901,-0.2441,2.0142,1,466,919,0
16536761,1497,0.0146,-0.4077,0.9438,-12.5122,0.0000,1.9531,1,482,952,0
16541757,1498,0.0103,-0.4072,0.9453,-12.4512,0.5493,1.1597,1,482,856,0
16546756,1499,0.0039,-0.4082,0.9458,-12.5122,1.1597,-0.1831,1,466,894,0
16551758,1500,0.0005,-0.4111,0.9399,-12.4512,2.1973,-1.7090,1,470,880,0
16556758,1501,0.0015,-0.4160,0.9341,-12.1460,3.1128,-3.1128,1,465,872,0
16561760,1502,0.0049,-0.4199,0.9351,-11.7798,3.6011,-4.2114,1,484,871,0
16566754,1503,0.0117,-0.4189,0.9404,-11.2915,2.8076,-4.8218,1,465,890,0
16571755,1504,0.0166,-0.4146,0.9448,-11.1084,1.6479,-5.1270,1,466,902,0
16576788,1505,0.0166,-0.4121,0.9463,-11.5356,0.6714,-5.3711,1,466,900,0
16581759,1506,0.0156,-0.4121,0.9438,-11.7798,0.8545,-5.7983,1,466,900,0
16586760,1507,0.0171,-0.4146,0.9409,-11.9629,0.9155,-6.1035,1,466,902,0
16591758,1508,0.0200,-0.4175,0.9404,-12.3901,0.6104,-6.1035,1,494,894,0
16596756,1509,0.0220,-0.4199,0.9414,-12.6953,-0.1221,-5.8594,1,466,816,0
16601756,1510,0.0220,-0.4214,0.9404,-12.5122,-0.4883,-5.6763,1,491,825,0
16606758,1511,0.0215,-0.4233,0.9380,-11.9629,-0.6104,-5.6152,1,492,879,0
16611759,1512,0.0200,-0.4258,0.9331,-11.4136,-0.4883,-5.6152,1,474,868,0
16616764,1513,0.0195,-0.4263,0.9287,-10.6201,0.0000,-5.7373,1,478,890,0
16621755,1514,0.0205,-0.4248,0.9321,-10.0708,0.3662,-5.4321,1,482,825,0
16626762,1515,0.0205,-0.4243,0.9375,-9.8877,0.8545,-4.9438,1,492,870,0
16631763,1516,0.0220,-0.4258,0.9385,-9.5215,0.5493,-4.6997,1,493,842,0
16636760,1517,0.0225,-0.4263,0.9390,-9.2163,0.1221,-4.2114,1,511,841,0
16641755,1518,0.0215,-0.4272,0.9380,-9.5825,-0.0610,-4.1504,1,469,904,0
16646756,1519,0.0220,-0.4287,0.9385,-10.1318,-0.4883,-4.2725,1,479,952,0
16651762,1520,0.0225,-0.4307,0.9385,-10.6812,-0.6714,-4.1504,1,479,887,0
16656758,1521,0.0210,-0.4321,0.9390,-11.1084,-1.0376,-4.1504,1,474,876,0
16661759,1522,0.0200,-0.4331,0.9399,-11.7187,-0.9155,-4.0894,1,480,890,0
16666761,1523,0.0225,-0.4341,0.9375,-12.3901,-0.7935,-4.0283,1,480,883,0
16671757,1524,0.0259,-0.4351,0.9341,-12.9395,-0.7935,-3.6621,1,484,874,0
16676757,1525,0.0254,-0.4346,0.9355,-13.5498,-1.5259,-3.2349,1,466,891,0
16681756,1526,0.0239,-0.4355,0.9365,-14.2822,-1.8311,-3.2349,1,466,901,0
16686755,1527,0.0244,-0.4390,0.9312,-14.5264,-1.4038,-3.2959,1,466,902,0
16691756,1528,0.0210,-0.4414,0.9272,-14.4043,-0.9766,-3.4790,1,466,899,0
16696762,1529,0.0171,-0.4414,0.9312,-14.4043,-0.8545,-4.2725,1,465,897,0
16701762,1530,0.0200,-0.4414,0.9326,-14.6484,-0.9155,-4.9438,1,494,892,0
16706754,1531,0.0244,-0.4424,0.9292,-14.7095,-1.4038,-4.8828,1,494,906,0
16711761,1532,0.0239,-0.4438,0.9272,-14.7095,-1.7700,-4.8218,1,487,824,0
16716760,1533,0.0229,-0.4458,0.9277,-14.6484,-1.5869,-5.1270,1,483,882,0
16721761,1534,0.0229,-0.4482,0.9282,-14.7095,-1.4038,-5.2490,1,490,880,0
16726755,1535,0.0229,-0.4502,0.9258,-14.7705,-1.2207,-5.4932,1,472,895,0
16731758,1536,0.0234,-0.4492,0.9258,-14.8315,-1.4648,-5.6763,1,481,868,0
16736761,1537,0.0249,-0.4487,0.9287,-15.1367,-1.4038,-5.6763,1,498,874,0
16741757,1538,0.0264,-0.4512,0.9292,-15.7471,-1.2207,-5.7373,1,489,879,0
16746761,1539,0.0288,-0.4551,0.9258,-15.8691,-1.0986,-5.6763,1,512,856,0
16751755,1540,0.0288,-0.4565,0.9243,-15.8691,-1.1597,-5.2490,1,465,889,0
16756755,1541,0.0278,-0.4565,0.9243,-16.0522,-1.0376,-4.7607,1,475,936,0
16761754,1542,0.0283,-0.4570,0.9248,-15.9912,-0.9155,-4.2725,1,476,885,0
16766754,1543,0.0298,-0.4575,0.9268,-16.2964,-1.4038,-3.7842,1,479,895,0
16771758,1544,0.0308,-0.4570,0.9282,-16.7236,-1.8921,-2.9907,1,479,890,0
16776760,1545,0.0298,-0.4580,0.9277,-17.3340,-1.6479,-2.4414,1,478,873,0
16781761,1546,0.0283,-0.4609,0.9248,-18.0664,-1.2207,-2.2583,1,474,878,0
16786756,1547,0.0273,-0.4648,0.9214,-18.4937,-0.6714,-2.5024,1,483,879,0
16791755,1548,0.0254,-0.4668,0.9209,-18.7988,-0.1831,-2.6245,1,466,891,0
16796769,1549,0.0254,-0.4658,0.9219,-19.4702,0.2441,-2.8076,1,466,892,0
16801787,1550,0.0269,-0.4668,0.9199,-19.9585,0.1221,-3.1128,1,466,892,0
16806754,1551,0.0283,-0.4707,0.9180,-19.8975,0.1831,-3.2959,1,466,886,0
16811754,1552,0.0298,-0.4736,0.9185,-19.8975,0.3052,-3.4180,1,466,892,0
16816757,1553,0.0303,-0.4746,0.9160,-20.0806,0.4272,-3.6011,1,494,886,0
16821757,1554,0.0293,-0.4756,0.9106,-19.7144,0.0610,-3.7842,1,466,811,0
16826756,1555,0.0303,-0.4761,0.9092,-19.3481,-0.4883,-3.8452,1,484,868,0
16831761,1556,0.0327,-0.4775,0.9111,-19.1040,-1.1597,-3.7231,1,490,857,0
16836763,1557,0.0347,-0.4775,0.9111,-19.0430,-2.0752,-3.3569,1,491,869,0
16841774,1558,0.0347,-0.4780,0.9111,-19.4702,-2.7466,-2.9297,1,488,864,0
16846759,1559,0.0332,-0.4819,0.9121,-19.8975,-2.6855,-2.6245,1,483,865,0
16851756,1560,0.0317,-0.4868,0.9116,-19.5923,-2.5635,-2.5024,1,504,872,0
16856756,1561,0.0298,-0.4883,0.9097,-19.2261,-2.5024,-2.6855,1,496,866,0
16861756,1562,0.0288,-0.4878,0.9092,-19.2261,-2.9907,-2.9907,1,484,876,0
16866755,1563,0.0308,-0.4883,0.9082,-19.2261,-2.9907,-3.1738,1,475,915,0
16871761,1564,0.0327,-0.4897,0.9077,-19.3481,-2.6245,-3.1128,1,478,953,0
16876759,1565,0.0337,-0.4917,0.9092,-20.2637,-2.7466,-2.9297,1,470,890,0
16881758,1566,0.0361,-0.4937,0.9106,-21.1792,-2.9907,-2.4414,1,471,882,0
16886756,1567,0.0376,-0.4956,0.9058,-21.3013,-3.6621,-1.9531,1,474,856,0
16891761,1568,0.0371,-0.4985,0.8955,-21.0571,-4.0283,-1.6479,1,477,880,0
16896762,1569,0.0356,-0.5015,0.8877,-20.2637,-3.1738,-1.3428,1,484,888,0
16901756,1570,0.0332,-0.5039,0.8867,-18.9819,-1.8311,-1.2207,1,466,878,0
16906754,1571,0.0322,-0.5034,0.8955,-18.1274,-1.0376,-1.1597,1,466,893,0
16911771,1572,0.0327,-0.5020,0.9048,-17.8223,-0.6714,-1.0376,1,466,894,0
16916756,1573,0.0352,-0.5024,0.9023,-17.8223,-0.1221,-1.1597,1,465,883,0
16921758,1574,0.0366,-0.5059,0.8926,-17.0898,0.7324,-1.1597,1,493,884,0
16926760,1575,0.0371,-0.5083,0.8872,-16.2354,1.1597,-1.1597,1,475,887,0
16931758,1576,0.0371,-0.5083,0.8896,-15.4419,1.1597,-1.0376,1,494,890,0
16936757,1577,0.0361,-0.5083,0.8931,-15.0757,0.6714,-0.5493,1,486,819,0
16941758,1578,0.0352,-0.5103,0.8926,-14.7095,-0.0610,-0.3662,1,485,875,0
16946757,1579,0.0337,-0.5132,0.8887,-14.2822,0.0000,-0.0610,1,488,861,0
16951762,1580,0.0322,-0.5161,0.8833,-13.4888,0.4883,-0.1831,1,473,820,0
16956761,1581,0.0308,-0.5176,0.8818,-12.5732,0.7935,-0.2441,1,476,873,0
16961757,1582,0.0308,-0.5176,0.8877,-11.6577,0.7324,-0.3662,1,485,868,0
16966762,1583,0.0332,-0.5161,0.8931,-11.2915,0.9766,-0.4272,1,491,867,0
16971760,1584,0.0347,-0.5161,0.8945,-11.3525,1.5869,-0.3052,1,509,868,0
16976760,1585,0.0352,-0.5166,0.8955,-11.5967,2.0752,-0.4272,1,466,834,0
16981755,1586,0.0332,-0.5166,0.8950,-11.8408,2.6855,-0.6104,1,469,925,0
16986755,1587,0.0312,-0.5161,0.8936,-12.0850,2.5635,-0.5493,1,474,890,0
16991756,1588,0.0317,-0.5156,0.8950,-12.5122,2.2583,-0.4272,1,477,914,0
16996760,1589,0.0337,-0.5156,0.8984,-13.1836,2.6245,-0.4272,1,479,897,0
17001760,1590,0.0347,-0.5186,0.8960,-13.6719,2.3193,-0.4883,1,477,887,0
17006755,1591,0.0337,-0.5229,0.8857,-13.6108,1.4038,-0.3662,1,476,879,0
17011762,1592,0.0322,-0.5259,0.8770,-13.1836,0.1221,-0.3662,1,484,884,0
17016755,1593,0.0327,-0.5269,0.8760,-12.8784,-0.5493,-0.3052,1,466,895,0
17021758,1594,0.0347,-0.5264,0.8794,-12.5122,-0.6104,-0.1831,1,466,898,0
17026762,1595,0.0356,-0.5259,0.8828,-12.0850,-0.8545,-0.0610,1,466,896,0
17031754,1596,0.0322,-0.5278,0.8813,-11.6577,-1.1597,0.0000,1,493,894,0
17036758,1597,0.0278,-0.5308,0.8745,-10.9253,-0.8545,-0.3662,1,468,857,0
17041758,1598,0.0269,-0.5332,0.8711,-9.7656,-0.4883,-0.6104,1,483,894,0
17046755,1599,0.0293,-0.5327,0.8750,-9.2163,-0.7324,-0.7935,1,465,800,0
17051754,1600,0.0332,-0.5317,0.8809,-8.6060,-1.5259,-0.7324,1,479,863,0
17056761,1601,0.0371,-0.5322,0.8857,-8.1787,-1.2207,-0.6714,1,487,851,0
17061755,1602,0.0381,-0.5322,0.8862,-8.3618,-1.7090,-0.4272,1,488,859,0
17066774,1603,0.0381,-0.5322,0.8833,-8.4229,-2.5024,0.1831,1,477,880,0
17071761,1604,0.0376,-0.5322,0.8828,-8.3618,-2.3804,0.5493,1,475,854,0
17076758,1605,0.0356,-0.5327,0.8843,-8.7891,-1.8921,0.3662,1,492,856,0
17081754,1606,0.0342,-0.5337,0.8843,-9.2773,-1.2207,-0.1221,1,498,839,0
17086758,1607,0.0342,-0.5337,0.8833,-9.5215,-0.8545,-0.4272,1,484,865,0
17091759,1608,0.0337,-0.5337,0.8813,-9.6436,-0.8545,-0.7324,1,475,905,0
17096762,1609,0.0327,-0.5332,0.8794,-9.9487,-1.1597,-1.0376,1,476,952,0
17101755,1610,0.0337,-0.5347,0.8784,-10.1318,-1.1597,-1.3428,1,470,874,0
17106754,1611,0.0352,-0.5376,0.8779,-10.0098,-0.7935,-1.2207,1,476,888,0
17111762,1612,0.0352,-0.5386,0.8779,-9.5215,-1.3428,-0.8545,1,477,882,0
17116762,1613,0.0366,-0.5386,0.8779,-9.2773,-2.3193,-0.5493,1,467,859,0
17121755,1614,0.0376,-0.5386,0.8774,-9.2773,-1.8921,-0.3662,1,480,871,0
17126761,1615,0.0337,-0.5396,0.8794,-9.1553,-1.0376,-0.2441,1,466,863,0
17131757,1616,0.0298,-0.5396,0.8809,-9.5215,-0.7935,-0.3052,1,466,878,0
17136763,1617,0.0283,-0.5410,0.8770,-9.8877,-0.6714,-0.6714,1,466,871,0
17141760,1618,0.0293,-0.5430,0.8730,-10.0098,-0.3662,-0.9155,1,466,879,0
17146762,1619,0.0308,-0.5435,0.8721,-10.1929,0.0000,-1.3428,1,466,886,0
17151754,1620,0.0298,-0.5435,0.8721,-10.3760,0.3052,-1.8921,1,466,839,0
17156755,1621,0.0293,-0.5439,0.8711,-10.2539,1.0376,-2.3193,1,494,885,0
17161757,1622,0.0308,-0.5464,0.8701,-10.0708,1.7090,-2.6855,1,464,822,0
17166760,1623,0.0352,-0.5474,0.8735,-9.8877,1.8311,-2.8687,1,489,814,0
17171761,1624,0.0376,-0.5454,0.8770,-9.8877,1.7090,-2.9907,1,492,850,0
17176757,1625,0.0356,-0.5439,0.8745,-10.4980,1.0376,-3.2959,1,490,851,0
17181777,1626,0.0317,-0.5459,0.8696,-11.1084,0.2441,-3.7842,1,478,892,0
17186759,1627,0.0298,-0.5483,0.8677,-11.1694,0.5493,-4.3335,1,485,870,0
17191761,1628,0.0327,-0.5498,0.8682,-11.0474,1.0376,-4.6387,1,507,873,0
17196754,1629,0.0327,-0.5522,0.8687,-10.8032,1.8311,-4.8218,1,497,867,0
17201759,1630,0.0298,-0.5542,0.8711,-10.5591,1.8311,-4.7607,1,465,885,0
17206756,1631,0.0298,-0.5547,0.8730,-10.6201,2.4414,-4.3945,1,475,912,0
17211757,1632,0.0317,-0.5547,0.8691,-10.7422,3.2349,-3.7231,1,479,941,0
17216758,1633,0.0337,-0.5547,0.8662,-10.3149,3.4790,-3.4790,1,481,891,0
17221758,1634,0.0337,-0.5557,0.8691,-10.0708,3.6011,-2.9297,1,482,901,0
17226759,1635,0.0332,-0.5566,0.8687,-10.0098,2.9907,-2.7466,1,482,889,0
17231762,1636,0.0342,-0.5562,0.8662,-10.0708,2.5635,-2.8076,1,482,870,0
17236759,1637,0.0352,-0.5552,0.8687,-10.3149,2.6855,-3.0518,1,483,875,0
17241758,1638,0.0352,-0.5552,0.8701,-10.5591,2.6855,-3.1128,1,465,896,0
17246760,1639,0.0342,-0.5566,0.8691,-10.9863,2.5024,-2.7466,1,466,895,0
17251780,1640,0.0356,-0.5566,0.8691,-11.4746,2.1973,-2.6245,1,465,903,0
17256761,1641,0.0386,-0.5576,0.8696,-11.9019,1.8311,-2.4414,1,466,910,0
17261754,1642,0.0391,-0.5596,0.8672,-12.2070,1.7090,-2.1362,1,493,898,0
17266760,1643,0.0356,-0.5605,0.8638,-11.9629,2.1362,-2.4414,1,494,892,0
17271754,1644,0.0322,-0.5610,0.8613,-11.7798,2.5635,-2.9297,1,467,849,0
17276761,1645,0.0308,-0.5610,0.8604,-11.7798,2.6245,-3.2349,1,485,827,0
17281762,1646,0.0298,-0.5605,0.8628,-12.2681,2.5635,-3.6621,1,485,868,0
17286757,1647,0.0293,-0.5615,0.8662,-12.9395,2.2583,-4.1504,1,491,870,0
17291768,1648,0.0298,-0.5645,0.8687,-13.9770,2.1973,-4.2725,1,480,892,0
17296760,1649,0.0332,-0.5664,0.8682,-15.1978,1.5869,-4.0894,1,475,868,0
17301757,1650,0.0376,-0.5669,0.8667,-16.1133,0.7324,-3.8452,1,509,870,0
17306754,1651,0.0391,-0.5688,0.8638,-16.9678,0.1221,-3.5400,1,496,861,0
17311759,1652,0.0386,-0.5723,0.8604,-17.4561,-0.3662,-3.0518,1,512,797,0
17316763,1653,0.0371,-0.5747,0.8564,-17.4561,-0.6714,-2.6855,1,472,908,0
17321756,1654,0.0366,-0.5762,0.8530,-17.5171,-0.6104,-2.5635,1,471,959,0
17326759,1655,0.0366,-0.5781,0.8540,-17.4561,-0.6104,-2.7466,1,479,875,0
17331762,1656,0.0381,-0.5791,0.8574,-17.5781,-0.9766,-2.8687,1,474,879,0
17336754,1657,0.0405,-0.5786,0.8594,-17.9443,-1.0986,-2.7466,1,474,889,0
17341761,1658,0.0391,-0.5771,0.8579,-18.6157,-1.4038,-2.5635,1,482,875,0
17346755,1659,0.0376,-0.5767,0.8569,-19.2261,-1.5869,-2.7466,1,483,875,0
17351761,1660,0.0391,-0.5771,0.8540,-19.5923,-1.6479,-3.1128,1,466,889,0
17356758,1661,0.0415,-0.5806,0.8501,-19.3481,-1.4038,-3.2959,1,466,891,0
17361781,1662,0.0420,-0.5840,0.8481,-19.0430,-1.4648,-3.0518,1,466,888,0
17366759,1663,0.0420,-0.5864,0.8472,-18.7988,-1.5869,-2.6855,1,466,888,0
17371755,1664,0.0435,-0.5874,0.8452,-18.6157,-2.2583,-2.0142,1,494,897,0
17376757,1665,0.0444,-0.5879,0.8447,-18.4937,-2.6855,-1.4648,1,466,895,0
17381761,1666,0.0420,-0.5894,0.8452,-18.5547,-2.3193,-1.1597,1,494,897,0
17386760,1667,0.0381,-0.5923,0.8413,-18.6157,-1.7700,-1.2207,1,471,824,0
17391758,1668,0.0366,-0.5957,0.8364,-18.4326,-1.2207,-1.2817,1,479,861,0
17396756,1669,0.0376,-0.5986,0.8345,-17.9443,-0.7935,-1.2207,1,486,872,0
17401758,1670,0.0386,-0.5991,0.8350,-17.4561,-0.7324,-1.0376,1,471,862,0
17406756,1671,0.0396,-0.5977,0.8345,-17.1509,-0.9155,-0.6714,1,490,858,0
17411757,1672,0.0396,-0.6011,0.8276,-16.1133,-2.1362,-0.1831,1,495,855,0
17416759,1673,0.0400,-0.6030,0.8291,-15.1978,-2.5635,0.0610,1,492,861,0
17421763,1674,0.0405,-0.6025,0.8330,-14.4653,-2.6855,0.1221,1,511,853,0
17426758,1675,0.0386,-0.6016,0.8359,-14.3433,-2.6245,0.0610,1,465,886,0
17431763,1676,0.0381,-0.6021,0.8374,-14.5264,-2.6855,-0.4883,1,482,923,0
17436758,1677,0.0371,-0.6016,0.8379,-14.8926,-2.3193,-1.1597,1,479,883,0
17441756,1678,0.0352,-0.6016,0.8379,-15.8081,-2.1362,-1.6479,1,466,888,0
17446754,1679,0.0366,-0.6045,0.8364,-16.7236,-2.2583,-1.8921,1,468,852,0
17451754,1680,0.0396,-0.6084,0.8350,-17.2729,-2.3804,-2.1362,1,475,876,0
17456760,1681,0.0435,-0.6108,0.8330,-17.5781,-2.0142,-1.8311,1,483,873,0
17461760,1682,0.0464,-0.6113,0.8286,-17.3950,-1.6479,-1.4038,1,466,868,0
17466761,1683,0.0474,-0.6113,0.8252,-16.7847,-1.4648,-0.9766,1,466,896,0
17471764,1684,0.0469,-0.6118,0.8262,-16.4185,-1.2817,-1.0986,1,466,888,0
17476757,1685,0.0479,-0.6138,0.8247,-16.1133,-1.2817,-1.0986,1,465,890,0
17481756,1686,0.0503,-0.6157,0.8198,-15.1978,-0.7935,-1.4038,1,493,892,0
17486757,1687,0.0513,-0.6177,0.8159,-14.2822,-0.7324,-1.4648,1,475,894,0
17491756,1688,0.0483,-0.6191,0.8140,-13.3057,-1.0376,-1.0376,1,493,901,0
17496756,1689,0.0439,-0.6187,0.8140,-12.5732,-1.0986,-0.8545,1,491,818,0
17501754,1690,0.0396,-0.6182,0.8149,-12.0850,-0.6104,-1.0376,1,478,880,0
17506758,1691,0.0371,-0.6191,0.8169,-11.6577,-0.3662,-1.0986,1,479,861,0
17511775,1692,0.0366,-0.6221,0.8193,-11.1084,0.1831,-0.9766,1,483,874,0
17516762,1693,0.0366,-0.6255,0.8203,-10.8643,0.7935,-1.0376,1,478,865,0
17521762,1694,0.0371,-0.6250,0.8228,-10.9863,0.4272,-0.7935,1,497,862,0
17526754,1695,0.0386,-0.6221,0.8271,-11.7187,-0.1221,-0.7935,1,505,866,0
17531757,1696,0.0396,-0.6211,0.8271,-12.5732,0.0000,-0.7935,1,465,889,0
17536758,1697,0.0410,-0.6226,0.8257,-13.3057,0.4272,-0.8545,1,470,839,0
17541760,1698,0.0415,-0.6240,0.8228,-14.0381,0.7324,-0.8545,1,473,881,0
17546757,1699,0.0415,-0.6255,0.8184,-14.2822,0.7935,-1.0376,1,476,891,0
17551758,1700,0.0430,-0.6274,0.8159,-14.0991,1.0986,-1.2207,1,481,893,0
