t_us,seq,ax,ay,az,gx,gy,gz,valid,t_imu_us,t_serial_us,missed
31687660,0,-0.0254,-0.1411,1.0142,-0.0610,0.2441,-0.2441,1,466,0,0
31693593,1,-0.0249,-0.1406,1.0142,-0.0610,0.3052,-0.1221,1,466,0,0
31698962,2,-0.0269,-0.1401,1.0142,0.0000,0.3662,-0.0610,1,482,0,0
31702257,3,-0.0269,-0.1401,1.0142,0.0000,0.3662,-0.0610,1,496,0,0
31707599,4,-0.0269,-0.1396,1.0146,0.0000,0.3662,-0.0610,1,466,0,0
31714578,5,-0.0239,-0.1416,1.0161,0.0000,0.3662,-0.0610,1,466,0,1
31719586,6,-0.0244,-0.1426,1.0151,0.0610,0.4272,0.0000,1,466,0,1
31724588,7,-0.0259,-0.1426,1.0137,0.1221,0.3662,-0.1831,1,466,0,1
31731576,8,-0.0254,-0.1416,1.0137,0.0610,0.4272,-0.1221,1,466,0,1
31736671,9,-0.0234,-0.1421,1.0146,0.0000,0.5493,-0.0610,1,466,0,1
31742602,10,-0.0234,-0.1416,1.0151,0.0000,0.4883,-0.0610,1,466,0,1
31749583,11,-0.0273,-0.1411,1.0146,0.0610,0.4272,-0.1221,1,466,0,2
31755604,12,-0.0278,-0.1411,1.0151,0.0000,0.4883,-0.1221,1,466,0,2
31762584,13,-0.0229,-0.1406,1.0190,0.0000,0.6104,-0.1221,1,466,0,2
31766893,14,-0.0229,-0.1406,1.0190,0.0000,0.6104,-0.1221,1,466,0,2
31769578,15,-0.0220,-0.1411,1.0190,-0.0610,0.6104,-0.1221,1,466,0,2
31775597,16,-0.0239,-0.1411,1.0181,-0.0610,0.7324,-0.1221,1,466,0,2
31780967,17,-0.0264,-0.1406,1.0166,-0.0610,0.6104,-0.3052,1,477,0,2
31787576,18,-0.0278,-0.1416,1.0142,-0.1831,0.6104,-0.1831,1,466,0,2
31791953,19,-0.0249,-0.1416,1.0146,-0.1221,0.5493,-0.1221,1,470,0,2
31796657,20,-0.0249,-0.1416,1.0146,-0.1221,0.5493,-0.1221,1,466,0,2
31799580,21,-0.0234,-0.1421,1.0146,0.0000,0.6104,-0.0610,1,466,0,2
31804582,22,-0.0244,-0.1426,1.0142,-0.1221,0.5493,-0.1221,1,466,0,2
31811595,23,-0.0259,-0.1421,1.0142,-0.0610,0.4883,-0.1221,1,466,0,2
31814586,24,-0.0264,-0.1411,1.0137,-0.1221,0.4272,-0.1831,1,466,0,2
31820580,25,-0.0249,-0.1411,1.0142,-0.1221,0.3052,-0.1831,1,466,0,2
31824588,26,-0.0239,-0.1396,1.0171,-0.2441,0.3662,-0.1831,1,466,0,2
31829585,27,-0.0254,-0.1387,1.0181,-0.2441,0.4883,-0.2441,1,466,0,2
31834862,28,-0.0269,-0.1392,1.0166,-0.3052,0.5493,-0.1831,1,484,0,2
31839578,29,-0.0273,-0.1401,1.0156,-0.3052,0.3662,0.0000,1,466,0,2
31844581,30,-0.0269,-0.1416,1.0142,-0.2441,0.3052,-0.1221,1,467,0,2
31851571,31,-0.0259,-0.1416,1.0142,-0.2441,0.3052,-0.0610,1,466,0,2
31856890,32,-0.0259,-0.1426,1.0146,-0.3052,0.3662,-0.1831,1,481,0,2
31862209,33,-0.0264,-0.1431,1.0137,-0.1831,0.3052,-0.2441,1,500,0,2
31867606,34,-0.0264,-0.1440,1.0137,-0.2441,0.1831,-0.2441,1,466,0,2
31869871,35,-0.0264,-0.1440,1.0137,-0.2441,0.1831,-0.2441,1,478,0,2
31876595,36,-0.0254,-0.1436,1.0127,-0.1831,0.0610,-0.2441,1,466,0,2
31883583,37,-0.0244,-0.1431,1.0137,-0.1221,0.1831,-0.1221,1,466,0,2
31884910,38,-0.0244,-0.1431,1.0137,-0.1221,0.1831,-0.1221,1,466,0,2
31889579,39,-0.0249,-0.1416,1.0151,-0.1221,0.2441,0.0000,1,467,0,2
31897879,40,-0.0264,-0.1416,1.0161,-0.1831,0.1221,-0.1831,1,473,0,2
31903159,41,-0.0249,-0.1421,1.0161,-0.2441,0.0000,-0.1221,1,492,0,2
31908591,42,-0.0244,-0.1416,1.0156,-0.2441,0.1221,-0.1221,1,466,0,2
31909933,43,-0.0244,-0.1416,1.0156,-0.2441,0.1221,-0.1221,1,467,0,2
31915475,44,-0.0273,-0.1431,1.0156,-0.1221,0.1221,-0.2441,1,466,0,2
31921592,45,-0.0278,-0.1440,1.0161,-0.1221,0.0610,-0.2441,1,466,0,2
31928568,46,-0.0269,-0.1440,1.0156,-0.2441,0.0000,-0.1221,1,467,0,2
31929864,47,-0.0264,-0.1421,1.0146,-0.1221,0.0000,-0.1831,1,483,0,2
31940605,48,-0.0293,-0.1426,1.0132,-0.0610,0.3052,-0.1831,1,467,0,3
31944587,49,-0.0298,-0.1440,1.0122,-0.0610,0.0610,-0.1831,1,466,0,3
31951576,50,-0.0283,-0.1440,1.0117,0.0000,0.0610,-0.1831,1,466,0,3
31957603,51,-0.0269,-0.1426,1.0127,0.0000,0.0610,-0.1831,1,466,0,3
31963584,52,-0.0269,-0.1406,1.0142,-0.0610,0.1221,-0.1221,1,466,0,3
31969595,53,-0.0278,-0.1416,1.0156,-0.1831,0.1831,-0.1831,1,466,0,4
31975610,54,-0.0273,-0.1436,1.0142,0.0000,0.2441,-0.1221,1,466,0,4
31981589,55,-0.0264,-0.1440,1.0132,0.0000,0.1221,0.0000,1,466,0,4
31987603,56,-0.0254,-0.1436,1.0137,-0.1831,0.0610,-0.1221,1,466,0,4
31992971,57,-0.0254,-0.1426,1.0142,-0.1221,0.0610,-0.0610,1,471,0,4
31999581,58,-0.0283,-0.1431,1.0127,0.0000,0.0610,-0.1221,1,466,0,5
32004579,59,-0.0278,-0.1440,1.0117,0.0000,0.0000,-0.3052,1,466,0,5
32009586,60,-0.0273,-0.1440,1.0132,-0.0610,-0.1221,-0.1831,1,466,0,5
32015660,61,-0.0264,-0.1431,1.0146,0.0610,0.0000,-0.0610,1,466,0,5
32021597,62,-0.0259,-0.1431,1.0156,0.0000,-0.0610,-0.1831,1,466,0,5
32027580,63,-0.0254,-0.1421,1.0161,0.0610,0.2441,-0.1221,1,466,0,5
32032949,64,-0.0269,-0.1416,1.0161,0.0000,0.3052,-0.0610,1,472,0,5
32038945,65,-0.0264,-0.1436,1.0132,0.0610,0.0610,-0.1221,1,469,0,5
32041436,66,-0.0264,-0.1436,1.0132,0.0610,0.0610,-0.1221,1,496,0,5
32044595,67,-0.0249,-0.1411,1.0132,0.1221,0.1831,-0.1831,1,466,0,5
32050664,68,-0.0244,-0.1406,1.0132,-0.1221,0.1831,-0.1831,1,466,0,5
32056600,69,-0.0234,-0.1416,1.0132,-0.0610,0.0610,-0.1831,1,467,0,5
32059581,70,-0.0244,-0.1421,1.0142,0.0000,0.2441,-0.2441,1,466,0,5
32064580,71,-0.0269,-0.1416,1.0146,0.0000,0.3052,-0.2441,1,466,0,5
32069585,72,-0.0283,-0.1426,1.0146,-0.1221,0.2441,-0.1221,1,466,0,5
32075582,73,-0.0288,-0.1431,1.0146,-0.1831,0.3052,-0.1831,1,466,0,5
32079584,74,-0.0269,-0.1431,1.0156,-0.1221,0.1831,-0.1831,1,466,0,5
32084582,75,-0.0249,-0.1426,1.0161,-0.1221,0.2441,-0.3052,1,466,0,5
32090598,76,-0.0254,-0.1411,1.0161,-0.2441,0.2441,-0.1221,1,466,0,5
32095649,77,-0.0254,-0.1401,1.0156,-0.1831,0.1221,-0.0610,1,466,0,5
32101584,78,-0.0249,-0.1401,1.0156,-0.1831,0.1831,0.0000,1,466,0,5
32104878,79,-0.0264,-0.1406,1.0151,-0.2441,0.2441,-0.0610,1,473,0,5
32110157,80,-0.0273,-0.1426,1.0146,-0.2441,0.3052,-0.1221,1,494,0,5
32115593,81,-0.0264,-0.1436,1.0142,-0.2441,0.3662,-0.0610,1,466,0,5
32119583,82,-0.0273,-0.1431,1.0117,-0.1221,0.3052,0.0000,1,466,0,5
32124579,83,-0.0283,-0.1445,1.0093,-0.1221,0.1221,-0.1221,1,466,0,5
32129578,84,-0.0278,-0.1455,1.0103,0.0610,-0.0610,-0.1221,1,466,0,5
32136573,85,-0.0269,-0.1440,1.0146,0.1221,-0.1221,-0.1221,1,466,0,5
32143591,86,-0.0254,-0.1411,1.0151,-0.0610,0.0610,-0.1831,1,466,0,5
32149587,87,-0.0264,-0.1426,1.0132,0.0000,0.0000,-0.1221,1,466,0,6
32154580,88,-0.0273,-0.1421,1.0127,0.0000,0.0000,-0.1831,1,466,0,6
32159579,89,-0.0273,-0.1421,1.0122,0.0610,-0.1221,-0.1831,1,467,0,6
32164586,90,-0.0269,-0.1421,1.0122,0.1831,0.0000,-0.2441,1,466,0,6
32169595,91,-0.0273,-0.1426,1.0127,0.2441,-0.0610,-0.1831,1,466,0,6
32176580,92,-0.0269,-0.1426,1.0137,0.2441,-0.1221,-0.1831,1,466,0,6
32182609,93,-0.0264,-0.1426,1.0156,0.3052,-0.1221,-0.3052,1,466,0,6
32186969,94,-0.0254,-0.1426,1.0161,0.2441,-0.1831,-0.1831,1,473,0,6
32191242,95,-0.0254,-0.1426,1.0156,0.1221,-0.1221,-0.1831,1,488,0,6
32194584,96,-0.0254,-0.1426,1.0156,0.1221,-0.1221,-0.1831,1,466,0,6
32199587,97,-0.0249,-0.1421,1.0161,0.2441,0.0610,-0.2441,1,466,0,6
32204581,98,-0.0234,-0.1411,1.0166,0.2441,0.0610,-0.1221,1,466,0,6
32209580,99,-0.0229,-0.1406,1.0171,0.1221,0.0000,-0.1221,1,466,0,6
32214578,100,-0.0244,-0.1406,1.0161,0.1221,0.0610,-0.1221,1,466,0,6
32220608,101,-0.0269,-0.1421,1.0151,0.1831,0.1831,-0.2441,1,466,0,6
32226590,102,-0.0254,-0.1411,1.0161,0.1221,0.1221,-0.1831,1,466,0,6
32233588,103,-0.0239,-0.1401,1.0166,0.1221,0.2441,-0.1221,1,466,0,6
32239590,104,-0.0234,-0.1406,1.0166,0.0610,0.2441,-0.2441,1,466,0,7
32246588,105,-0.0249,-0.1411,1.0176,0.0610,0.1831,-0.1221,1,466,0,7
32252592,106,-0.0249,-0.1401,1.0176,0.0610,0.2441,-0.1221,1,466,0,7
32259587,107,-0.0239,-0.1401,1.0176,0.0000,0.3662,-0.0610,1,466,0,8
32264585,108,-0.0239,-0.1411,1.0166,-0.0610,0.3662,-0.1221,1,466,0,8
32270595,109,-0.0273,-0.1426,1.0117,0.0000,0.3052,-0.1831,1,467,0,8
32276242,110,-0.0264,-0.1436,1.0127,-0.0610,0.3052,-0.2441,1,488,0,8
32279780,111,-0.0254,-0.1431,1.0127,-0.0610,0.1221,-0.3052,1,466,0,8
32285612,112,-0.0254,-0.1421,1.0132,0.0610,0.0000,-0.2441,1,466,0,8
32290950,113,-0.0244,-0.1411,1.0151,0.0610,0.0610,-0.2441,1,469,0,8
32295331,114,-0.0239,-0.1411,1.0156,-0.0610,0.1831,-0.1221,1,492,0,8
32300594,115,-0.0244,-0.1421,1.0151,-0.0610,0.1831,-0.1831,1,466,0,8
32304578,116,-0.0254,-0.1426,1.0151,0.0000,0.2441,-0.1221,1,466,0,8
32309585,117,-0.0259,-0.1431,1.0151,0.0610,0.3052,-0.1831,1,466,0,8
32315611,118,-0.0259,-0.1436,1.0142,0.0000,0.1831,-0.2441,1,466,0,8
32321591,119,-0.0254,-0.1431,1.0142,-0.0610,0.0610,-0.1831,1,466,0,8
32324593,120,-0.0264,-0.1431,1.0146,0.0610,0.1221,-0.1221,1,466,0,8
32331580,121,-0.0264,-0.1436,1.0146,0.0000,0.2441,-0.1221,1,466,0,8
32334576,122,-0.0249,-0.1431,1.0151,0.1221,0.1831,-0.1221,1,466,0,8
32339578,123,-0.0249,-0.1416,1.0156,0.1221,0.1221,-0.1831,1,466,0,8
32345610,124,-0.0249,-0.1406,1.0142,0.0610,0.2441,-0.1221,1,466,0,8
32352575,125,-0.0244,-0.1411,1.0142,0.1221,0.1221,-0.1831,1,466,0,8
32359563,126,-0.0244,-0.1440,1.0161,0.0610,0.2441,-0.1831,1,466,0,8
32362939,127,-0.0244,-0.1440,1.0161,0.0610,0.2441,-0.1831,1,480,0,8
32369574,128,-0.0264,-0.1445,1.0146,0.1221,0.2441,-0.3662,1,466,0,8
32372949,129,-0.0259,-0.1426,1.0146,0.0610,0.1831,-0.1221,1,470,0,8
32378229,130,-0.0259,-0.1401,1.0146,0.0000,0.1831,-0.1831,1,490,0,8
32380519,131,-0.0259,-0.1401,1.0146,0.0000,0.1831,-0.1831,1,495,0,8
32386592,132,-0.0264,-0.1396,1.0137,0.1221,0.1831,-0.1831,1,466,0,8
32389584,133,-0.0259,-0.1411,1.0146,0.0000,0.2441,-0.1831,1,466,0,8
32394582,134,-0.0259,-0.1431,1.0146,0.0610,0.2441,-0.2441,1,512,0,8
32400508,135,-0.0259,-0.1431,1.0142,0.1221,0.1831,-0.1831,1,466,0,8
32404580,136,-0.0254,-0.1411,1.0142,0.1221,0.1831,-0.2441,1,466,0,8
32410610,137,-0.0254,-0.1406,1.0146,0.1221,0.2441,-0.1831,1,467,0,8
32417577,138,-0.0264,-0.1411,1.0137,0.1831,0.1221,-0.0610,1,466,0,8
32424564,139,-0.0269,-0.1411,1.0137,0.1221,0.2441,0.0000,1,466,0,8
32425867,140,-0.0269,-0.1411,1.0137,0.1221,0.2441,0.0000,1,478,0,8
32436612,141,-0.0254,-0.1421,1.0142,0.1221,0.1831,-0.2441,1,467,0,9
32439577,142,-0.0254,-0.1431,1.0146,0.1831,0.1831,-0.1831,1,466,0,9
32445584,143,-0.0254,-0.1431,1.0151,0.1831,0.1831,-0.1831,1,467,0,9
32451594,144,-0.0254,-0.1426,1.0146,0.1831,0.1831,-0.2441,1,466,0,9
32458561,145,-0.0273,-0.1406,1.0137,0.3052,0.1221,-0.2441,1,466,0,9
32463953,146,-0.0273,-0.1401,1.0132,0.3052,0.1221,-0.1831,1,466,0,9
32469600,147,-0.0269,-0.1406,1.0127,0.3052,0.0000,-0.2441,1,466,0,10
32474586,148,-0.0259,-0.1416,1.0137,0.3662,-0.0610,-0.1831,1,466,0,10
32480585,149,-0.0249,-0.1421,1.0156,0.3052,0.1831,-0.1831,1,466,0,10
32486597,150,-0.0273,-0.1416,1.0161,0.2441,0.0610,-0.2441,1,466,0,10
32493565,151,-0.0278,-0.1426,1.0137,0.2441,0.0610,-0.2441,1,466,0,10
32497949,152,-0.0264,-0.1436,1.0132,0.2441,0.0610,-0.2441,1,468,0,10
32502220,153,-0.0244,-0.1416,1.0161,0.3052,0.0610,-0.3052,1,491,0,10
32504583,154,-0.0244,-0.1416,1.0161,0.3052,0.0610,-0.3052,1,466,0,10
32510585,155,-0.0239,-0.1406,1.0181,0.3052,0.0000,-0.2441,1,466,0,10
32514579,156,-0.0249,-0.1406,1.0176,0.2441,0.0610,-0.1221,1,466,0,10
32520593,157,-0.0264,-0.1421,1.0146,0.0000,0.0610,-0.1221,1,466,0,10
32526086,158,-0.0264,-0.1416,1.0151,0.1221,0.0000,-0.1221,1,513,0,10
32529583,159,-0.0264,-0.1416,1.0151,0.1221,0.0000,-0.1221,1,466,0,10
32534576,160,-0.0259,-0.1401,1.0171,0.2441,0.2441,-0.1831,1,466,0,10
32539584,161,-0.0254,-0.1396,1.0176,0.0610,0.2441,-0.3052,1,466,0,10
32545655,162,-0.0254,-0.1401,1.0142,0.1221,0.2441,-0.1221,1,466,0,10
32551601,163,-0.0264,-0.1401,1.0127,0.1221,0.3052,-0.2441,1,466,0,10
32558566,164,-0.0264,-0.1411,1.0122,0.1221,0.0610,-0.1831,1,466,0,10
32564601,165,-0.0264,-0.1421,1.0122,0.1221,0.0610,-0.1221,1,467,0,11
32569582,166,-0.0269,-0.1426,1.0142,0.1221,0.1831,-0.1831,1,466,0,11
32575588,167,-0.0264,-0.1411,1.0142,0.2441,0.1831,-0.3052,1,466,0,11
32582585,168,-0.0264,-0.1406,1.0142,0.0610,0.1221,-0.3052,1,467,0,11
32588654,169,-0.0259,-0.1411,1.0132,0.0000,0.2441,-0.1831,1,466,0,11
32589959,170,-0.0264,-0.1416,1.0132,0.0000,0.3052,-0.1831,1,480,0,11
32598259,171,-0.0273,-0.1426,1.0146,0.1831,0.1831,-0.1221,1,504,0,11
32603603,172,-0.0283,-0.1431,1.0151,0.2441,0.0610,-0.1831,1,466,0,11
32604949,173,-0.0273,-0.1416,1.0146,0.1831,0.1221,-0.1221,1,468,0,11
32609576,174,-0.0254,-0.1416,1.0151,0.1831,0.1221,-0.1221,1,466,0,11
32615934,175,-0.0229,-0.1421,1.0151,0.1221,0.1831,-0.2441,1,484,0,11
32619578,176,-0.0234,-0.1416,1.0151,0.0610,0.1221,-0.1221,1,466,0,11
32624870,177,-0.0239,-0.1416,1.0151,0.2441,0.1831,-0.1221,1,476,0,11
32629583,178,-0.0244,-0.1436,1.0151,0.3662,0.1831,-0.1221,1,466,0,11
32634593,179,-0.0244,-0.1436,1.0156,0.1221,0.1221,-0.1831,1,466,0,11
32640588,180,-0.0249,-0.1426,1.0166,0.0610,0.1831,-0.1831,1,466,0,11
32647586,181,-0.0244,-0.1421,1.0166,0.1831,0.0610,-0.2441,1,466,0,11
32653590,182,-0.0254,-0.1416,1.0161,0.2441,0.3052,-0.1221,1,466,0,11
32654931,183,-0.0254,-0.1416,1.0161,0.2441,0.3052,-0.1221,1,467,0,11
32662284,184,-0.0249,-0.1421,1.0161,0.1221,0.3052,-0.1221,1,479,0,11
32667598,185,-0.0254,-0.1416,1.0161,0.0000,0.3662,-0.1831,1,466,0,11
32674563,186,-0.0249,-0.1411,1.0161,0.0610,0.3662,-0.1831,1,466,0,11
32679954,187,-0.0278,-0.1406,1.0132,0.0000,0.4272,-0.1221,1,467,0,12
32684576,188,-0.0273,-0.1406,1.0132,-0.0610,0.3052,-0.1221,1,466,0,12
32689584,189,-0.0259,-0.1421,1.0142,0.1221,0.4272,-0.1831,1,466,0,12
32695583,190,-0.0259,-0.1426,1.0151,0.1221,0.4883,-0.1221,1,466,0,12
32702577,191,-0.0269,-0.1411,1.0146,0.0610,0.3662,-0.1221,1,466,0,12
32708580,192,-0.0264,-0.1401,1.0137,0.0000,0.3052,-0.0610,1,467,0,12
32713828,193,-0.0264,-0.1406,1.0156,0.0000,0.3662,-0.1221,1,484,0,12
32719078,194,-0.0259,-0.1421,1.0171,0.0000,0.3052,-0.1831,1,497,0,12
32724602,195,-0.0259,-0.1416,1.0190,0.0610,0.3052,-0.1221,1,466,0,13
32729585,196,-0.0264,-0.1411,1.0186,0.1221,0.3662,-0.1831,1,466,0,13
32735590,197,-0.0259,-0.1416,1.0156,0.0610,0.1831,-0.1221,1,466,0,13
32739580,198,-0.0254,-0.1421,1.0142,0.1221,0.1221,-0.1221,1,466,0,13
32745598,199,-0.0259,-0.1416,1.0151,0.2441,0.3052,-0.1831,1,466,0,13
32752565,200,-0.0264,-0.1411,1.0166,0.1221,0.3662,-0.1221,1,466,0,13
32758599,201,-0.0259,-0.1411,1.0151,0.0000,0.1831,-0.0610,1,466,0,13
32762075,202,-0.0249,-0.1406,1.0151,0.1831,0.3052,-0.2441,1,501,0,13
32767603,203,-0.0244,-0.1406,1.0151,0.1221,0.4883,-0.1221,1,466,0,13
32774570,204,-0.0239,-0.1396,1.0142,0.0610,0.3662,0.0000,1,466,0,13
32780601,205,-0.0244,-0.1387,1.0137,0.0610,0.3052,-0.1831,1,466,0,14
32787568,206,-0.0249,-0.1401,1.0137,0.0610,0.3052,-0.1831,1,466,0,14
32793602,207,-0.0239,-0.1401,1.0142,0.0610,0.3052,-0.0610,1,466,0,14
32794946,208,-0.0239,-0.1401,1.0142,0.0610,0.3052,-0.0610,1,470,0,14
32805597,209,-0.0225,-0.1406,1.0161,-0.0610,0.5493,-0.1221,1,466,0,15
32812562,210,-0.0259,-0.1411,1.0151,0.0000,0.4883,-0.1221,1,466,0,15
32818597,211,-0.0249,-0.1411,1.0146,-0.1221,0.4272,-0.1831,1,466,0,15
32819945,212,-0.0249,-0.1411,1.0146,-0.1221,0.4272,-0.1831,1,470,0,15
32824581,213,-0.0239,-0.1411,1.0142,-0.0610,0.5493,-0.2441,1,466,0,15
32833976,214,-0.0273,-0.1382,1.0142,0.0000,0.4272,-0.1831,1,482,0,15
32838217,215,-0.0278,-0.1392,1.0142,-0.0610,0.4272,-0.1831,1,490,0,15
32843589,216,-0.0288,-0.1411,1.0142,-0.1221,0.3662,-0.0610,1,466,0,15
32844932,217,-0.0288,-0.1411,1.0142,-0.1221,0.3662,-0.0610,1,483,0,15
32855582,218,-0.0259,-0.1416,1.0137,-0.1831,0.3662,-0.1831,1,466,0,16
32862580,219,-0.0259,-0.1416,1.0137,-0.1221,0.2441,-0.1831,1,466,0,16
32867971,220,-0.0259,-0.1411,1.0142,-0.0610,0.3052,-0.1831,1,467,0,16
32873372,221,-0.0264,-0.1411,1.0142,-0.1831,0.3052,-0.1831,1,504,0,16
32876155,222,-0.0264,-0.1421,1.0142,-0.1221,0.4272,-0.1221,1,474,0,16
32880668,223,-0.0249,-0.1426,1.0132,-0.1221,0.4883,-0.1221,1,466,0,16
32884584,224,-0.0249,-0.1426,1.0132,-0.1221,0.4883,-0.1221,1,466,0,16
32891573,225,-0.0239,-0.1431,1.0132,0.0000,0.4272,-0.1831,1,466,0,16
32897606,226,-0.0244,-0.1421,1.0146,-0.0610,0.3662,-0.0610,1,466,0,16
32904573,227,-0.0249,-0.1406,1.0156,0.0000,0.4272,-0.1831,1,466,0,16
32910607,228,-0.0269,-0.1411,1.0146,-0.0610,0.4883,0.0000,1,466,0,17
32914579,229,-0.0269,-0.1426,1.0132,-0.0610,0.4883,-0.1221,1,466,0,17
32919584,230,-0.0254,-0.1431,1.0142,-0.0610,0.4883,-0.1831,1,466,0,17
32926574,231,-0.0239,-0.1421,1.0166,-0.0610,0.4272,-0.1831,1,466,0,17
32932609,232,-0.0239,-0.1416,1.0176,-0.1221,0.5493,-0.1831,1,466,0,17
32937032,233,-0.0249,-0.1431,1.0186,-0.1831,0.6104,-0.0610,1,472,0,17
32941396,234,-0.0269,-0.1421,1.0166,0.8545,0.5493,-0.3662,1,496,0,17
32948577,235,-0.0283,-0.1396,1.0142,-0.3052,0.6104,-0.1221,1,466,0,17
32949913,236,-0.0273,-0.1406,1.0156,-0.7935,0.5493,0.0000,1,478,0,17
32954576,237,-0.0264,-0.1406,1.0161,-0.6104,0.7324,-0.1221,1,466,0,17
32961934,238,-0.0269,-0.1401,1.0161,-0.4272,0.7324,-0.1221,1,480,0,17
32964580,239,-0.0273,-0.1392,1.0156,-0.0610,0.5493,-0.1831,1,466,0,17
32969581,240,-0.0278,-0.1392,1.0146,-0.6104,0.6104,0.1221,1,466,0,17
32975607,241,-0.0269,-0.1406,1.0137,-0.5493,0.5493,0.0610,1,466,0,17
32982573,242,-0.0249,-0.1421,1.0151,-0.5493,0.6714,0.0000,1,466,0,17
32988609,243,-0.0244,-0.1426,1.0166,-0.1221,0.7324,0.1221,1,466,0,17
32989956,244,-0.0244,-0.1426,1.0166,-0.1221,0.7324,0.1221,1,480,0,17
33000602,245,-0.0269,-0.1421,1.0156,-0.3662,0.6714,-0.1221,1,467,0,18
33004584,246,-0.0269,-0.1426,1.0142,-0.2441,0.4883,-0.0610,1,466,0,18
33011565,247,-0.0264,-0.1436,1.0132,-0.1831,0.6714,0.0000,1,466,0,18
33014577,248,-0.0273,-0.1440,1.0137,0.0000,0.7324,-0.2441,1,466,0,18
33019579,249,-0.0273,-0.1431,1.0142,-0.0610,0.6714,-0.2441,1,467,0,18
33024578,250,-0.0264,-0.1426,1.0146,-0.1831,0.6104,-0.1221,1,466,0,18
33030602,251,-0.0254,-0.1421,1.0156,-0.2441,0.6714,-0.1831,1,466,0,18
33037566,252,-0.0249,-0.1426,1.0166,0.0000,0.7324,-0.1831,1,466,0,18
33043600,253,-0.0273,-0.1416,1.0137,-0.2441,0.6714,-0.0610,1,466,0,18
33044943,254,-0.0273,-0.1416,1.0137,-0.2441,0.6714,-0.0610,1,472,0,18
33052312,255,-0.0278,-0.1431,1.0122,-0.2441,0.6104,-0.0610,1,479,0,18
33056635,256,-0.0273,-0.1440,1.0132,-0.1831,0.5493,-0.1831,1,466,0,18
33063566,257,-0.0269,-0.1426,1.0142,-0.1831,0.4883,0.0000,1,466,0,18
33065820,258,-0.0269,-0.1426,1.0142,-0.1831,0.4883,0.0000,1,484,0,18
33070089,259,-0.0278,-0.1416,1.0142,-0.3052,0.4272,-0.0610,1,497,0,18
33075398,260,-0.0273,-0.1416,1.0151,-0.2441,0.5493,-0.1221,1,495,0,18
33084563,261,-0.0278,-0.1436,1.0137,-0.2441,0.6714,0.0000,1,466,0,18
33086820,262,-0.0278,-0.1436,1.0137,-0.2441,0.6714,0.0000,1,483,0,18
33089578,263,-0.0288,-0.1426,1.0146,-0.0610,0.4883,0.0000,1,466,0,18
33095601,264,-0.0283,-0.1406,1.0156,-0.1831,0.5493,-0.0610,1,466,0,18
33101585,265,-0.0278,-0.1416,1.0151,-0.3052,0.4883,-0.0610,1,466,0,18
33107595,266,-0.0283,-0.1431,1.0127,-0.3052,0.4883,-0.0610,1,466,0,18
33110951,267,-0.0283,-0.1431,1.0127,-0.3052,0.4883,-0.0610,1,466,0,18
33116542,268,-0.0278,-0.1426,1.0132,-0.2441,0.5493,-0.0610,1,466,0,18
33119582,269,-0.0278,-0.1426,1.0132,-0.2441,0.5493,-0.0610,1,467,0,18
33124583,270,-0.0278,-0.1426,1.0146,-0.2441,0.4272,-0.1221,1,466,0,18
33129579,271,-0.0259,-0.1436,1.0156,-0.4272,0.4883,-0.1221,1,466,0,18
33135579,272,-0.0249,-0.1426,1.0161,-0.3662,0.4883,-0.0610,1,466,0,18
33141658,273,-0.0269,-0.1416,1.0156,-0.1831,0.4272,0.1221,1,466,0,18
33147604,274,-0.0283,-0.1416,1.0146,-0.1831,0.4272,0.0000,1,466,0,18
33149920,275,-0.0283,-0.1416,1.0146,-0.1831,0.4272,0.0000,1,470,0,18
33155598,276,-0.0288,-0.1426,1.0137,-0.3662,0.3052,-0.1221,1,467,0,18
33162566,277,-0.0288,-0.1440,1.0127,-0.1831,0.3662,-0.1221,1,466,0,18
33166950,278,-0.0298,-0.1440,1.0127,-0.0610,0.3052,-0.0610,1,466,0,18
33172599,279,-0.0303,-0.1436,1.0122,0.0610,0.1831,-0.1221,1,466,0,18
33178580,280,-0.0303,-0.1431,1.0122,-0.1221,0.3052,-0.0610,1,466,0,18
33179921,281,-0.0303,-0.1431,1.0122,-0.1221,0.3052,-0.0610,1,470,0,18
33184578,282,-0.0288,-0.1431,1.0127,-0.1831,0.2441,-0.0610,1,466,0,18
33192951,283,-0.0254,-0.1436,1.0146,0.0610,0.1831,-0.1221,1,482,0,18
33195214,284,-0.0254,-0.1431,1.0156,-0.1221,0.2441,-0.1221,1,484,0,18
33201566,285,-0.0264,-0.1440,1.0156,-0.1831,0.3662,-0.0610,1,466,0,18
33206959,286,-0.0269,-0.1450,1.0142,-0.1221,0.3052,-0.0610,1,477,0,18
33212346,287,-0.0278,-0.1431,1.0127,-0.0610,0.3052,-0.0610,1,492,0,18
33214582,288,-0.0278,-0.1431,1.0127,-0.0610,0.3052,-0.0610,1,466,0,18
33220601,289,-0.0273,-0.1436,1.0146,-0.1221,0.3052,0.0000,1,466,0,18
33224932,290,-0.0278,-0.1436,1.0151,-0.0610,0.3662,-0.1831,1,482,0,18
33231565,291,-0.0298,-0.1426,1.0132,0.0610,0.3052,-0.0610,1,466,0,18
33234582,292,-0.0303,-0.1431,1.0112,0.0000,0.2441,-0.0610,1,466,0,18
33240589,293,-0.0293,-0.1450,1.0112,0.0610,0.2441,-0.1221,1,466,0,18
33244584,294,-0.0283,-0.1455,1.0117,0.1221,0.3052,-0.0610,1,466,0,18
33249578,295,-0.0283,-0.1445,1.0137,0.1831,0.3662,-0.0610,1,466,0,18
33254870,296,-0.0283,-0.1436,1.0156,0.1831,0.1831,-0.1831,1,473,0,18
33259580,297,-0.0278,-0.1431,1.0151,0.2441,0.2441,-0.2441,1,466,0,18
33264971,298,-0.0278,-0.1440,1.0146,0.1831,0.2441,-0.2441,1,467,0,18
33269580,299,-0.0278,-0.1445,1.0151,0.3052,0.2441,-0.1221,1,467,0,18
33274577,300,-0.0283,-0.1426,1.0146,0.3052,0.2441,-0.0610,1,467,0,18
33279578,301,-0.0283,-0.1411,1.0146,0.3052,0.1831,-0.0610,1,466,0,18
33284577,302,-0.0273,-0.1401,1.0151,0.3052,0.1831,-0.1221,1,467,0,18
33290577,303,-0.0273,-0.1421,1.0142,0.1221,0.2441,-0.1221,1,466,0,18
33295655,304,-0.0293,-0.1426,1.0127,0.0610,0.3052,-0.1221,1,466,0,18
33301596,305,-0.0312,-0.1431,1.0127,0.0000,0.1221,-0.1831,1,466,0,18
33308560,306,-0.0264,-0.1406,1.0137,0.0610,0.1221,-0.0610,1,466,0,18
33309901,307,-0.0264,-0.1406,1.0137,0.0610,0.1221,-0.0610,1,467,0,18
33314577,308,-0.0283,-0.1396,1.0156,0.0000,0.1831,-0.1221,1,466,0,18
33325580,309,-0.0283,-0.1455,1.0137,0.3052,0.0610,-0.1221,1,467,0,19
33329584,310,-0.0278,-0.1416,1.0151,0.1831,0.1221,-0.2441,1,467,0,19
33336577,311,-0.0273,-0.1416,1.0151,0.0610,0.1221,-0.1221,1,466,0,19
33343563,312,-0.0273,-0.1426,1.0146,0.1831,0.1221,-0.1221,1,466,0,19
33349597,313,-0.0278,-0.1426,1.0137,0.0610,0.0610,-0.1221,1,466,0,20
33354599,314,-0.0264,-0.1440,1.0142,0.1221,0.1221,-0.1221,1,466,0,20
33359580,315,-0.0259,-0.1436,1.0156,0.2441,0.2441,-0.1831,1,467,0,20
33364584,316,-0.0254,-0.1436,1.0137,0.2441,0.1221,0.0000,1,466,0,20
33369890,317,-0.0254,-0.1436,1.0127,0.1831,0.1221,0.0000,1,477,0,20
33376583,318,-0.0273,-0.1426,1.0142,0.0000,0.3052,-0.0610,1,466,0,20
33379578,319,-0.0293,-0.1426,1.0146,0.0000,0.1831,-0.1221,1,466,0,20
33384583,320,-0.0293,-0.1445,1.0137,0.3662,0.0610,-0.1831,1,466,0,20
33389970,321,-0.0278,-0.1445,1.0127,0.4883,0.1221,0.0000,1,467,0,20
33394576,322,-0.0269,-0.1421,1.0122,0.2441,0.0610,-0.1221,1,466,0,20
33399859,323,-0.0278,-0.1431,1.0132,0.0610,0.1831,-0.3052,1,480,0,20
33404585,324,-0.0288,-0.1440,1.0137,0.6104,0.1221,-0.1221,1,467,0,20
33410601,325,-0.0283,-0.1426,1.0127,0.4883,0.1831,-0.1221,1,466,0,20
33414579,326,-0.0273,-0.1401,1.0137,0.1831,0.3662,-0.1221,1,481,0,20
33419583,327,-0.0273,-0.1396,1.0146,0.4883,0.2441,-0.0610,1,466,0,20
33425587,328,-0.0259,-0.1426,1.0137,0.3052,0.2441,-0.1831,1,466,0,20
33432583,329,-0.0269,-0.1416,1.0127,0.4883,0.1831,-0.2441,1,467,0,20
33438586,330,-0.0273,-0.1392,1.0142,0.2441,0.0610,-0.1831,1,466,0,20
33439930,331,-0.0273,-0.1392,1.0142,0.2441,0.0610,-0.1831,1,482,0,20
33450579,332,-0.0264,-0.1426,1.0166,-0.6104,0.5493,-0.5493,1,466,0,21
33456592,333,-0.0278,-0.1426,1.0137,0.5493,0.1831,-0.0610,1,466,0,21
33462604,334,-0.0283,-0.1426,1.0132,0.2441,0.3662,-0.1221,1,466,0,21
33469570,335,-0.0288,-0.1421,1.0137,0.5493,0.3052,-0.1831,1,466,0,21
33475604,336,-0.0288,-0.1421,1.0146,0.1831,0.3052,-0.1221,1,466,0,22
33481585,337,-0.0278,-0.1406,1.0166,0.4883,0.2441,0.0000,1,466,0,22
33484578,338,-0.0278,-0.1406,1.0166,0.4883,0.2441,0.0000,1,466,0,22
33489583,339,-0.0273,-0.1416,1.0156,0.3052,0.2441,-0.1221,1,466,0,22
33494580,340,-0.0264,-0.1411,1.0151,0.3662,0.2441,-0.1831,1,467,0,22
33499581,341,-0.0264,-0.1401,1.0142,0.0610,0.3052,-0.1221,1,466,0,22
33505603,342,-0.0269,-0.1416,1.0146,0.3052,0.2441,-0.0610,1,466,0,22
33512569,343,-0.0273,-0.1416,1.0146,0.1221,0.3052,-0.1831,1,466,0,22
33517961,344,-0.0269,-0.1426,1.0146,0.2441,0.3052,-0.2441,1,471,0,22
33521332,345,-0.0273,-0.1431,1.0146,0.1221,0.3052,-0.4272,1,495,0,22
33524583,346,-0.0273,-0.1431,1.0146,0.1221,0.3052,-0.4272,1,466,0,22
33529584,347,-0.0273,-0.1426,1.0151,-0.1221,0.3052,-0.3052,1,466,0,22
33534581,348,-0.0278,-0.1421,1.0142,0.1221,0.0610,-0.3052,1,468,0,22
33540575,349,-0.0293,-0.1416,1.0146,0.1831,0.2441,-0.4272,1,467,0,22
33546655,350,-0.0283,-0.1411,1.0142,0.3052,0.3052,-0.3052,1,467,0,22
33552599,351,-0.0264,-0.1411,1.0127,0.2441,0.1831,-0.3052,1,466,0,22
33559567,352,-0.0264,-0.1411,1.0127,-0.1831,0.3662,-0.3662,1,466,0,22
33565601,353,-0.0283,-0.1416,1.0151,0.4272,0.2441,-0.0610,1,466,0,23
33572565,354,-0.0278,-0.1411,1.0166,0.0610,0.3662,-0.1831,1,466,0,23
33578600,355,-0.0278,-0.1411,1.0161,0.3052,0.2441,-0.2441,1,466,0,23
33579949,356,-0.0264,-0.1411,1.0151,0.1831,0.3662,-0.1831,1,466,0,23
33586308,357,-0.0259,-0.1416,1.0156,-0.0610,0.4272,-0.2441,1,515,0,23
33589579,358,-0.0264,-0.1416,1.0156,0.1831,0.5493,-0.3662,1,466,0,23
33594581,359,-0.0273,-0.1406,1.0146,0.1221,0.4272,-0.1221,1,466,0,23
33600602,360,-0.0278,-0.1411,1.0137,0.0610,0.4272,-0.1831,1,466,0,23
33606585,361,-0.0283,-0.1416,1.0117,0.0000,0.4272,-0.1221,1,466,0,23
33609577,362,-0.0293,-0.1421,1.0107,-0.0610,0.3662,-0.1221,1,466,0,23
33614579,363,-0.0303,-0.1426,1.0112,-0.1221,0.3052,-0.1221,1,466,0,23
33619584,364,-0.0303,-0.1431,1.0117,0.0610,0.3662,-0.1831,1,466,0,23
33624580,365,-0.0293,-0.1436,1.0122,0.0610,0.4272,-0.1221,1,466,0,23
33630601,366,-0.0283,-0.1436,1.0142,0.0610,0.1831,-0.1221,1,466,0,23
33634576,367,-0.0278,-0.1436,1.0156,0.3052,0.1831,-0.1831,1,466,0,23
33640580,368,-0.0273,-0.1431,1.0142,0.3662,0.1831,-0.1831,1,466,0,23
33647579,369,-0.0269,-0.1426,1.0137,0.3052,0.3662,-0.1831,1,466,0,23
33653581,370,-0.0259,-0.1426,1.0137,0.4883,0.1221,-0.1831,1,489,0,23
33656062,371,-0.0259,-0.1426,1.0137,0.4883,0.1221,-0.1831,1,509,0,23
33662562,372,-0.0278,-0.1426,1.0137,0.5493,0.1831,-0.2441,1,466,0,23
33665940,373,-0.0293,-0.1426,1.0146,0.5493,0.1831,-0.1831,1,472,0,23
33669583,374,-0.0288,-0.1421,1.0151,0.4883,0.1831,-0.2441,1,466,0,23
33675583,375,-0.0283,-0.1426,1.0146,0.3662,0.3052,-0.3052,1,467,0,23
33679580,376,-0.0293,-0.1426,1.0137,0.4272,0.1221,-0.1831,1,466,0,23
33684583,377,-0.0303,-0.1436,1.0142,0.5493,0.2441,-0.3052,1,467,0,23
33689584,378,-0.0308,-0.1431,1.0151,0.4272,-0.0610,-0.3052,1,466,0,23
33695575,379,-0.0288,-0.1411,1.0156,0.4883,-0.0610,-0.1831,1,466,0,23
33701585,380,-0.0254,-0.1392,1.0161,0.4883,0.1221,-0.1831,1,466,0,23
33704581,381,-0.0254,-0.1387,1.0161,0.3662,0.1221,-0.1831,1,466,0,23
33709578,382,-0.0264,-0.1392,1.0156,0.1831,0.1221,-0.1831,1,466,0,23
33714582,383,-0.0269,-0.1401,1.0156,0.1831,0.1221,-0.1831,1,466,0,23
33720596,384,-0.0283,-0.1411,1.0151,0.3052,0.1831,-0.2441,1,466,0,23
33727565,385,-0.0288,-0.1406,1.0137,0.2441,0.2441,-0.1831,1,466,0,23
33732955,386,-0.0288,-0.1396,1.0137,0.1831,0.1831,-0.1831,1,476,0,23
33735215,387,-0.0288,-0.1396,1.0137,0.1831,0.1831,-0.1831,1,488,0,23
33740585,388,-0.0283,-0.1401,1.0142,0.1831,0.1831,-0.1221,1,466,0,23
33744979,389,-0.0273,-0.1416,1.0142,0.3052,0.2441,-0.1221,1,474,0,23
33750379,390,-0.0264,-0.1426,1.0142,0.3662,0.1221,-0.3052,1,469,0,23
33755600,391,-0.0273,-0.1411,1.0151,0.3662,0.1221,-0.2441,1,466,0,23
33761584,392,-0.0283,-0.1396,1.0137,0.3662,0.2441,-0.2441,1,466,0,23
33766982,393,-0.0288,-0.1396,1.0137,0.3662,0.1221,-0.3662,1,470,0,23
33769578,394,-0.0288,-0.1396,1.0137,0.3662,0.1221,-0.3662,1,466,0,23
33774802,395,-0.0293,-0.1401,1.0137,0.3052,0.1221,-0.3052,1,477,0,23
33779577,396,-0.0288,-0.1406,1.0142,0.3052,0.1221,-0.2441,1,466,0,23
33784577,397,-0.0283,-0.1406,1.0156,0.3662,0.1831,-0.2441,1,466,0,23
33789577,398,-0.0283,-0.1401,1.0166,0.3052,0.1221,-0.1831,1,466,0,23
33796564,399,-0.0283,-0.1416,1.0142,0.2441,0.2441,-0.2441,1,466,0,23
33801955,400,-0.0283,-0.1416,1.0142,0.2441,0.0610,-0.2441,1,477,0,23
33804584,401,-0.0283,-0.1416,1.0142,0.2441,0.0610,-0.2441,1,466,0,23
33810593,402,-0.0278,-0.1411,1.0151,0.3052,0.0610,-0.1221,1,466,0,23
33816642,403,-0.0264,-0.1392,1.0137,0.1221,0.1221,-0.1831,1,466,0,23
33822587,404,-0.0269,-0.1411,1.0146,0.3052,0.0610,-0.1221,1,466,0,23
33824936,405,-0.0269,-0.1411,1.0146,0.3052,0.0610,-0.1221,1,473,0,23
33830323,406,-0.0278,-0.1416,1.0151,0.3052,0.1831,-0.1831,1,489,0,23
33835586,407,-0.0283,-0.1401,1.0151,0.2441,0.2441,-0.1831,1,466,0,23
33842553,408,-0.0278,-0.1396,1.0151,0.1221,0.1831,-0.2441,1,467,0,23
33845930,409,-0.0264,-0.1392,1.0156,0.1221,0.2441,-0.3052,1,480,0,23
33849581,410,-0.0264,-0.1392,1.0156,0.1221,0.2441,-0.3052,1,466,0,23
33856560,411,-0.0273,-0.1401,1.0166,0.0610,0.3052,-0.1831,1,466,0,23
33862595,412,-0.0288,-0.1401,1.0151,0.0610,0.3052,-0.1831,1,466,0,23
33869560,413,-0.0303,-0.1416,1.0142,0.1221,0.2441,-0.1221,1,466,0,23
33870903,414,-0.0293,-0.1431,1.0137,0.1831,0.2441,-0.2441,1,482,0,23
33880310,415,-0.0269,-0.1396,1.0146,0.1221,0.1221,-0.2441,1,478,0,24
33884687,416,-0.0269,-0.1382,1.0161,0.0000,0.1831,-0.1831,1,467,0,24
33889579,417,-0.0269,-0.1392,1.0151,0.0000,0.3052,-0.0610,1,466,0,24
33894581,418,-0.0283,-0.1416,1.0117,0.1221,0.3052,-0.1221,1,466,0,24
33899578,419,-0.0283,-0.1431,1.0107,0.1221,0.0000,-0.1221,1,466,0,24
33905595,420,-0.0283,-0.1421,1.0122,0.2441,0.1831,-0.1831,1,466,0,24
33911574,421,-0.0283,-0.1411,1.0137,0.1221,0.1221,-0.1221,1,466,0,24
33918572,422,-0.0278,-0.1406,1.0146,0.2441,0.1221,-0.2441,1,466,0,24
33921948,423,-0.0269,-0.1406,1.0151,0.1831,0.1221,-0.2441,1,482,0,24
33924577,424,-0.0254,-0.1411,1.0156,0.2441,0.1831,0.0000,1,466,0,24
33929579,425,-0.0259,-0.1401,1.0161,0.2441,0.1831,-0.1221,1,467,0,24
33934577,426,-0.0269,-0.1401,1.0161,0.2441,0.2441,-0.1831,1,466,0,24
33941553,427,-0.0273,-0.1411,1.0161,0.1831,0.2441,-0.1221,1,466,0,24
33944930,428,-0.0288,-0.1416,1.0156,0.1221,0.2441,-0.1831,1,480,0,24
33950575,429,-0.0288,-0.1416,1.0161,0.1831,0.3052,-0.1221,1,466,0,24
33956588,430,-0.0278,-0.1401,1.0161,0.1831,0.3052,-0.1221,1,466,0,24
33959579,431,-0.0273,-0.1396,1.0146,0.0000,0.3052,-0.1221,1,466,0,24
33964888,432,-0.0283,-0.1406,1.0132,0.0000,0.3662,-0.1221,1,476,0,24
33969577,433,-0.0293,-0.1416,1.0132,0.1221,0.3052,-0.1221,1,466,0,24
33975599,434,-0.0288,-0.1411,1.0142,0.2441,0.1831,-0.1831,1,467,0,24
33981582,435,-0.0288,-0.1401,1.0156,0.2441,0.2441,-0.2441,1,466,0,24
33986981,436,-0.0293,-0.1401,1.0156,0.0610,0.3052,-0.3052,1,470,0,24
33989577,437,-0.0293,-0.1416,1.0146,0.1831,0.1831,-0.0610,1,466,0,24
33996574,438,-0.0283,-0.1426,1.0142,0.2441,0.3052,-0.0610,1,467,0,24
34003562,439,-0.0283,-0.1411,1.0137,0.1831,0.3662,-0.1831,1,466,0,24
34008953,440,-0.0288,-0.1396,1.0142,0.1831,0.2441,-0.1221,1,477,0,24
34013335,441,-0.0278,-0.1382,1.0166,0.2441,0.3052,-0.0610,1,524,0,24
34019576,442,-0.0264,-0.1382,1.0176,0.1831,0.2441,-0.1831,1,467,0,25
34025587,443,-0.0273,-0.1396,1.0156,0.1831,0.2441,-0.1831,1,466,0,25
34032554,444,-0.0298,-0.1416,1.0132,0.2441,0.1831,-0.0610,1,466,0,25
34037946,445,-0.0293,-0.1421,1.0146,0.2441,0.2441,-0.0610,1,482,0,25
34044580,446,-0.0288,-0.1421,1.0156,0.1831,0.1831,-0.1221,1,466,0,26
34050582,447,-0.0293,-0.1411,1.0151,0.2441,0.2441,-0.1221,1,467,0,26
34057578,448,-0.0288,-0.1406,1.0142,0.3052,0.0610,-0.1221,1,466,0,26
34059599,449,-0.0288,-0.1406,1.0142,0.3052,0.0610,-0.1221,1,467,0,26
34065597,450,-0.0283,-0.1401,1.0137,0.3052,0.0610,-0.0610,1,466,0,26
34072563,451,-0.0273,-0.1411,1.0156,0.2441,0.3662,-0.1831,1,466,0,26
34076006,452,-0.0273,-0.1411,1.0156,0.2441,0.3662,-0.1831,1,468,0,26
34080368,453,-0.0269,-0.1416,1.0156,0.4272,0.2441,-0.1221,1,468,0,26
34084578,454,-0.0278,-0.1396,1.0137,0.3662,0.1831,-0.0610,1,466,0,26
34091575,455,-0.0283,-0.1416,1.0122,0.3662,-0.0610,-0.1221,1,466,0,26
34095958,456,-0.0283,-0.1416,1.0122,0.3662,-0.0610,-0.1221,1,472,0,26
34101362,457,-0.0298,-0.1426,1.0137,0.4272,-0.0610,-0.1831,1,468,0,26
34104581,458,-0.0298,-0.1426,1.0137,0.4272,-0.0610,-0.1831,1,466,0,26
34109966,459,-0.0278,-0.1411,1.0142,0.6714,0.0610,-0.2441,1,466,0,26
34115583,460,-0.0269,-0.1392,1.0146,0.5493,-0.0610,-0.1221,1,466,0,26
34121662,461,-0.0269,-0.1382,1.0156,0.4272,-0.1221,-0.3052,1,466,0,26
34127576,462,-0.0278,-0.1382,1.0146,0.2441,0.0610,-0.1831,1,466,0,26
34134585,463,-0.0283,-0.1377,1.0142,0.3052,0.1831,-0.1221,1,466,0,27
34140577,464,-0.0283,-0.1392,1.0146,0.3052,-0.0610,-0.2441,1,466,0,27
34144582,465,-0.0283,-0.1392,1.0146,0.3052,-0.0610,-0.2441,1,466,0,27
34150588,466,-0.0283,-0.1382,1.0142,0.3662,-0.1221,-0.1221,1,466,0,27
34157555,467,-0.0273,-0.1377,1.0151,0.3052,-0.0610,-0.1221,1,466,0,27
34163586,468,-0.0273,-0.1377,1.0156,0.3052,-0.0610,-0.2441,1,466,0,27
34164928,469,-0.0273,-0.1377,1.0156,0.3052,-0.0610,-0.2441,1,479,0,27
34169584,470,-0.0273,-0.1382,1.0156,0.2441,-0.0610,-0.2441,1,466,0,27
34177959,471,-0.0278,-0.1392,1.0156,0.2441,-0.0610,-0.3052,1,470,0,27
34182339,472,-0.0273,-0.1387,1.0166,0.1221,0.0000,-0.2441,1,491,0,27
34187576,473,-0.0269,-0.1387,1.0181,0.0610,-0.0610,-0.2441,1,466,0,27
34189923,474,-0.0259,-0.1382,1.0200,0.2441,0.0610,-0.2441,1,484,0,27
34194577,475,-0.0259,-0.1382,1.0200,0.2441,0.0610,-0.2441,1,466,0,27
34199872,476,-0.0259,-0.1362,1.0181,0.0610,0.0610,-0.2441,1,467,0,27
34205578,477,-0.0264,-0.1362,1.0166,-0.1221,0.1831,-0.1221,1,466,0,27
34212577,478,-0.0273,-0.1387,1.0166,-0.1831,0.0610,-0.3052,1,466,0,27
34218581,479,-0.0269,-0.1396,1.0171,-0.1831,0.1831,-0.1221,1,466,0,27
34219923,480,-0.0254,-0.1392,1.0166,-0.0610,0.1221,-0.1221,1,483,0,27
34224577,481,-0.0244,-0.1387,1.0171,-0.1831,0.1831,-0.1221,1,466,0,27
34231916,482,-0.0249,-0.1377,1.0176,-0.3052,0.3052,-0.2441,1,468,0,27
34237194,483,-0.0254,-0.1387,1.0166,-0.3662,0.1831,-0.1831,1,496,0,27
34239578,484,-0.0259,-0.1387,1.0142,-0.2441,0.3052,-0.1221,1,466,0,27
34246571,485,-0.0269,-0.1382,1.0127,-0.3052,0.3662,-0.1831,1,466,0,27
34253563,486,-0.0269,-0.1401,1.0117,-0.4272,0.3662,-0.2441,1,489,0,27
34259227,487,-0.0283,-0.1382,1.0137,-0.2441,0.3662,-0.1221,1,505,0,27
34261580,488,-0.0283,-0.1382,1.0137,-0.2441,0.3662,-0.1221,1,466,0,27
34268577,489,-0.0288,-0.1411,1.0142,-0.1221,0.5493,-0.2441,1,466,0,27
34274578,490,-0.0303,-0.1406,1.0132,-0.0610,0.1831,-0.2441,1,467,0,28
34281577,491,-0.0293,-0.1406,1.0137,-0.0610,0.1221,-0.3052,1,466,0,28
34288565,492,-0.0273,-0.1387,1.0176,-0.1221,0.1831,-0.3052,1,466,0,28
34289904,493,-0.0273,-0.1387,1.0176,-0.1221,0.1831,-0.3052,1,480,0,28
34300579,494,-0.0273,-0.1382,1.0166,0.0000,0.1831,-0.2441,1,467,0,29
34304583,495,-0.0283,-0.1367,1.0137,0.0000,0.1831,-0.3662,1,466,0,29
34311574,496,-0.0273,-0.1396,1.0117,0.1221,0.1221,-0.3662,1,466,0,29
34315961,497,-0.0264,-0.1406,1.0127,0.0000,0.1221,-0.2441,1,466,0,29
34319583,498,-0.0278,-0.1396,1.0146,-0.1221,0.4272,-0.3662,1,466,0,29
34324583,499,-0.0293,-0.1406,1.0142,-0.1831,0.2441,-0.3662,1,466,0,29
34329582,500,-0.0283,-0.1416,1.0137,-0.0610,0.1221,-0.3662,1,467,0,29
34335583,501,-0.0273,-0.1406,1.0151,-0.2441,0.3662,-0.3052,1,466,0,29
34341596,502,-0.0288,-0.1401,1.0156,-0.0610,0.2441,-0.3662,1,466,0,29
34347577,503,-0.0269,-0.1406,1.0161,0.0000,0.1221,-0.2441,1,466,0,29
34350871,504,-0.0269,-0.1406,1.0161,0.0000,0.1221,-0.2441,1,466,0,29
34354580,505,-0.0264,-0.1392,1.0151,0.0000,0.2441,-0.3052,1,466,0,29
34359580,506,-0.0273,-0.1392,1.0151,-0.1831,0.2441,-0.3662,1,466,0,29
34364583,507,-0.0278,-0.1401,1.0151,-0.1221,0.3052,-0.3662,1,466,0,29
34371571,508,-0.0278,-0.1382,1.0166,0.0000,0.2441,-0.3662,1,466,0,29
34377575,509,-0.0273,-0.1411,1.0161,-0.1221,0.3662,-0.2441,1,466,0,29
34384573,510,-0.0264,-0.1421,1.0142,-0.1831,0.4883,-0.3052,1,466,0,29
34390577,511,-0.0264,-0.1396,1.0146,-0.1221,0.3662,-0.1831,1,466,0,30
34397573,512,-0.0278,-0.1416,1.0151,-0.0610,0.4272,-0.1831,1,466,0,30
34403577,513,-0.0273,-0.1411,1.0151,-0.1221,0.3662,-0.1831,1,466,0,30
34409588,514,-0.0273,-0.1411,1.0156,0.0000,0.2441,-0.2441,1,466,0,31
34416553,515,-0.0288,-0.1387,1.0117,-0.4272,0.1221,-0.1221,1,466,0,31
34422587,516,-0.0283,-0.1377,1.0137,-0.4883,0.2441,-0.1831,1,466,0,31
34428570,517,-0.0288,-0.1392,1.0142,-0.3662,0.3662,-0.3662,1,466,0,31
34433970,518,-0.0283,-0.1406,1.0142,-0.1221,0.0000,-0.1831,1,525,0,31
34439585,519,-0.0273,-0.1406,1.0151,0.0000,0.0610,-0.2441,1,466,0,32
34445567,520,-0.0264,-0.1406,1.0156,-0.1221,0.0000,-0.3052,1,466,0,32
34449808,521,-0.0273,-0.1421,1.0151,-0.1831,0.1221,-0.2441,1,483,0,32
34454578,522,-0.0273,-0.1431,1.0151,-0.0610,0.1221,-0.1831,1,466,0,32
34459583,523,-0.0269,-0.1426,1.0156,0.0000,0.0610,-0.2441,1,466,0,32
34464578,524,-0.0273,-0.1421,1.0151,-0.0610,-0.0610,-0.1831,1,466,0,32
34471546,525,-0.0283,-0.1416,1.0132,0.0000,0.3662,-0.3052,1,467,0,32
34474862,526,-0.0283,-0.1416,1.0132,0.0000,0.3662,-0.3052,1,474,0,32
34480638,527,-0.0283,-0.1401,1.0142,0.0610,0.2441,-0.3052,1,466,0,32
34486584,528,-0.0288,-0.1392,1.0146,0.1221,0.3052,-0.2441,1,466,0,32
34493549,529,-0.0273,-0.1387,1.0151,0.1831,0.2441,-0.1831,1,481,0,32
34498941,530,-0.0254,-0.1396,1.0151,0.0610,0.2441,-0.2441,1,466,0,32
34502205,531,-0.0249,-0.1411,1.0151,0.0000,0.4272,-0.2441,1,491,0,32
34505532,532,-0.0259,-0.1401,1.0146,-0.0610,0.3052,-0.2441,1,466,0,32
34512561,533,-0.0269,-0.1392,1.0151,-0.0610,0.1831,-0.1831,1,466,0,32
34517953,534,-0.0273,-0.1392,1.0156,-0.0610,0.1221,-0.1221,1,474,0,32
34522224,535,-0.0269,-0.1392,1.0151,-0.0610,0.3052,-0.0610,1,492,0,32
34524577,536,-0.0264,-0.1401,1.0137,-0.1221,0.3662,-0.1831,1,467,0,32
34529583,537,-0.0273,-0.1406,1.0127,-0.0610,0.3052,-0.1221,1,466,0,32
34534583,538,-0.0288,-0.1401,1.0127,0.0610,0.3052,-0.0610,1,466,0,32
34539580,539,-0.0288,-0.1396,1.0146,0.0000,0.3662,-0.1831,1,466,0,32
34544839,540,-0.0283,-0.1401,1.0161,-0.0610,0.2441,-0.1831,1,483,0,32
34550577,541,-0.0264,-0.1401,1.0166,-0.0610,0.3052,-0.1221,1,466,0,32
34557576,542,-0.0249,-0.1396,1.0166,0.0000,0.2441,-0.1831,1,466,0,32
34563577,543,-0.0259,-0.1406,1.0156,-0.1221,0.3662,-0.1831,1,466,0,32
34564921,544,-0.0278,-0.1421,1.0146,-0.1831,0.4272,-0.1831,1,484,0,32
34575264,545,-0.0278,-0.1411,1.0132,0.0610,0.1831,-0.0610,1,495,0,33
34579577,546,-0.0264,-0.1396,1.0146,0.0000,0.2441,-0.1221,1,466,0,33
34584580,547,-0.0264,-0.1392,1.0156,-0.0610,0.3052,-0.1221,1,466,0,33
34589578,548,-0.0278,-0.1401,1.0146,0.0000,0.3662,-0.0610,1,466,0,33
34594578,549,-0.0278,-0.1396,1.0142,-0.0610,0.2441,0.0000,1,466,0,33
34599831,550,-0.0288,-0.1392,1.0142,-0.0610,0.2441,-0.2441,1,483,0,33
34604585,551,-0.0293,-0.1387,1.0146,0.0000,0.1831,-0.1831,1,467,0,33
34609582,552,-0.0283,-0.1396,1.0161,0.0000,0.3662,-0.1831,1,466,0,33
34615579,553,-0.0269,-0.1396,1.0171,0.0000,0.2441,-0.2441,1,466,0,33
34619578,554,-0.0264,-0.1392,1.0176,0.0000,0.4272,-0.1831,1,466,0,33
34624580,555,-0.0264,-0.1387,1.0161,-0.1221,0.4272,-0.1221,1,467,0,33
34629584,556,-0.0278,-0.1392,1.0151,-0.0610,0.2441,-0.1831,1,466,0,33
34635635,557,-0.0283,-0.1406,1.0142,0.0000,0.2441,-0.1221,1,466,0,33
34639582,558,-0.0283,-0.1411,1.0146,0.0610,0.3662,-0.2441,1,466,0,33
34644581,559,-0.0278,-0.1411,1.0151,-0.0610,0.2441,-0.1831,1,466,0,33
34650584,560,-0.0273,-0.1411,1.0137,0.0000,0.3052,-0.1221,1,466,0,33
34654915,561,-0.0283,-0.1411,1.0132,0.0000,0.2441,-0.1831,1,467,0,33
34659582,562,-0.0293,-0.1401,1.0142,0.0000,0.1221,-0.1831,1,466,0,33
34665567,563,-0.0288,-0.1401,1.0151,0.1221,0.3052,-0.2441,1,466,0,33
34672563,564,-0.0273,-0.1411,1.0146,-0.0610,0.3662,-0.1831,1,466,0,33
34676010,565,-0.0273,-0.1411,1.0146,-0.0610,0.3662,-0.1831,1,481,0,33
34679581,566,-0.0278,-0.1411,1.0142,0.0610,0.3662,-0.1831,1,466,0,33
34685586,567,-0.0278,-0.1411,1.0151,0.0000,0.3662,-0.2441,1,466,0,33
34692551,568,-0.0264,-0.1396,1.0146,-0.1221,0.5493,-0.1831,1,467,0,33
34698587,569,-0.0264,-0.1392,1.0146,0.1221,0.3662,-0.1831,1,467,0,33
34704567,570,-0.0264,-0.1392,1.0151,0.0610,0.4272,-0.1831,1,467,0,33
34705912,571,-0.0264,-0.1392,1.0151,0.0610,0.4272,-0.1831,1,468,0,33
34709578,572,-0.0273,-0.1401,1.0156,0.0000,0.4883,0.0000,1,466,0,33
34715585,573,-0.0278,-0.1411,1.0146,-0.0610,0.4883,0.0610,1,466,0,33
34721566,574,-0.0273,-0.1396,1.0127,0.0610,0.3052,-0.2441,1,466,0,33
34724576,575,-0.0273,-0.1396,1.0127,0.0610,0.3052,-0.2441,1,466,0,33
34729578,576,-0.0264,-0.1387,1.0137,-0.0610,0.2441,-0.1831,1,466,0,33
34734582,577,-0.0264,-0.1387,1.0142,0.0610,0.3052,-0.1221,1,466,0,33
34740580,578,-0.0264,-0.1392,1.0137,0.0610,0.3662,-0.0610,1,466,0,33
34747544,579,-0.0278,-0.1396,1.0146,0.0000,0.3662,-0.1221,1,466,0,33
34754563,580,-0.0283,-0.1401,1.0156,0.0610,0.3052,-0.0610,1,466,0,33
34760569,581,-0.0278,-0.1392,1.0156,0.0610,0.3662,-0.1221,1,466,0,34
34767566,582,-0.0264,-0.1382,1.0146,0.0610,0.3052,-0.0610,1,467,0,34
34769586,583,-0.0264,-0.1382,1.0146,0.0610,0.3052,-0.0610,1,466,0,34
34776568,584,-0.0298,-0.1416,1.0127,0.0610,0.3052,-0.1221,1,466,0,34
34782570,585,-0.0298,-0.1416,1.0122,0.1221,0.2441,-0.1831,1,467,0,34
34789567,586,-0.0283,-0.1406,1.0142,0.2441,0.2441,-0.1831,1,466,0,34
34793952,587,-0.0254,-0.1406,1.0161,0.1221,0.3052,-0.1221,1,521,0,34
34798254,588,-0.0244,-0.1411,1.0176,0.1831,0.2441,-0.1221,1,504,0,34
34800577,589,-0.0259,-0.1406,1.0181,0.1831,0.1831,-0.2441,1,466,0,34
34807571,590,-0.0269,-0.1401,1.0171,0.1221,0.3052,-0.1831,1,466,0,34
34813643,591,-0.0273,-0.1426,1.0156,0.1831,0.3052,-0.2441,1,466,0,34
34819588,592,-0.0264,-0.1421,1.0156,0.1221,0.1831,-0.1831,1,466,0,35
34825636,593,-0.0298,-0.1401,1.0156,-0.0610,0.1221,-0.3052,1,466,0,35
34831582,594,-0.0308,-0.1406,1.0137,0.0000,0.2441,-0.1831,1,466,0,35
34834906,595,-0.0308,-0.1387,1.0127,0.0000,0.1831,-0.2441,1,475,0,35
34839576,596,-0.0308,-0.1387,1.0127,0.0000,0.1831,-0.2441,1,466,0,35
34844884,597,-0.0288,-0.1382,1.0122,-0.0610,0.3052,-0.1221,1,475,0,35
34849579,598,-0.0278,-0.1392,1.0132,0.0610,-0.0610,-0.1221,1,466,0,35
34855569,599,-0.0269,-0.1387,1.0146,0.0000,0.1221,-0.0610,1,466,0,35
34859577,600,-0.0269,-0.1396,1.0146,-0.2441,0.2441,-0.1221,1,466,0,35
34865577,601,-0.0259,-0.1411,1.0146,-0.0610,0.2441,-0.1221,1,467,0,35
34872545,602,-0.0269,-0.1387,1.0151,0.1221,0.2441,-0.1831,1,466,0,35
34877936,603,-0.0288,-0.1387,1.0142,0.0000,0.2441,-0.2441,1,468,0,35
34884568,604,-0.0254,-0.1387,1.0176,0.0000,0.4883,-0.1831,1,467,0,35
34886791,605,-0.0254,-0.1387,1.0176,0.0000,0.4883,-0.1831,1,466,0,35
34891119,606,-0.0254,-0.1392,1.0151,-0.1831,0.3052,-0.2441,1,493,0,35
34896582,607,-0.0303,-0.1416,1.0093,0.0610,0.3052,-0.1831,1,466,0,35
34899939,608,-0.0317,-0.1416,1.0083,0.1831,-0.0610,-0.1221,1,466,0,35
34905326,609,-0.0293,-0.1411,1.0112,0.1221,0.0610,-0.1831,1,490,0,35
34910592,610,-0.0264,-0.1401,1.0146,0.1221,0.0610,-0.3052,1,466,0,35
34916640,611,-0.0254,-0.1387,1.0161,0.2441,0.0610,-0.3052,1,466,0,35
34922583,612,-0.0273,-0.1382,1.0161,0.0610,-0.0610,-0.1831,1,466,0,35
34928565,613,-0.0283,-0.1411,1.0146,0.0000,0.2441,-0.1221,1,466,0,35
34930885,614,-0.0283,-0.1411,1.0146,0.0000,0.2441,-0.1221,1,473,0,35
34937545,615,-0.0269,-0.1406,1.0137,0.1221,0.1831,-0.1221,1,466,0,35
34944567,616,-0.0269,-0.1426,1.0176,0.0000,0.2441,-0.2441,1,467,0,35
34946882,617,-0.0269,-0.1426,1.0176,0.0000,0.2441,-0.2441,1,477,0,35
34951117,618,-0.0283,-0.1431,1.0190,0.0610,0.2441,-0.2441,1,493,0,35
34956396,619,-0.0293,-0.1416,1.0190,0.3052,0.1221,-0.0610,1,496,0,35
34959584,620,-0.0298,-0.1382,1.0176,0.1221,0.1221,-0.1221,1,466,0,35
34965924,621,-0.0298,-0.1377,1.0161,0.1831,0.2441,-0.1221,1,479,0,35
34969583,622,-0.0298,-0.1401,1.0146,0.1831,0.1831,-0.2441,1,466,0,35
34975595,623,-0.0288,-0.1421,1.0132,0.1221,0.1221,-0.1831,1,466,0,35
34980992,624,-0.0273,-0.1396,1.0137,0.2441,0.1831,-0.1221,1,477,0,35
34984580,625,-0.0273,-0.1377,1.0151,0.0610,0.1831,-0.0610,1,466,0,35
34990576,626,-0.0288,-0.1382,1.0151,0.0610,0.1221,-0.1221,1,466,0,35
34996655,627,-0.0303,-0.1406,1.0146,0.0000,0.1221,-0.1831,1,466,0,35
34999974,628,-0.0293,-0.1406,1.0151,0.0610,0.1831,-0.1221,1,471,0,35
35004584,629,-0.0273,-0.1392,1.0171,0.0000,0.3052,-0.1831,1,466,0,35
35010567,630,-0.0269,-0.1416,1.0186,0.0610,0.1831,-0.2441,1,466,0,35
35016579,631,-0.0278,-0.1431,1.0166,0.1831,0.2441,-0.1221,1,466,0,35
35023543,632,-0.0298,-0.1431,1.0117,0.0610,0.3052,-0.1831,1,466,0,35
35029577,633,-0.0293,-0.1450,1.0127,0.1221,0.2441,-0.1831,1,467,0,36
35034653,634,-0.0278,-0.1421,1.0151,0.1831,0.3662,-0.2441,1,528,0,36
35040566,635,-0.0269,-0.1406,1.0146,0.2441,0.3052,-0.3052,1,466,0,36
35046643,636,-0.0278,-0.1367,1.0151,0.2441,0.3662,-0.2441,1,466,0,36
35049579,637,-0.0278,-0.1367,1.0151,0.2441,0.3662,-0.2441,1,466,0,36
35054581,638,-0.0278,-0.1372,1.0151,0.1221,0.1221,-0.3052,1,466,0,36
35059582,639,-0.0264,-0.1396,1.0146,0.1221,0.0610,-0.1831,1,466,0,36
35065588,640,-0.0259,-0.1382,1.0156,0.1831,0.2441,-0.2441,1,466,0,36
35072555,641,-0.0269,-0.1392,1.0146,0.0610,0.3052,-0.1831,1,467,0,36
35078590,642,-0.0288,-0.1392,1.0156,0.0000,0.1831,-0.1221,1,467,0,36
35083927,643,-0.0293,-0.1401,1.0166,0.0610,0.3662,-0.2441,1,475,0,36
35086279,644,-0.0293,-0.1392,1.0156,0.0610,0.3052,-0.1221,1,477,0,36
35089584,645,-0.0293,-0.1392,1.0156,0.0610,0.3052,-0.1221,1,466,0,36
35095654,646,-0.0283,-0.1396,1.0142,0.0000,0.2441,-0.1831,1,466,0,36
35102555,647,-0.0288,-0.1406,1.0156,0.0000,0.2441,-0.1221,1,466,0,36
35108589,648,-0.0273,-0.1401,1.0161,0.0610,0.3052,-0.0610,1,466,0,36
35109936,649,-0.0273,-0.1401,1.0161,0.0610,0.3052,-0.0610,1,467,0,36
35116275,650,-0.0273,-0.1401,1.0142,-0.1221,0.3052,-0.1831,1,519,0,36
35119585,651,-0.0273,-0.1401,1.0142,-0.1221,0.3052,-0.1831,1,466,0,36
35125587,652,-0.0273,-0.1416,1.0146,0.0000,0.3662,-0.2441,1,466,0,36
35129583,653,-0.0273,-0.1416,1.0146,0.0000,0.3662,-0.2441,1,466,0,36
35134584,654,-0.0278,-0.1411,1.0137,0.0000,0.3662,-0.1221,1,466,0,36
35139835,655,-0.0288,-0.1416,1.0142,0.0000,0.4883,-0.0610,1,483,0,36
35145085,656,-0.0293,-0.1421,1.0151,0.0610,0.4272,-0.1221,1,495,0,36
35150579,657,-0.0288,-0.1421,1.0146,0.1221,0.1831,-0.1221,1,466,0,36
35154579,658,-0.0288,-0.1421,1.0146,0.1221,0.1831,-0.1221,1,466,0,36
35160590,659,-0.0293,-0.1392,1.0151,0.0610,0.3662,-0.1221,1,466,0,36
35167554,660,-0.0283,-0.1382,1.0161,0.1831,0.2441,0.0000,1,466,0,36
35173588,661,-0.0273,-0.1367,1.0176,0.2441,0.3662,-0.1221,1,467,0,36
35174933,662,-0.0249,-0.1362,1.0186,0.0000,0.4883,-0.1221,1,468,0,36
35179579,663,-0.0259,-0.1387,1.0166,-0.1221,0.6714,0.0000,1,466,0,36
35185888,664,-0.0273,-0.1401,1.0146,-0.1221,0.5493,0.0000,1,468,0,36
35189577,665,-0.0273,-0.1401,1.0146,-0.2441,0.6714,-0.1221,1,467,0,36
35194581,666,-0.0264,-0.1392,1.0156,-0.1221,0.7324,0.0000,1,466,0,36
35200568,667,-0.0264,-0.1372,1.0166,-0.0610,0.8545,-0.1221,1,466,0,36
35207562,668,-0.0278,-0.1367,1.0176,-0.0610,0.9155,-0.1221,1,466,0,36
35214554,669,-0.0278,-0.1396,1.0186,-0.1221,0.8545,-0.1221,1,466,0,36
35218937,670,-0.0278,-0.1387,1.0156,-0.0610,1.0376,-0.0610,1,466,0,36
35224583,671,-0.0293,-0.1392,1.0137,-0.1831,0.9155,-0.0610,1,466,0,37
35231550,672,-0.0293,-0.1401,1.0142,-0.0610,0.9155,-0.1221,1,466,0,37
35234583,673,-0.0283,-0.1392,1.0132,-0.0610,0.9766,-0.1221,1,466,0,37
35240576,674,-0.0283,-0.1382,1.0127,-0.0610,0.9155,-0.1831,1,466,0,37
35247541,675,-0.0283,-0.1382,1.0132,-0.1831,0.7935,0.0000,1,466,0,37
35249850,676,-0.0298,-0.1382,1.0137,-0.1221,0.9155,0.0610,1,477,0,37
35255589,677,-0.0312,-0.1416,1.0112,-0.1221,0.7935,-0.0610,1,466,0,37
35262557,678,-0.0312,-0.1426,1.0107,-0.0610,0.7324,0.0000,1,467,0,37
35267918,679,-0.0312,-0.1396,1.0132,-0.0610,0.6714,-0.1221,1,484,0,37
35271321,680,-0.0303,-0.1406,1.0142,0.0000,0.3662,-0.0610,1,493,0,37
35274582,681,-0.0278,-0.1406,1.0132,0.0610,0.5493,0.0610,1,466,0,37
35280585,682,-0.0278,-0.1392,1.0122,-0.0610,0.6714,0.0000,1,466,0,37
35284584,683,-0.0298,-0.1396,1.0117,-0.1221,0.5493,0.0000,1,466,0,37
35289582,684,-0.0327,-0.1396,1.0112,0.0000,0.6714,-0.1221,1,466,0,37
35294834,685,-0.0322,-0.1392,1.0107,-0.0610,0.5493,-0.1831,1,483,0,37
35299578,686,-0.0288,-0.1387,1.0122,0.0000,0.5493,-0.1831,1,466,0,37
35305576,687,-0.0278,-0.1396,1.0151,-0.0610,0.4883,-0.1831,1,466,0,37
35311591,688,-0.0269,-0.1401,1.0171,-0.1831,0.4883,-0.1221,1,466,0,37
35318556,689,-0.0288,-0.1382,1.0151,-0.2441,0.6104,-0.1221,1,466,0,37
35323946,690,-0.0293,-0.1377,1.0146,-0.1831,0.6104,-0.1831,1,477,0,37
35326314,691,-0.0293,-0.1377,1.0146,-0.1831,0.6104,-0.1831,1,489,0,37
35329576,692,-0.0273,-0.1387,1.0161,-0.2441,0.7935,-0.2441,1,466,0,37
35334581,693,-0.0259,-0.1401,1.0186,-0.2441,0.7935,-0.2441,1,466,0,37
35339877,694,-0.0269,-0.1406,1.0205,-0.3662,0.8545,-0.1221,1,479,0,37
35344576,695,-0.0283,-0.1396,1.0205,-0.3662,0.7935,-0.0610,1,466,0,37
35350592,696,-0.0288,-0.1382,1.0176,-0.3662,0.7324,-0.1221,1,466,0,37
35356572,697,-0.0298,-0.1382,1.0151,-0.3662,0.7935,-0.1221,1,466,0,37
35363568,698,-0.0327,-0.1421,1.0137,-0.3052,0.6104,-0.0610,1,467,0,37
35364909,699,-0.0327,-0.1421,1.0137,-0.3052,0.6104,-0.0610,1,467,0,37
35369583,700,-0.0317,-0.1426,1.0137,-0.4272,0.5493,-0.1831,1,466,0,37
35378968,701,-0.0308,-0.1416,1.0142,-0.3052,0.3662,-0.1221,1,475,0,37
35383241,702,-0.0317,-0.1421,1.0137,-0.3052,0.3052,-0.1221,1,505,0,37
35388583,703,-0.0317,-0.1411,1.0142,-0.3662,0.1831,0.0000,1,466,0,37
35390904,704,-0.0317,-0.1411,1.0142,-0.3662,0.1831,0.0000,1,473,0,37
35396244,705,-0.0298,-0.1396,1.0156,-0.2441,0.3052,-0.1221,1,501,0,37
35399576,706,-0.0298,-0.1396,1.0156,-0.2441,0.3052,-0.1221,1,466,0,37
35405649,707,-0.0293,-0.1392,1.0166,-0.4272,0.4272,-0.1221,1,466,0,37
35411563,708,-0.0298,-0.1377,1.0181,-0.4883,0.3662,0.0000,1,466,0,37
35415805,709,-0.0303,-0.1387,1.0171,-0.5493,0.4883,0.0000,1,483,0,37
35421573,710,-0.0303,-0.1401,1.0151,-0.6104,0.4883,-0.1221,1,466,0,37
35424928,711,-0.0303,-0.1401,1.0151,-0.6104,0.4883,-0.1221,1,471,0,37
35430575,712,-0.0303,-0.1416,1.0122,-0.5493,0.4883,-0.1221,1,466,0,37
35437542,713,-0.0303,-0.1411,1.0127,-0.6104,0.4272,-0.1221,1,466,0,37
35444561,714,-0.0283,-0.1396,1.0137,-0.5493,0.4883,-0.2441,1,466,0,37
35450564,715,-0.0264,-0.1401,1.0161,-0.6104,0.4883,-0.3662,1,466,0,38
35455638,716,-0.0278,-0.1392,1.0186,-0.6714,0.4272,-0.3052,1,466,0,38
35461583,717,-0.0293,-0.1387,1.0200,-0.7935,0.5493,-0.2441,1,466,0,38
35467563,718,-0.0298,-0.1382,1.0186,-0.9155,0.7324,-0.1831,1,466,0,38
35473575,719,-0.0298,-0.1396,1.0161,-0.9766,0.4883,-0.1831,1,467,0,38
35474920,720,-0.0303,-0.1421,1.0146,-0.8545,0.4272,0.0000,1,479,0,38
35484223,721,-0.0312,-0.1440,1.0137,-0.9155,0.4883,0.0000,1,482,0,38
35489565,722,-0.0327,-0.1455,1.0083,-0.7935,0.4272,-0.1221,1,466,0,38
35491829,723,-0.0327,-0.1455,1.0083,-0.7935,0.4272,-0.1221,1,483,0,38
35498546,724,-0.0322,-0.1460,1.0068,-0.6104,0.3662,0.0000,1,466,0,38
35500803,725,-0.0327,-0.1460,1.0078,-0.6714,0.4272,-0.1831,1,483,0,38
35506104,726,-0.0332,-0.1465,1.0103,-0.3662,0.3052,-0.1221,1,494,0,38
35511568,727,-0.0332,-0.1455,1.0103,-0.2441,0.2441,-0.0610,1,466,0,38
35514584,728,-0.0332,-0.1455,1.0093,-0.1831,0.2441,-0.0610,1,466,0,38
35520571,729,-0.0337,-0.1460,1.0093,-0.1221,0.3052,-0.1221,1,466,0,38
35524584,730,-0.0347,-0.1455,1.0093,0.0000,0.1221,-0.0610,1,467,0,38
35529579,731,-0.0361,-0.1445,1.0103,0.1221,-0.1221,-0.1221,1,466,0,38
35536540,732,-0.0352,-0.1450,1.0127,0.1221,-0.1831,-0.3052,1,466,0,38
35543560,733,-0.0322,-0.1450,1.0146,0.2441,-0.1831,-0.2441,1,466,0,38
35547944,734,-0.0303,-0.1426,1.0146,0.1221,-0.3052,-0.1831,1,477,0,38
35551208,735,-0.0293,-0.1411,1.0142,0.0610,-0.1831,-0.1221,1,492,0,38
35554581,736,-0.0288,-0.1416,1.0151,0.2441,-0.1221,-0.1221,1,466,0,38
35560579,737,-0.0288,-0.1431,1.0146,0.1831,-0.2441,-0.1831,1,466,0,38
35567548,738,-0.0283,-0.1440,1.0142,0.1831,-0.2441,-0.1831,1,466,0,38
35569916,739,-0.0283,-0.1431,1.0151,0.1831,-0.1831,-0.1831,1,482,0,38
35575563,740,-0.0283,-0.1421,1.0161,0.1221,-0.1221,-0.1221,1,466,0,38
35579583,741,-0.0273,-0.1411,1.0156,0.1831,-0.1221,-0.2441,1,466,0,38
35584583,742,-0.0273,-0.1416,1.0161,0.1221,-0.0610,-0.3052,1,466,0,38
35589875,743,-0.0283,-0.1426,1.0161,0.1221,-0.1831,-0.1831,1,479,0,38
35594584,744,-0.0293,-0.1421,1.0166,0.0610,0.0610,-0.1221,1,466,0,38
35599583,745,-0.0308,-0.1421,1.0171,0.0000,0.0000,-0.3662,1,467,0,38
35604582,746,-0.0298,-0.1431,1.0161,-0.0610,0.0000,-0.0610,1,466,0,38
35610566,747,-0.0293,-0.1421,1.0142,0.0000,0.2441,-0.1831,1,466,0,38
35614869,748,-0.0293,-0.1411,1.0122,0.0610,0.0610,-0.1831,1,467,0,38
35619577,749,-0.0293,-0.1401,1.0137,0.2441,0.1221,-0.1831,1,466,0,38
35625581,750,-0.0308,-0.1401,1.0156,0.1831,0.1221,-0.2441,1,466,0,38
35632547,751,-0.0308,-0.1421,1.0151,0.0610,0.0000,-0.1221,1,466,0,38
35637879,752,-0.0298,-0.1416,1.0151,0.1221,0.1221,-0.1221,1,475,0,38
35643586,753,-0.0288,-0.1416,1.0151,-0.0610,0.1221,-0.1831,1,466,0,38
35649568,754,-0.0288,-0.1401,1.0151,0.0000,0.1221,-0.1221,1,466,0,38
35652861,755,-0.0293,-0.1392,1.0156,-0.0610,0.1221,-0.0610,1,466,0,38
35658571,756,-0.0293,-0.1406,1.0161,-0.0610,0.1221,-0.1221,1,466,0,38
35659915,757,-0.0293,-0.1406,1.0161,-0.0610,0.1221,-0.1221,1,484,0,38
35664579,758,-0.0303,-0.1416,1.0161,-0.1221,0.1831,-0.0610,1,466,0,38
35670929,759,-0.0317,-0.1416,1.0142,-0.0610,0.1831,-0.0610,1,470,0,38
35680315,760,-0.0293,-0.1421,1.0146,-0.2441,0.3052,-0.1831,1,489,0,39
35685578,761,-0.0283,-0.1431,1.0156,-0.1221,0.3052,-0.2441,1,466,0,39
35692546,762,-0.0322,-0.1460,1.0122,-0.1221,0.1831,-0.1221,1,466,0,39
35695956,763,-0.0322,-0.1460,1.0122,-0.1221,0.1831,-0.1221,1,467,0,39
35701569,764,-0.0322,-0.1436,1.0117,0.1221,0.0000,-0.2441,1,466,0,39
35704865,765,-0.0322,-0.1436,1.0117,0.1221,0.0000,-0.2441,1,467,0,39
35709585,766,-0.0283,-0.1416,1.0146,0.0610,0.1831,-0.1221,1,466,0,39
35714583,767,-0.0269,-0.1401,1.0166,0.0000,0.1831,-0.1221,1,467,0,39
35719578,768,-0.0278,-0.1411,1.0151,0.0610,0.1831,-0.1221,1,466,0,39
35724576,769,-0.0293,-0.1416,1.0122,0.1221,0.1831,0.0000,1,466,0,39
35730561,770,-0.0298,-0.1411,1.0117,0.0000,0.1831,-0.1221,1,467,0,39
35734579,771,-0.0293,-0.1431,1.0127,0.0000,0.0610,-0.1221,1,467,0,39
35739581,772,-0.0298,-0.1455,1.0132,0.1221,0.0610,-0.0610,1,466,0,39
35746562,773,-0.0293,-0.1431,1.0137,0.3052,0.0610,-0.2441,1,466,0,39
35752565,774,-0.0293,-0.1421,1.0122,0.1831,0.1221,-0.1831,1,467,0,39
35757993,775,-0.0303,-0.1426,1.0122,0.2441,0.1831,-0.2441,1,470,0,39
35761260,776,-0.0308,-0.1436,1.0146,0.3052,0.1221,-0.2441,1,495,0,39
35766571,777,-0.0288,-0.1436,1.0171,0.3052,0.0610,-0.1221,1,466,0,39
35770934,778,-0.0269,-0.1421,1.0186,0.2441,0.0610,-0.3662,1,467,0,39
35776581,779,-0.0269,-0.1396,1.0181,0.2441,0.1831,-0.2441,1,466,0,39
35779583,780,-0.0269,-0.1396,1.0181,0.2441,0.1831,-0.2441,1,466,0,39
35784584,781,-0.0278,-0.1396,1.0161,0.0610,0.1221,-0.1221,1,467,0,39
35790558,782,-0.0293,-0.1431,1.0142,0.0000,0.3052,-0.1831,1,466,0,39
35795837,783,-0.0298,-0.1436,1.0142,0.0610,0.1831,-0.2441,1,484,0,39
35799579,784,-0.0298,-0.1436,1.0142,0.0610,0.1831,-0.2441,1,467,0,39
35804583,785,-0.0308,-0.1431,1.0132,0.0000,0.1831,-0.1831,1,466,0,39
35811562,786,-0.0293,-0.1421,1.0117,0.0000,0.2441,-0.1221,1,466,0,39
35814582,787,-0.0273,-0.1406,1.0132,0.0610,0.3052,-0.0610,1,466,0,39
35819581,788,-0.0278,-0.1396,1.0137,0.0000,0.3662,-0.1221,1,467,0,39
35824580,789,-0.0293,-0.1411,1.0132,0.0000,0.1831,-0.1831,1,466,0,39
35829833,790,-0.0298,-0.1416,1.0137,0.0610,0.2441,-0.0610,1,483,0,39
35836556,791,-0.0298,-0.1411,1.0137,0.0000,0.2441,-0.1831,1,466,0,39
35842559,792,-0.0288,-0.1406,1.0132,0.1221,0.2441,-0.1221,1,466,0,39
35849556,793,-0.0288,-0.1416,1.0137,-0.1221,0.3052,-0.0610,1,466,0,39
35850895,794,-0.0288,-0.1416,1.0137,-0.1221,0.3052,-0.0610,1,478,0,39
35854584,795,-0.0298,-0.1416,1.0146,-0.1831,0.3052,-0.1221,1,466,0,39
35861550,796,-0.0298,-0.1431,1.0161,-0.0610,0.3662,-0.2441,1,466,0,39
35867583,797,-0.0293,-0.1436,1.0151,0.0610,0.2441,-0.3052,1,467,0,39
35874551,798,-0.0298,-0.1416,1.0132,-0.0610,0.2441,-0.1221,1,467,0,39
35880585,799,-0.0303,-0.1416,1.0146,0.0610,0.1831,-0.1221,1,466,0,40
35887551,800,-0.0308,-0.1421,1.0156,-0.0610,0.1221,-0.1831,1,466,0,40
35893587,801,-0.0303,-0.1431,1.0156,0.0610,0.1831,-0.1221,1,466,0,40
35894930,802,-0.0303,-0.1431,1.0156,0.0610,0.1831,-0.1221,1,467,0,40
35905577,803,-0.0288,-0.1416,1.0137,0.0000,0.2441,-0.2441,1,466,0,41
35912547,804,-0.0293,-0.1411,1.0132,0.0610,0.4272,-0.3052,1,466,0,41
35918579,805,-0.0298,-0.1411,1.0142,0.0000,0.4272,-0.1831,1,466,0,41
35920897,806,-0.0298,-0.1411,1.0142,0.0000,0.4272,-0.1831,1,476,0,41
35926576,807,-0.0298,-0.1416,1.0146,0.0000,0.3052,-0.2441,1,466,0,41
35931912,808,-0.0288,-0.1416,1.0151,0.1221,0.4272,-0.2441,1,484,0,41
35938545,809,-0.0288,-0.1387,1.0151,0.1221,0.4272,-0.1221,1,466,0,41
35944579,810,-0.0288,-0.1387,1.0156,0.0610,0.4272,-0.1221,1,466,0,42
35951544,811,-0.0293,-0.1411,1.0176,0.0000,0.4883,-0.1831,1,467,0,42
35954577,812,-0.0283,-0.1421,1.0186,0.0000,0.4883,-0.2441,1,466,0,42
35961556,813,-0.0283,-0.1416,1.0176,0.0610,0.4883,-0.3052,1,466,0,42
35967559,814,-0.0308,-0.1426,1.0146,-0.0610,0.4272,-0.2441,1,466,0,42
35974556,815,-0.0317,-0.1421,1.0137,0.0000,0.3662,-0.2441,1,466,0,42
35980561,816,-0.0308,-0.1421,1.0137,0.0000,0.3662,-0.1831,1,466,0,43
35984580,817,-0.0293,-0.1426,1.0151,-0.0610,0.3662,-0.3052,1,466,0,43
35989582,818,-0.0293,-0.1416,1.0151,-0.1221,0.3662,-0.0610,1,466,0,43
35994577,819,-0.0303,-0.1411,1.0142,0.0610,0.4272,-0.1221,1,466,0,43
35999581,820,-0.0308,-0.1406,1.0146,-0.1221,0.4272,-0.1831,1,466,0,43
36005585,821,-0.0303,-0.1406,1.0151,-0.1221,0.4883,-0.0610,1,467,0,43
36012550,822,-0.0293,-0.1421,1.0137,-0.1831,0.4883,-0.1221,1,466,0,43
36018583,823,-0.0298,-0.1431,1.0132,0.0610,0.4272,-0.1221,1,466,0,43
36022946,824,-0.0303,-0.1431,1.0132,0.0000,0.4883,-0.1831,1,472,0,43
36025147,825,-0.0303,-0.1431,1.0132,0.0000,0.4883,-0.1831,1,502,0,43
36030576,826,-0.0312,-0.1431,1.0132,0.1221,0.6714,-0.1221,1,466,0,43
36034969,827,-0.0322,-0.1421,1.0117,0.1831,0.6104,-0.1221,1,470,0,43
36040371,828,-0.0322,-0.1421,1.0103,0.1831,0.6104,-0.1221,1,495,0,43
36049536,829,-0.0308,-0.1436,1.0117,0.4272,0.4883,-0.2441,1,466,0,43
36055571,830,-0.0303,-0.1426,1.0142,0.3052,0.6714,-0.1831,1,466,0,44
36059582,831,-0.0308,-0.1406,1.0146,0.4272,0.6104,-0.1831,1,466,0,44
36065581,832,-0.0312,-0.1401,1.0151,0.3662,0.5493,-0.2441,1,467,0,44
36071629,833,-0.0312,-0.1392,1.0142,0.1831,0.2441,-0.1831,1,466,0,44
36077573,834,-0.0322,-0.1392,1.0146,0.1831,0.3662,-0.0610,1,466,0,44
36083555,835,-0.0317,-0.1392,1.0146,0.0000,0.3662,-0.0610,1,466,0,44
36085782,836,-0.0312,-0.1396,1.0132,-0.0610,0.1831,-0.0610,1,466,0,44
36092535,837,-0.0312,-0.1401,1.0122,0.0000,0.2441,-0.0610,1,466,0,44
36094878,838,-0.0312,-0.1401,1.0122,0.0000,0.2441,-0.0610,1,474,0,44
36099581,839,-0.0317,-0.1396,1.0127,-0.1831,0.1831,-0.1221,1,466,0,44
36105559,840,-0.0308,-0.1416,1.0117,-0.1221,0.0610,0.1221,1,466,0,44
36109581,841,-0.0308,-0.1416,1.0117,-0.1221,0.0610,0.1221,1,466,0,44
36114583,842,-0.0317,-0.1421,1.0122,-0.1221,0.1221,-0.1221,1,466,0,44
36119576,843,-0.0327,-0.1436,1.0137,0.0000,0.1831,-0.1831,1,466,0,44
36124585,844,-0.0327,-0.1440,1.0161,0.1221,0.1831,-0.1831,1,466,0,44
36130582,845,-0.0308,-0.1431,1.0151,0.0000,0.2441,-0.1221,1,466,0,44
36136563,846,-0.0303,-0.1426,1.0137,0.0610,0.1831,-0.2441,1,466,0,44
36139578,847,-0.0303,-0.1411,1.0132,0.1831,0.1221,-0.0610,1,466,0,44
36145566,848,-0.0298,-0.1401,1.0142,0.1221,-0.0610,-0.0610,1,466,0,44
36149576,849,-0.0298,-0.1406,1.0146,0.1221,0.0610,-0.1221,1,466,0,44
36155576,850,-0.0303,-0.1421,1.0151,0.1221,0.3052,-0.1831,1,466,0,44
36159939,851,-0.0308,-0.1421,1.0156,0.1221,0.2441,-0.1831,1,477,0,44
36164578,852,-0.0317,-0.1421,1.0171,0.1221,0.2441,-0.1831,1,466,0,44
36169580,853,-0.0303,-0.1406,1.0190,0.2441,0.3052,-0.1831,1,466,0,44
36174579,854,-0.0303,-0.1416,1.0161,0.2441,0.4883,-0.1831,1,466,0,44
36179578,855,-0.0317,-0.1436,1.0122,0.2441,0.4272,-0.1221,1,466,0,44
36184583,856,-0.0308,-0.1416,1.0142,0.3662,0.3052,-0.1831,1,466,0,44
36190581,857,-0.0303,-0.1406,1.0176,0.3662,0.3662,-0.2441,1,466,0,44
36197546,858,-0.0308,-0.1411,1.0181,0.1831,0.3662,-0.1221,1,467,0,44
36203582,859,-0.0312,-0.1392,1.0161,0.0610,0.2441,-0.1221,1,466,0,44
36204956,860,-0.0312,-0.1392,1.0161,0.0610,0.2441,-0.1221,1,482,0,44
36211344,861,-0.0303,-0.1396,1.0156,-0.0610,0.3662,-0.2441,1,5493,0,44
36217652,862,-0.0298,-0.1411,1.0161,0.0000,0.3052,-0.2441,1,466,0,44
36219969,863,-0.0293,-0.1406,1.0156,-0.0610,0.4272,-0.1831,1,471,0,44
36224580,864,-0.0293,-0.1396,1.0151,-0.1221,0.3662,-0.0610,1,466,0,44
36229583,865,-0.0303,-0.1406,1.0146,0.0000,0.4883,-0.1221,1,466,0,44
36235563,866,-0.0312,-0.1411,1.0132,-0.0610,0.5493,-0.1221,1,466,0,44
36242559,867,-0.0322,-0.1416,1.0112,-0.0610,0.4272,-0.0610,1,466,0,44
36246943,868,-0.0322,-0.1431,1.0117,-0.0610,0.5493,-0.0610,1,473,0,44
36250318,869,-0.0308,-0.1445,1.0137,0.0610,0.4272,-0.2441,1,492,0,44
36255581,870,-0.0303,-0.1431,1.0151,0.1831,0.5493,-0.1831,1,466,0,44
36262550,871,-0.0303,-0.1401,1.0161,0.1221,0.6104,-0.2441,1,466,0,44
36269537,872,-0.0312,-0.1421,1.0151,0.1221,0.4883,-0.2441,1,466,0,44
36270903,873,-0.0312,-0.1421,1.0151,0.1221,0.4883,-0.2441,1,468,0,44
36280316,874,-0.0298,-0.1411,1.0151,0.0000,0.3662,-0.3052,1,491,0,45
36284577,875,-0.0298,-0.1392,1.0151,-0.0610,0.3052,-0.2441,1,466,0,45
36290554,876,-0.0308,-0.1401,1.0146,-0.0610,0.4883,-0.3052,1,466,0,45
36294579,877,-0.0317,-0.1436,1.0132,0.0610,0.4272,-0.2441,1,466,0,45
36299578,878,-0.0312,-0.1445,1.0112,0.0000,0.4883,-0.3052,1,466,0,45
36306556,879,-0.0298,-0.1426,1.0112,0.0000,0.4883,-0.2441,1,466,0,45
36312557,880,-0.0293,-0.1411,1.0142,-0.1221,0.4272,-0.1831,1,466,0,45
36319554,881,-0.0298,-0.1416,1.0156,-0.1221,0.4883,-0.1831,1,466,0,45
36325557,882,-0.0298,-0.1406,1.0171,-0.1831,0.4883,-0.1831,1,466,0,46
36332554,883,-0.0298,-0.1367,1.0186,-0.4883,0.5493,-0.1221,1,466,0,46
36338559,884,-0.0298,-0.1372,1.0186,-0.5493,0.5493,-0.1221,1,466,0,46
36344571,885,-0.0293,-0.1392,1.0181,-0.6104,0.6714,-0.0610,1,466,0,46
36345912,886,-0.0293,-0.1392,1.0181,-0.6104,0.6714,-0.0610,1,482,0,46
36349582,887,-0.0298,-0.1396,1.0176,-0.6104,0.6714,0.0000,1,466,0,46
36354579,888,-0.0298,-0.1392,1.0171,-0.8545,0.6104,0.0000,1,466,0,46
36360562,889,-0.0288,-0.1396,1.0171,-0.9155,0.7935,-0.1831,1,466,0,46
36367558,890,-0.0303,-0.1406,1.0166,-0.9766,0.7324,-0.0610,1,466,0,46
36374547,891,-0.0317,-0.1431,1.0137,-1.0376,0.7324,-0.1221,1,466,0,46
36380580,892,-0.0332,-0.1460,1.0132,-0.9155,0.7935,-0.1831,1,467,0,47
36387547,893,-0.0342,-0.1450,1.0107,-0.7935,0.6104,-0.1221,1,467,0,47
36393618,894,-0.0337,-0.1440,1.0088,-0.6714,0.4272,-0.1221,1,466,0,47
36394953,895,-0.0337,-0.1440,1.0088,-0.6714,0.4272,-0.1221,1,482,0,47
36402325,896,-0.0342,-0.1455,1.0073,-0.4883,0.5493,-0.1221,1,481,0,47
36407559,897,-0.0352,-0.1470,1.0078,-0.2441,0.4272,-0.1831,1,466,0,47
36413569,898,-0.0347,-0.1475,1.0098,-0.1221,0.1831,-0.2441,1,484,0,47
36416014,899,-0.0337,-0.1470,1.0127,-0.0610,0.1831,-0.1831,1,468,0,47
36419581,900,-0.0337,-0.1470,1.0127,-0.0610,0.1831,-0.1831,1,466,0,47
36424584,901,-0.0327,-0.1455,1.0156,0.2441,0.1831,-0.1221,1,466,0,47
36430635,902,-0.0298,-0.1450,1.0166,-0.1221,0.1221,0.0610,1,466,0,47
36436581,903,-0.0293,-0.1431,1.0171,0.0000,0.3052,0.0610,1,467,0,47
36442563,904,-0.0317,-0.1416,1.0161,-0.0610,0.3052,0.0000,1,466,0,47
36444850,905,-0.0342,-0.1450,1.0132,-0.1831,0.0610,-0.1221,1,472,0,47
36450557,906,-0.0337,-0.1479,1.0112,0.1221,0.1221,0.0000,1,467,0,47
36454577,907,-0.0317,-0.1465,1.0122,0.4272,0.0610,0.1221,1,466,0,47
36460568,908,-0.0298,-0.1440,1.0132,0.3052,0.1221,0.0000,1,466,0,47
36465876,909,-0.0293,-0.1440,1.0137,0.0610,0.3052,-0.1831,1,472,0,47
36471552,910,-0.0308,-0.1455,1.0146,0.0610,0.2441,-0.1221,1,466,0,47
36475624,911,-0.0332,-0.1455,1.0156,0.3052,0.1221,-0.1221,1,466,0,47
36480950,912,-0.0327,-0.1455,1.0161,0.3662,0.0000,-0.0610,1,466,0,47
36486568,913,-0.0298,-0.1445,1.0171,0.4883,0.1221,0.0610,1,466,0,47
36493534,914,-0.0283,-0.1426,1.0166,0.6104,0.1221,0.0000,1,466,0,47
36497858,915,-0.0303,-0.1401,1.0151,0.5493,0.1831,-0.0610,1,466,0,47
36502128,916,-0.0337,-0.1411,1.0151,0.6104,0.0610,-0.1221,1,486,0,47
36508549,917,-0.0337,-0.1436,1.0161,0.7324,0.0610,0.0000,1,467,0,47
36510775,918,-0.0322,-0.1445,1.0171,0.7324,0.1221,0.1221,1,466,0,47
36516565,919,-0.0317,-0.1436,1.0176,0.7324,0.0610,0.0000,1,466,0,47
36519860,920,-0.0317,-0.1426,1.0166,0.7935,0.1221,0.0000,1,466,0,47
36526553,921,-0.0317,-0.1416,1.0156,0.7935,0.1831,0.1221,1,466,0,47
36532556,922,-0.0312,-0.1406,1.0161,0.7935,0.2441,0.0610,1,466,0,47
36535982,923,-0.0298,-0.1392,1.0171,0.7324,0.2441,0.0610,1,477,0,47
36542544,924,-0.0293,-0.1392,1.0176,0.6714,0.4272,0.1221,1,466,0,47
36549533,925,-0.0288,-0.1440,1.0190,0.6104,0.4883,0.1221,1,466,0,47
36550869,926,-0.0288,-0.1440,1.0190,0.6104,0.4883,0.1221,1,479,0,47
36561578,927,-0.0298,-0.1426,1.0176,0.6104,0.7324,0.3662,1,466,0,48
36568547,928,-0.0293,-0.1416,1.0112,0.7324,1.2207,0.1831,1,467,0,48
36573936,929,-0.0317,-0.1440,1.0112,0.7324,1.1597,0.2441,1,478,0,48
36576197,930,-0.0317,-0.1440,1.0112,0.7324,1.1597,0.2441,1,488,0,48
36581567,931,-0.0347,-0.1440,1.0132,0.7324,0.9766,0.2441,1,466,0,48
36588534,932,-0.0312,-0.1411,1.0186,0.9155,0.9766,0.0610,1,466,0,48
36589907,933,-0.0312,-0.1411,1.0186,0.9155,0.9766,0.0610,1,484,0,48
36600580,934,-0.0303,-0.1406,1.0146,0.9155,1.0986,0.1831,1,466,0,49
36606563,935,-0.0322,-0.1416,1.0117,1.0986,1.0376,0.1221,1,466,0,49
36609584,936,-0.0332,-0.1411,1.0132,1.0986,1.0986,0.1221,1,466,0,49
36614578,937,-0.0317,-0.1416,1.0166,0.9766,1.0986,0.0000,1,466,0,49
36620571,938,-0.0312,-0.1421,1.0195,0.9766,1.1597,-0.0610,1,466,0,49
36624961,939,-0.0317,-0.1406,1.0205,1.0986,1.0376,0.0000,1,474,0,49
36629576,940,-0.0322,-0.1387,1.0176,0.9155,1.2817,0.0610,1,466,0,49
36636539,941,-0.0322,-0.1387,1.0146,0.8545,1.2207,0.1831,1,466,0,49
36642571,942,-0.0327,-0.1372,1.0132,0.7935,1.5259,0.1221,1,466,0,49
36644923,943,-0.0327,-0.1372,1.0132,0.7935,1.5259,0.1221,1,470,0,49
36649577,944,-0.0347,-0.1382,1.0127,0.6714,1.3428,0.2441,1,467,0,49
36655572,945,-0.0352,-0.1411,1.0103,0.6714,1.2207,0.2441,1,466,0,49
36659580,946,-0.0347,-0.1416,1.0107,0.8545,1.2207,0.1221,1,466,0,49
36665551,947,-0.0327,-0.1372,1.0166,0.9155,1.0376,0.1221,1,467,0,49
36669583,948,-0.0298,-0.1362,1.0210,0.5493,1.2817,0.1221,1,466,0,49
36674583,949,-0.0303,-0.1382,1.0186,0.4272,1.4038,0.2441,1,467,0,49
36679576,950,-0.0322,-0.1387,1.0151,0.4883,1.5259,0.1831,1,466,0,49
36684580,951,-0.0332,-0.1387,1.0137,0.4272,1.4648,0.1221,1,466,0,49
36689964,952,-0.0327,-0.1406,1.0127,0.4883,1.5869,0.1221,1,470,0,49
36694576,953,-0.0332,-0.1421,1.0117,0.3662,1.7090,0.1831,1,466,0,49
36701540,954,-0.0356,-0.1401,1.0117,0.6714,1.5869,0.1831,1,466,0,49
36707573,955,-0.0352,-0.1406,1.0132,0.7935,1.4648,0.1831,1,466,0,49
36714562,956,-0.0347,-0.1411,1.0142,0.8545,1.4038,0.0610,1,466,0,49
36720574,957,-0.0352,-0.1392,1.0132,0.7935,1.2207,0.0000,1,466,0,50
36725913,958,-0.0366,-0.1387,1.0132,0.8545,1.1597,-0.0610,1,479,0,50
36729582,959,-0.0366,-0.1387,1.0132,0.8545,1.1597,-0.0610,1,466,0,50
36734576,960,-0.0376,-0.1396,1.0137,0.7935,0.9155,0.0610,1,466,0,50
36739951,961,-0.0366,-0.1411,1.0132,0.7935,0.9766,0.0000,1,482,0,50
36745570,962,-0.0356,-0.1392,1.0078,0.9155,0.9155,0.0610,1,466,0,50
36751581,963,-0.0376,-0.1362,1.0039,0.7935,0.9155,0.1831,1,466,0,50
36757563,964,-0.0396,-0.1377,1.0039,0.7324,0.7935,0.0610,1,466,0,50
36764527,965,-0.0391,-0.1411,1.0073,0.7935,0.4883,0.0610,1,466,0,50
36770564,966,-0.0381,-0.1392,1.0146,1.0986,0.4272,0.0000,1,466,0,51
36774576,967,-0.0381,-0.1392,1.0146,1.0986,0.4272,0.0000,1,466,0,51
36780573,968,-0.0342,-0.1353,1.0181,0.8545,0.4272,0.0000,1,466,0,51
36784902,969,-0.0342,-0.1362,1.0171,0.6104,0.3662,0.0000,1,467,0,51
36789584,970,-0.0337,-0.1382,1.0156,0.5493,0.4272,0.0610,1,467,0,51
36796542,971,-0.0337,-0.1392,1.0151,0.5493,0.4883,0.1221,1,466,0,51
36802575,972,-0.0332,-0.1382,1.0156,0.5493,0.4883,0.0000,1,466,0,51
36804894,973,-0.0327,-0.1367,1.0171,0.5493,0.6714,0.0610,1,474,0,51
36809581,974,-0.0332,-0.1367,1.0171,0.4272,0.5493,0.0000,1,467,0,51
36815574,975,-0.0342,-0.1372,1.0156,0.6104,0.5493,0.0610,1,466,0,51
36822541,976,-0.0342,-0.1377,1.0142,0.5493,0.5493,0.0000,1,466,0,51
36824797,977,-0.0337,-0.1387,1.0137,0.4883,0.6714,0.0000,1,483,0,51
36829577,978,-0.0342,-0.1387,1.0137,0.6104,0.5493,0.0000,1,466,0,51
36834584,979,-0.0342,-0.1377,1.0122,0.6104,0.6714,0.0000,1,466,0,51
36840569,980,-0.0347,-0.1367,1.0122,0.4883,0.7935,0.0610,1,466,0,51
36844578,981,-0.0356,-0.1372,1.0132,0.4272,0.9155,0.0000,1,467,0,51
36851532,982,-0.0361,-0.1387,1.0142,0.4272,0.8545,0.0610,1,466,0,51
36858553,983,-0.0361,-0.1387,1.0156,0.4883,1.0376,0.0000,1,466,0,51
36860778,984,-0.0361,-0.1387,1.0156,0.4883,1.0376,0.0000,1,466,0,51
36865011,985,-0.0352,-0.1401,1.0137,0.6104,1.0986,0.0000,1,468,0,51
36869576,986,-0.0347,-0.1401,1.0122,0.9766,0.9155,0.0000,1,466,0,51
36874582,987,-0.0352,-0.1396,1.0122,0.8545,0.7935,-0.0610,1,467,0,51
36879874,988,-0.0366,-0.1387,1.0132,0.9766,0.8545,0.0610,1,472,0,51
36885553,989,-0.0381,-0.1367,1.0127,1.0986,0.6714,-0.0610,1,466,0,51
36892548,990,-0.0391,-0.1367,1.0112,0.9766,0.4883,-0.1221,1,466,0,51
36899536,991,-0.0376,-0.1367,1.0127,1.1597,0.5493,-0.0610,1,466,0,51
36905571,992,-0.0366,-0.1367,1.0161,1.0986,0.5493,-0.1221,1,466,0,52
36911619,993,-0.0356,-0.1362,1.0171,0.9766,0.5493,-0.1221,1,466,0,52
36917565,994,-0.0342,-0.1353,1.0200,0.8545,0.4883,0.0000,1,466,0,52
36921866,995,-0.0342,-0.1353,1.0200,0.8545,0.4883,0.0000,1,480,0,52
36927576,996,-0.0337,-0.1357,1.0142,0.7935,0.6714,0.0610,1,466,0,52
36934540,997,-0.0352,-0.1377,1.0122,0.7935,0.7324,0.1831,1,467,0,52
36940573,998,-0.0356,-0.1406,1.0122,0.9155,0.6714,0.1221,1,466,0,53
36944582,999,-0.0356,-0.1406,1.0127,0.9766,0.7324,0.1221,1,466,0,53
36951538,1000,-0.0356,-0.1377,1.0117,1.1597,0.7324,0.2441,1,466,0,53
36955961,1001,-0.0366,-0.1367,1.0117,1.1597,0.9155,0.3052,1,471,0,53
36959582,1002,-0.0361,-0.1396,1.0103,1.1597,0.9155,0.3052,1,466,0,53
36964578,1003,-0.0356,-0.1406,1.0098,1.4648,1.1597,0.5493,1,467,0,53
36970572,1004,-0.0366,-0.1382,1.0132,1.4648,1.2817,0.4272,1,466,0,53
36976553,1005,-0.0361,-0.1377,1.0176,1.5259,1.2207,0.4883,1,467,0,53
36983550,1006,-0.0410,-0.1362,1.0127,1.7090,0.7935,0.3662,1,466,0,53
36988941,1007,-0.0439,-0.1343,1.0073,1.5259,0.0610,0.3662,1,470,0,53
36994349,1008,-0.0405,-0.1328,1.0039,1.4038,-0.2441,0.4272,1,466,0,53
36995692,1009,-0.0405,-0.1328,1.0039,1.4038,-0.2441,0.4272,1,466,0,53
37001577,1010,-0.0405,-0.1470,1.0000,2.0752,0.0000,0.2441,1,467,0,53
37006916,1011,-0.0391,-0.1460,1.0088,2.7466,-0.5493,0.1221,1,473,0,53
37013551,1012,-0.0352,-0.1387,1.0161,2.8076,-0.4883,-0.1221,1,484,0,53
37019552,1013,-0.0337,-0.1362,1.0186,2.8076,-0.4883,-0.1221,1,466,0,53
37020903,1014,-0.0332,-0.1396,1.0161,2.9907,-0.4272,-0.0610,1,467,0,53
37031577,1015,-0.0356,-0.1353,1.0093,3.4180,-0.4883,-0.0610,1,466,0,54
37034584,1016,-0.0356,-0.1353,1.0093,3.4180,-0.4883,-0.0610,1,466,0,54
37039579,1017,-0.0361,-0.1289,1.0078,3.3569,-0.1831,0.0610,1,466,0,54
37044972,1018,-0.0396,-0.1211,1.0059,3.1738,0.1221,-0.1221,1,483,0,54
37049577,1019,-0.0347,-0.1177,1.0103,2.3804,-0.3662,0.1221,1,466,0,54
37055563,1020,-0.0273,-0.1240,1.0151,1.6479,1.2207,0.3662,1,466,0,54
37062532,1021,-0.0317,-0.1328,1.0063,1.2207,1.2817,0.5493,1,466,0,54
37066913,1022,-0.0366,-0.1377,0.9990,1.4038,1.5259,0.5493,1,477,0,54
37070287,1023,-0.0415,-0.1338,0.9946,1.5869,1.3428,0.6714,1,494,0,54
37075554,1024,-0.0405,-0.1299,0.9951,1.2207,0.9155,0.7324,1,466,0,54
37081565,1025,-0.0376,-0.1309,0.9976,1.2207,1.5869,0.6714,1,466,0,54
37088532,1026,-0.0371,-0.1328,0.9976,1.4648,2.0752,0.7324,1,466,0,54
37093921,1027,-0.0391,-0.1338,0.9961,1.7090,2.3804,0.7324,1,469,0,54
37095238,1028,-0.0381,-0.1348,0.9961,1.7700,2.4414,0.6104,1,538,0,54
37099579,1029,-0.0342,-0.1406,0.9990,2.1973,3.2349,0.7935,1,466,0,54
37105551,1030,-0.0352,-0.1455,1.0015,3.0518,4.1504,0.6714,1,466,0,54
37109584,1031,-0.0381,-0.1436,1.0010,3.7842,4.0894,0.6104,1,466,0,54
37114580,1032,-0.0366,-0.1382,0.9985,4.0894,4.3945,0.6714,1,466,0,54
37120632,1033,-0.0352,-0.1362,0.9961,4.3945,5.4932,0.7935,1,466,0,54
37127531,1034,-0.0371,-0.1343,0.9990,4.6997,5.9814,0.7324,1,466,0,54
37134559,1035,-0.0410,-0.1191,1.0166,4.6997,6.5918,0.7324,1,466,0,54
37140555,1036,-0.0415,-0.1167,1.0254,4.3335,6.5308,0.5493,1,466,0,55
37146568,1037,-0.0381,-0.1147,1.0322,3.9673,6.2256,0.4883,1,466,0,55
37153533,1038,-0.0312,-0.1128,1.0376,3.5400,6.5918,0.6104,1,466,0,55
37154899,1039,-0.0264,-0.1152,1.0405,2.9297,7.2021,0.6714,1,466,0,55
37159583,1040,-0.0278,-0.1191,1.0400,2.5024,7.9956,0.6714,1,466,0,55
37165919,1041,-0.0342,-0.1221,1.0400,2.3804,8.0566,0.8545,1,470,0,55
37169581,1042,-0.0371,-0.1255,1.0356,2.2583,8.0566,0.7324,1,466,0,55
37175558,1043,-0.0410,-0.1309,1.0229,2.3804,8.3618,0.6104,1,466,0,55
37181569,1044,-0.0527,-0.1348,1.0098,2.6245,8.2397,0.5493,1,466,0,55
37187550,1045,-0.0640,-0.1343,1.0063,2.8076,6.9580,0.3662,1,466,0,55
37194548,1046,-0.0630,-0.1201,1.0161,2.5635,5.1880,-0.1221,1,481,0,55
37200553,1047,-0.0605,-0.1206,1.0161,2.2583,4.1504,-0.2441,1,466,0,56
37206563,1048,-0.0591,-0.1240,1.0142,2.3193,3.4180,-0.4272,1,466,0,56
37212576,1049,-0.0630,-0.1265,1.0151,2.6245,3.0518,-0.5493,1,466,0,56
37218557,1050,-0.0566,-0.1162,1.0146,4.8828,0.9155,-1.2207,1,466,0,56
37222948,1051,-0.0532,-0.1094,1.0186,1.4648,0.9766,-0.5493,1,482,0,56
37225215,1052,-0.0532,-0.1094,1.0186,1.4648,0.9766,-0.5493,1,483,0,56
37229580,1053,-0.0522,-0.1113,1.0254,2.0142,0.1221,-0.4272,1,466,0,56
37235554,1054,-0.0508,-0.1187,1.0264,2.1973,-0.4272,-0.5493,1,466,0,56
37242552,1055,-0.0498,-0.1216,1.0244,1.3428,-0.7324,-0.8545,1,466,0,56
37248557,1056,-0.0483,-0.1211,1.0249,1.0376,-1.4038,-0.6104,1,466,0,56
37249898,1057,-0.0483,-0.1211,1.0249,1.0376,-1.4038,-0.6104,1,466,0,56
37260550,1058,-0.0444,-0.1274,1.0234,1.0376,-2.0142,-0.7935,1,466,0,57
37267547,1059,-0.0479,-0.1216,1.0107,1.2207,-2.1362,-0.8545,1,467,0,57
37271930,1060,-0.0493,-0.1201,1.0083,1.3428,-2.2583,-0.7324,1,480,0,57
37274585,1061,-0.0493,-0.1201,1.0083,1.3428,-2.2583,-0.7324,1,466,0,57
37280567,1062,-0.0498,-0.1240,1.0093,1.5259,-2.3804,-0.7935,1,466,0,57
37286616,1063,-0.0527,-0.1289,1.0093,1.8311,-2.5635,-0.7935,1,466,0,57
37292560,1064,-0.0547,-0.1279,1.0078,2.0752,-3.6621,-1.4648,1,466,0,57
37298573,1065,-0.0503,-0.1265,1.0117,2.2583,-4.3335,-1.8311,1,466,0,57
37304554,1066,-0.0459,-0.1221,1.0166,2.3804,-4.7607,-2.0752,1,466,0,57
37305897,1067,-0.0459,-0.1221,1.0166,2.3804,-4.7607,-2.0752,1,468,0,57
37309580,1068,-0.0439,-0.1196,1.0190,2.1973,-5.1880,-2.0142,1,466,0,57
37314577,1069,-0.0425,-0.1172,1.0200,2.0142,-5.3101,-2.3804,1,481,0,57
37319581,1070,-0.0415,-0.1123,1.0215,1.7090,-5.3711,-2.3804,1,466,0,57
37325550,1071,-0.0405,-0.1089,1.0210,1.3428,-5.4932,-2.3804,1,466,0,57
37329582,1072,-0.0391,-0.1123,1.0225,0.2441,-5.0049,-2.6245,1,466,0,57
37336545,1073,-0.0415,-0.1172,1.0234,1.0986,-5.0659,-2.1362,1,466,0,57
37341937,1074,-0.0400,-0.1108,1.0190,1.4648,-5.0659,-1.8311,1,472,0,57
37344584,1075,-0.0400,-0.1108,1.0190,1.4648,-5.0659,-1.8311,1,466,0,57
37349577,1076,-0.0361,-0.1099,1.0166,0.6104,-3.9673,-1.8921,1,466,0,57
37355549,1077,-0.0347,-0.1138,1.0176,0.6104,-3.0518,-1.8311,1,466,0,57
37359579,1078,-0.0356,-0.1172,1.0181,0.5493,-2.5635,-1.5869,1,466,0,57
37364576,1079,-0.0405,-0.1196,1.0146,0.4883,-2.2583,-1.7090,1,466,0,57
37369584,1080,-0.0454,-0.1201,1.0107,0.9155,-2.3193,-1.8921,1,466,0,57
37374585,1081,-0.0454,-0.1250,1.0107,1.3428,-2.3804,-2.1973,1,466,0,57
37379991,1082,-0.0449,-0.1309,1.0122,2.0142,-2.3804,-2.6245,1,483,0,57
37384582,1083,-0.0469,-0.1338,1.0107,2.8076,-2.8076,-3.0518,1,466,0,57
37390552,1084,-0.0645,-0.1313,1.0000,4.0894,-4.3945,-4.2725,1,466,0,57
37397549,1085,-0.0654,-0.1309,0.9990,4.5776,-5.6763,-4.7607,1,467,0,57
37399919,1086,-0.0552,-0.1265,1.0044,4.8218,-6.5308,-4.6387,1,468,0,57
37405567,1087,-0.0435,-0.1201,1.0093,4.7607,-6.5308,-4.5166,1,466,0,57
37412533,1088,-0.0381,-0.1133,1.0122,4.6997,-6.6528,-4.4556,1,466,0,57
37415912,1089,-0.0366,-0.1055,1.0156,4.2725,-6.9580,-4.1504,1,476,0,57
37420292,1090,-0.0381,-0.1035,1.0166,3.7231,-6.8970,-3.9673,1,489,0,57
37425555,1091,-0.0400,-0.1069,1.0171,3.2349,-7.3242,-4.0283,1,466,0,57
37431567,1092,-0.0386,-0.1123,1.0176,2.9297,-7.6904,-4.0894,1,466,0,57
37436609,1093,-0.0361,-0.1167,1.0176,3.1738,-7.7515,-4.1504,1,466,0,57
37442556,1094,-0.0356,-0.1191,1.0171,3.3569,-7.7515,-4.1504,1,466,0,57
37448633,1095,-0.0391,-0.1216,1.0142,3.3569,-8.1787,-4.3335,1,467,0,57
37453935,1096,-0.0444,-0.1255,1.0083,3.8452,-8.6060,-4.6387,1,473,0,57
37457308,1097,-0.0454,-0.1279,1.0068,4.3945,-9.4604,-5.0049,1,491,0,57
37462572,1098,-0.0425,-0.1284,1.0078,5.1880,-10.0708,-5.5542,1,467,0,57
37465959,1099,-0.0371,-0.1274,1.0103,6.0425,-10.6812,-6.2256,1,472,0,57
37471361,1100,-0.0332,-0.1226,1.0132,6.6528,-10.9863,-6.9580,1,495,0,57
37474576,1101,-0.0317,-0.1167,1.0161,6.7139,-11.4746,-7.4463,1,466,0,57
37481532,1102,-0.0308,-0.1133,1.0190,6.7749,-11.9019,-7.8735,1,466,0,57
37488552,1103,-0.0269,-0.1089,1.0176,7.0190,-12.5122,-8.5449,1,466,0,57
37489924,1104,-0.0269,-0.1089,1.0176,7.0190,-12.5122,-8.5449,1,467,0,57
37498338,1105,-0.0293,-0.1089,1.0156,7.0801,-13.0005,-8.7280,1,468,0,57
37503559,1106,-0.0146,-0.1055,1.0210,7.4463,-13.1836,-9.0332,1,466,0,57
37505937,1107,-0.0146,-0.1055,1.0210,7.4463,-13.1836,-9.0332,1,470,0,57
37511368,1108,-0.0127,-0.0996,1.0234,7.1411,-13.2446,-8.8501,1,495,0,57
37514785,1109,-0.0142,-0.0977,1.0234,6.7139,-13.3667,-8.9111,1,484,0,57
37520557,1110,-0.0195,-0.0972,1.0210,6.5918,-13.5498,-8.8501,1,466,0,57
37526569,1111,-0.0244,-0.0967,1.0161,6.4697,-14.1602,-8.7280,1,466,0,57
37529953,1112,-0.0229,-0.0967,1.0142,6.2256,-14.7705,-8.4839,1,477,0,57
37534577,1113,-0.0215,-0.0957,1.0161,5.8594,-14.5264,-8.2397,1,466,0,57
37540545,1114,-0.0210,-0.0938,1.0176,5.3101,-15.1978,-7.8125,1,466,0,57
37546556,1115,-0.0181,-0.0947,1.0181,4.7607,-15.2588,-7.2632,1,466,0,57
37552568,1116,-0.0234,-0.0972,1.0107,4.4556,-15.6250,-6.1646,1,466,0,57
37557969,1117,-0.0269,-0.1030,1.0103,4.2725,-16.2964,-5.4932,1,484,0,57
37560262,1118,-0.0269,-0.1030,1.0103,4.2725,-16.2964,-5.4932,1,495,0,57
37565568,1119,-0.0225,-0.1074,1.0112,4.2114,-17.6392,-5.0049,1,466,0,57
37569580,1120,-0.0190,-0.1099,1.0098,4.3335,-17.8223,-4.6387,1,466,0,57
37574583,1121,-0.0234,-0.1094,1.0073,4.6387,-18.9819,-4.4556,1,466,0,57
37579576,1122,-0.0288,-0.1084,1.0073,4.9438,-20.1416,-4.6997,1,466,0,57
37584581,1123,-0.0308,-0.1069,1.0093,4.7607,-22.1558,-5.1880,1,466,0,57
37589584,1124,-0.0337,-0.1045,1.0093,4.8828,-23.8647,-5.7373,1,466,0,57
37594580,1125,-0.0303,-0.0996,1.0112,5.1880,-26.2451,-6.6528,1,466,0,57
37599899,1126,-0.0234,-0.0957,1.0186,4.9438,-28.1982,-7.6294,1,466,0,57
37605548,1127,-0.0254,-0.0918,1.0229,4.5776,-29.9683,-8.3618,1,466,0,57
37609579,1128,-0.0244,-0.0903,1.0269,4.0283,-32.7759,-8.3618,1,466,0,57
37614579,1129,-0.0244,-0.0894,1.0317,3.2349,-33.6304,-8.1177,1,482,0,57
37620563,1130,-0.0259,-0.0835,1.0347,2.5635,-35.9497,-7.3853,1,466,0,57
37624955,1131,-0.0195,-0.0806,1.0376,1.5869,-37.5366,-7.0190,1,474,0,57
37630570,1132,-0.0132,-0.0786,1.0405,0.2441,-38.6963,-6.4087,1,466,0,57
37635971,1133,-0.0024,-0.0801,1.0435,-0.9155,-40.9546,-5.6763,1,482,0,57
37639581,1134,0.0049,-0.0854,1.0459,-2.0752,-41.6870,-5.4321,1,466,0,57
37644579,1135,0.0015,-0.0894,1.0449,-3.0518,-43.4570,-5.4932,1,466,0,57
37650560,1136,-0.0068,-0.0972,1.0425,-3.8452,-45.9595,-6.7139,1,466,0,57
37654583,1137,-0.0332,-0.1060,1.0425,-4.0283,-48.4619,-8.4839,1,467,0,57
37659580,1138,-0.0913,-0.1069,1.0459,-4.0283,-53.8940,-10.1929,1,466,0,57
37664582,1139,-0.1826,-0.1040,1.0547,-5.3101,-65.2466,-13.8550,1,466,0,57
37669582,1140,-0.2778,-0.1030,1.0669,-6.8970,-83.4351,-18.0054,1,467,0,57
37675554,1141,-0.3540,-0.0977,1.0859,-7.8125,-103.6377,-21.4233,1,466,0,57
37679976,1142,-0.4336,-0.0913,1.1157,-8.9111,-127.1973,-25.3296,1,477,0,57
37684582,1143,-0.5146,-0.0840,1.1558,-9.9487,-159.4238,-30.1514,1,466,0,57
37691525,1144,-0.5430,-0.0620,1.2524,-15.8691,-239.9292,-44.4946,1,466,0,57
37696972,1145,-0.6470,-0.0767,1.3286,-26.5503,-281.7383,-56.5186,1,480,0,57
37699584,1146,-0.6470,-0.0767,1.3286,-26.5503,-281.7383,-56.5186,1,466,0,57
37706540,1147,-0.9170,-0.1772,1.5615,-48.8281,-388.0615,-78.6133,1,467,0,57
37712569,1148,-0.8340,-0.1567,1.5933,-50.0488,-431.7016,-87.6465,1,466,0,57
37714578,1149,-0.8340,-0.1567,1.5933,-50.0488,-431.7016,-87.6465,1,467,0,57
37719585,1150,-0.6367,-0.0830,1.5640,-52.7344,-468.3838,-93.6890,1,466,0,57
37724585,1151,-0.5249,0.0352,1.5698,-64.6362,-497.4975,-105.9570,1,466,0,57
37729576,1152,-0.5991,0.0938,1.6133,-84.6558,-526.3672,-124.2676,1,466,0,57
37736537,1153,-0.7393,-0.1685,1.4868,-99.1821,-554.6265,-136.4136,1,466,0,57
37742567,1154,-0.7002,-0.2358,1.3433,-80.0781,-565.4297,-144.2871,1,466,0,57
37747998,1155,-0.6699,-0.2363,1.1475,-66.0400,-595.7642,-146.1792,1,475,0,57
37753339,1156,-0.5986,-0.2798,0.9365,-54.0161,-630.1880,-146.3623,1,469,0,57
37754688,1157,-0.5181,-0.4058,0.7383,-33.3862,-664.2455,-148.1323,1,466,0,57
37759580,1158,-0.4302,-0.5483,0.5547,-0.5493,-703.1249,-149.1089,1,467,0,57
37766534,1159,-0.3730,-0.6074,0.3833,33.6914,-733.2153,-152.7710,1,466,0,57
37772568,1160,-0.4375,-0.4082,0.3354,60.8520,-771.2402,-156.0669,1,466,0,57
37779535,1161,1.4194,0.5293,1.8281,-3.4180,-1017.8222,-128.1738,1,467,0,57
37780936,1162,1.4194,0.5293,1.8281,-3.4180,-1017.8222,-128.1738,1,470,0,57
37788302,1163,4.4614,-0.5996,3.2705,-83.5571,-742.1264,-111.2671,1,490,0,57
37789682,1164,4.3984,-1.7295,5.0767,-77.8809,-165.3442,-161.8042,1,466,0,57
37794584,1165,1.8345,-1.5605,6.2266,-14.3433,-78.1250,-112.4268,1,488,0,57
37799581,1166,0.2212,-1.0098,5.9302,-14.7095,-13.7329,-95.1538,1,466,0,57
37804583,1167,-0.2852,-0.8770,4.7437,-36.6821,106.7505,-93.0176,1,466,0,57
37809584,1168,-0.3926,-1.0615,3.4893,-12.6953,176.1474,-79.2236,1,466,0,57
37816522,1169,-0.5278,-1.1758,2.5029,20.5078,219.6655,-67.6880,1,466,0,57
37822554,1170,-0.7549,-1.1143,1.7817,40.6494,233.9477,-54.9316,1,466,0,57
37828565,1171,-1.0088,-0.6895,0.9180,88.5620,215.2099,-37.5366,1,466,0,57
37829968,1172,-1.0088,-0.6895,0.9180,88.5620,215.2099,-37.5366,1,484,0,57
37840558,1173,-0.7524,-0.2329,0.7476,103.0273,193.6035,-40.4053,1,466,0,58
37847529,1174,-0.5698,-0.0908,0.7793,102.4780,192.4438,-45.4102,1,466,0,58
37850963,1175,-0.4424,0.0112,0.7651,94.7876,197.2656,-52.0630,1,467,0,58
37854576,1176,-0.4072,0.0908,0.6821,80.5054,201.4160,-60.0586,1,512,0,58
37859581,1177,-0.4297,0.1392,0.5688,60.1196,199.2187,-68.1763,1,466,0,58
37865554,1178,-0.4458,0.1123,0.4873,33.5083,193.6645,-75.5615,1,466,0,58
37872522,1179,-0.4307,-0.0308,0.4829,6.4087,186.8286,-80.3223,1,466,0,58
37875927,1180,-0.3979,-0.2817,0.5576,-13.9770,181.2134,-80.2612,1,480,0,58
37879581,1181,-0.3706,-0.5830,0.6851,-25.8789,178.1006,-74.9512,1,466,0,58
37885543,1182,-0.3447,-0.8809,0.8364,-31.3110,177.7344,-63.9038,1,466,0,58
37891553,1183,-0.3145,-1.1411,0.9888,-30.7007,182.3120,-47.4243,1,466,0,58
37894579,1184,-0.2773,-1.3394,1.1284,-25.6348,190.0635,-26.0010,1,466,0,58
37901543,1185,-0.2227,-1.4590,1.2383,-18.6768,199.9512,-0.7935,1,466,0,58
37905955,1186,-0.1631,-1.4912,1.3003,-11.7798,213.0737,26.1841,1,472,0,58
37909580,1187,-0.1206,-1.4336,1.3130,-7.3242,225.0976,53.4058,1,466,0,58
37916529,1188,-0.0757,-1.3071,1.2847,-7.4463,234.2529,78.6133,1,466,0,58
37919581,1189,-0.0151,-1.1426,1.2251,-11.5356,243.1030,100.5859,1,466,0,58
37924939,1190,0.0420,-0.9614,1.1372,-18.0664,250.8545,119.1406,1,466,0,58
37929581,1191,0.0869,-0.7773,1.0264,-26.3672,255.8594,134.0332,1,466,0,58
37934583,1192,0.1221,-0.6025,0.9072,-35.4004,258.1787,145.6909,1,466,0,58
37939921,1193,0.1411,-0.4453,0.8013,-44.2505,257.0801,153.6865,1,466,0,58
37946526,1194,0.1484,-0.1938,0.7183,-58.1665,245.4223,160.5225,1,466,0,58
37950969,1195,0.1484,-0.1938,0.7183,-58.1665,245.4223,160.5225,1,482,0,58
37956556,1196,0.1787,-0.0132,0.8560,-64.4531,230.8349,157.1045,1,466,0,58
37959578,1197,0.1787,-0.0132,0.8560,-64.4531,230.8349,157.1045,1,466,0,58
37964584,1198,0.2095,0.0581,0.9985,-65.9180,225.4028,152.3438,1,466,0,58
37969581,1199,0.2544,0.1128,1.1724,-67.3218,222.4121,146.0571,1,466,0,58
37975568,1200,0.3237,0.1387,1.3525,-68.4814,223.8159,139.0381,1,466,0,58
37982538,1201,0.4443,0.1104,1.5952,-65.7349,240.4785,125.0000,1,466,0,58
37986980,1202,0.4414,0.0884,1.6284,-61.8286,248.5962,117.9809,1,470,0,58
37993524,1203,0.4199,0.0674,1.6426,-58.5937,252.9297,110.9619,1,466,0,58
37999554,1204,0.4258,0.0381,1.6743,-56.7017,256.1035,104.9805,1,466,0,58
38001963,1205,0.4595,-0.0010,1.7246,-55.3589,261.4746,99.9145,1,467,0,58
38004583,1206,0.4595,-0.0010,1.7246,-55.3589,261.4746,99.9145,1,467,0,58
38010542,1207,0.4976,-0.0649,1.8115,-52.3682,275.0854,91.1865,1,466,0,58
38017539,1208,0.5034,-0.0889,1.8457,-52.0019,281.7383,87.1582,1,466,0,58
38019940,1209,0.5034,-0.0889,1.8457,-52.0019,281.7383,87.1582,1,467,0,58
38025625,1210,0.5317,-0.1582,1.9199,-50.3540,296.5088,80.8716,1,466,0,58
38029578,1211,0.5317,-0.1582,1.9199,-50.3540,296.5088,80.8716,1,466,0,58
38034580,1212,0.5449,-0.1875,1.9429,-48.8892,304.9927,78.3081,1,471,0,58
38040019,1213,0.5479,-0.2241,1.9751,-45.7764,319.3970,74.3408,1,502,0,58
38045545,1214,0.5723,-0.2275,1.9702,-44.9219,326.2939,72.9370,1,466,0,58
38052542,1215,0.5415,-0.2817,1.9951,-51.0864,335.9375,71.1060,1,466,0,58
38058545,1216,0.5654,-0.3198,2.0151,-28.7476,325.5005,79.3457,1,466,0,58
38059953,1217,0.6240,-0.3101,1.9907,-35.3394,347.7173,60.7300,1,474,0,58
38070537,1218,0.7246,-0.4424,2.0522,-45.8984,357.2998,67.7490,1,466,0,59
38077536,1219,0.7520,-0.4746,2.0396,-46.5698,358.8257,76.0498,1,466,0,59
38083539,1220,0.7852,-0.4692,2.0044,-47.2412,363.7695,76.1108,1,466,0,59
38084948,1221,0.8169,-0.4395,1.9697,-48.5840,363.5254,80.5054,1,479,0,59
38089584,1222,0.8564,-0.4058,1.9463,-48.8281,364.9292,81.8481,1,466,0,59
38099040,1223,0.8950,-0.3789,1.9336,-52.1851,364.5630,84.6558,1,502,0,59
38101459,1224,0.9438,-0.3647,1.9277,-55.7861,363.4033,85.5713,1,495,0,59
38108544,1225,1.0122,-0.3599,1.9238,-58.2275,359.9243,87.0972,1,466,0,59
38112985,1226,1.1006,-0.3481,1.9131,-61.6455,356.8115,87.9517,1,483,0,59
38116347,1227,1.1924,-0.3228,1.8857,-64.8804,352.3559,88.8061,1,468,0,59
38119578,1228,1.2764,-0.2900,1.8369,-67.3218,346.3134,88.8672,1,466,0,59
38125993,1229,1.3560,-0.2583,1.7686,-69.0918,338.6230,88.2568,1,478,0,59
38136546,1230,1.5317,-0.2280,1.5825,-68.0542,318.1763,84.4726,1,467,0,60
38139584,1231,1.6289,-0.2178,1.4663,-65.3076,305.1147,81.8481,1,466,0,60
38145549,1232,1.7388,-0.1963,1.3354,-62.5610,291.1377,78.4912,1,466,0,60
38149577,1233,1.8540,-0.1587,1.1934,-59.5093,276.4282,73.6084,1,467,0,60
38155559,1234,1.9761,-0.0967,1.0376,-55.5420,260.4370,67.2607,1,466,0,60
38161541,1235,2.1079,-0.0088,0.8628,-52.6123,244.2016,59.4482,1,466,0,60
38164584,1236,2.2373,0.0947,0.6646,-51.7578,227.1118,50.2930,1,466,0,60
38169579,1237,2.3511,0.2002,0.4478,-51.9409,207.5806,39.6729,1,466,0,60
38174583,1238,2.4497,0.2891,0.2241,-53.3447,185.3638,28.3203,1,466,0,60
38179580,1239,2.5342,0.3408,0.0166,-55.0537,160.4614,17.0898,1,466,0,60
38184584,1240,2.6064,0.3496,-0.1470,-56.5796,132.8125,7.1411,1,466,0,60
38189585,1241,2.6733,0.3154,-0.2485,-57.0679,102.3559,-0.3052,1,467,0,60
38194582,1242,2.7397,0.2334,-0.2812,-54.4434,69.6411,-4.5166,1,466,0,60
38199581,1243,2.7998,0.1206,-0.2568,-45.5933,36.8652,-5.3101,1,466,0,60
38204583,1244,2.8325,0.0215,-0.1978,-30.2734,5.4932,-3.1738,1,466,0,60
38210553,1245,2.8213,-0.0298,-0.1167,-12.2070,-24.5361,0.4883,1,466,0,60
38215985,1246,2.7705,-0.0376,-0.0176,4.5776,-52.5513,4.6997,1,483,0,60
38221539,1247,2.6904,-0.0645,0.0806,19.1040,-77.6367,9.2773,1,466,0,60
38224581,1248,2.5513,-0.2451,-0.1909,35.7666,-116.7602,11.9629,1,466,0,60
38229581,1249,1.6880,0.0015,-1.1787,100.6470,-275.0244,22.2168,1,466,0,60
38236532,1250,0.0684,0.3687,-1.7207,123.9014,-394.4702,3.6621,1,467,0,60
38239578,1251,-0.9839,-0.0645,-0.7500,7.9956,-353.8818,-2.4414,1,466,0,60
38246541,1252,-1.4121,-0.8755,0.7959,-62.0117,-309.3262,1.1597,1,466,0,60
38251963,1253,-1.9326,-1.3628,1.4990,63.0493,-413.5742,7.8125,1,481,0,60
38255380,1254,-1.9326,-1.3628,1.4990,63.0493,-413.5742,7.8125,1,495,0,60
38261546,1255,0.7827,-0.2461,0.0122,62.0117,-433.7158,22.2778,1,466,0,60
38264577,1256,0.7827,-0.2461,0.0122,62.0117,-433.7158,22.2778,1,466,0,60
38270550,1257,1.5410,0.2500,-0.3535,31.7993,-378.4790,31.4941,1,466,0,60
38276634,1258,0.8628,0.7622,1.2251,-31.1279,-401.5503,25.3906,1,466,0,60
38282542,1259,0.7827,0.8306,2.7856,-25.0854,-386.8408,8.9722,1,466,0,60
38288553,1260,1.0542,1.0229,3.9766,-4.3945,-347.2290,-7.8735,1,466,0,60
38289934,1261,1.0542,1.0229,3.9766,-4.3945,-347.2290,-7.8735,1,470,0,60
38300546,1262,1.4365,1.3296,3.9009,13.4277,-234.5581,-59.3262,1,466,0,61
38307548,1263,0.8525,0.5020,2.4199,-14.8315,-171.3257,-83.8623,1,466,0,61
38309976,1264,0.8525,0.5020,2.4199,-14.8315,-171.3257,-83.8623,1,472,0,61
38316518,1265,0.2158,-1.3257,1.8252,-23.7427,-148.9258,-73.6084,1,466,0,61
38323538,1266,0.1968,-2.3066,2.1113,-1.8311,-143.6157,-43.3960,1,466,0,61
38324931,1267,0.1968,-2.3066,2.1113,-1.8311,-143.6157,-43.3960,1,472,0,61
38332349,1268,0.9873,-2.4961,2.5889,71.5942,-79.4067,16.2964,1,468,0,61
38336606,1269,0.9443,-1.6548,2.1597,100.0976,-45.4102,32.7148,1,466,0,61
38343525,1270,0.4897,-0.5562,1.5645,131.9580,-28.8086,30.8838,1,466,0,61
38344924,1271,0.4897,-0.5562,1.5645,131.9580,-28.8086,30.8838,1,480,0,61
38355538,1272,-0.0820,0.4961,1.4414,74.9512,-29.9072,12.2681,1,466,0,62
38359962,1273,-0.0820,0.4961,1.4414,74.9512,-29.9072,12.2681,1,482,0,62
38364576,1274,0.1182,0.1104,1.6040,64.8193,-19.6533,6.7749,1,466,0,62
38371540,1275,0.0967,-0.4712,1.2285,69.8853,-11.4136,8.0566,1,466,0,62
38376961,1276,-0.0503,-0.3911,1.0352,78.1250,-14.4653,8.1177,1,467,0,62
38379584,1277,-0.0503,-0.3911,1.0352,78.1250,-14.4653,8.1177,1,466,0,62
38384580,1278,-0.1167,-0.1167,1.0762,78.9185,-22.9492,6.8970,1,466,0,62
38389584,1279,0.0122,0.4287,1.4263,49.1333,-17.9443,-1.6479,1,466,0,62
38394580,1280,0.0356,0.4238,1.4106,26.0620,-12.2681,-5.7983,1,484,0,62
38400554,1281,0.0244,0.2036,1.2666,5.8594,-7.8125,-8.6060,1,466,0,62
38407520,1282,-0.0054,-0.0718,1.1270,-3.0518,-5.5542,-9.6436,1,466,0,62
38413553,1283,-0.0396,-0.3086,1.1611,0.3052,-8.7891,-8.5449,1,466,0,62
38414902,1284,-0.0415,-0.2417,1.1860,44.7998,-12.0239,-5.0049,1,479,0,62
38419583,1285,-0.0713,-0.0127,1.1099,37.2314,-10.4370,3.9673,1,466,0,62
38430003,1286,-0.0239,0.0088,0.9092,-11.1694,-9.3994,-8.0566,1,466,0,63
38435405,1287,-0.0117,-0.1489,0.9873,-32.3486,-6.4697,-11.0474,1,493,0,63
38439577,1288,-0.0083,-0.2437,1.1011,13.1836,-10.3149,-12.9395,1,467,0,63
38445540,1289,-0.0229,-0.2065,1.1431,7.0801,-7.4463,-0.3052,1,466,0,63
38451616,1290,-0.0029,-0.1538,1.1138,29.1748,-15.8691,-1.2207,1,466,0,63
38455981,1291,0.0244,-0.0830,1.0024,0.4272,-4.8828,-9.9487,1,466,0,63
38460342,1292,-0.0142,-0.1357,1.0288,-16.0522,-5.5542,-11.2305,1,466,0,63
38469531,1293,-0.0410,-0.1753,1.0654,21.5454,-13.3057,-3.6011,1,466,0,63
38475568,1294,-0.0186,-0.1392,1.0273,9.8877,-10.1318,-5.0049,1,466,0,64
38479961,1295,-0.0112,-0.1431,1.0356,5.5542,-9.3994,-5.4932,1,467,0,64
38484583,1296,-0.0063,-0.1470,1.0415,12.6343,-9.7046,-5.8594,1,466,0,64
38489579,1297,-0.0093,-0.1392,1.0439,13.4888,-8.6060,-5.6763,1,466,0,64
38494579,1298,-0.0151,-0.1318,1.0430,10.1318,-7.8125,-4.9438,1,466,0,64
38501544,1299,-0.0210,-0.1367,1.0420,12.2070,-8.2397,-5.1270,1,466,0,64
38507549,1300,-0.0215,-0.1392,1.0386,15.4419,-9.5825,-4.2725,1,466,0,64
38514539,1301,-0.0054,-0.1270,1.0371,11.1694,-8.4839,-4.7607,1,473,0,64
38520550,1302,0.0020,-0.1240,1.0439,11.6577,-8.1787,-5.3711,1,467,0,65
38527517,1303,-0.0015,-0.1152,1.0415,11.5967,-7.6904,-5.4321,1,467,0,65
38530656,1304,-0.0015,-0.1152,1.0415,11.5967,-7.6904,-5.4321,1,466,0,65
38534579,1305,-0.0005,-0.1094,1.0396,10.6812,-7.8735,-5.3101,1,466,0,65
38541522,1306,0.0034,-0.1050,1.0361,8.3618,-7.3853,-5.3711,1,466,0,65
38546915,1307,0.0063,-0.1074,1.0337,6.2256,-6.3477,-5.6152,1,467,0,65
38552563,1308,0.0024,-0.1196,1.0337,6.1646,-5.0049,-6.0425,1,466,0,65
38558610,1309,-0.0015,-0.1235,1.0303,7.4463,-4.5776,-5.9814,1,466,0,65
38564555,1310,-0.0020,-0.1240,1.0264,8.6670,-4.2725,-6.0425,1,466,0,65
38565896,1311,-0.0020,-0.1240,1.0264,8.6670,-4.2725,-6.0425,1,483,0,65
38572246,1312,-0.0054,-0.1240,1.0176,10.0098,-2.2583,-6.3477,1,515,0,65
38574582,1313,-0.0054,-0.1240,1.0176,10.0098,-2.2583,-6.3477,1,477,0,65
38580547,1314,-0.0142,-0.1270,1.0088,10.8643,-1.5869,-6.2866,1,466,0,65
38584938,1315,-0.0225,-0.1294,1.0044,12.2681,-1.4038,-5.9814,1,466,0,65
38589580,1316,-0.0234,-0.1289,1.0063,13.5498,-1.3428,-5.3101,1,466,0,65
38594583,1317,-0.0122,-0.1255,1.0117,13.1836,-0.3662,-4.5166,1,466,0,65
38601519,1318,0.0039,-0.1167,1.0146,8.9722,3.9673,-4.1504,1,466,0,65
38608539,1319,-0.0039,-0.1191,1.0132,7.6294,5.0049,-4.3945,1,466,0,65
38613931,1320,-0.0083,-0.1250,1.0156,7.2021,5.3101,-4.5776,1,470,0,65
38617303,1321,-0.0078,-0.1260,1.0156,7.5684,6.2866,-4.5776,1,491,0,65
38622538,1322,-0.0132,-0.1226,1.0127,7.0801,6.8359,-4.7607,1,466,0,65
38628617,1323,-0.0166,-0.1182,1.0127,6.3477,6.4087,-5.0049,1,466,0,65
38634576,1324,-0.0137,-0.1152,1.0171,6.0425,6.4087,-4.8218,1,484,0,66
38639578,1325,-0.0107,-0.1113,1.0210,5.4932,6.4087,-4.6387,1,467,0,66
38645615,1326,-0.0122,-0.1079,1.0254,4.5166,5.7983,-3.9673,1,466,0,66
38649582,1327,-0.0122,-0.1079,1.0254,4.5166,5.7983,-3.9673,1,466,0,66
38654578,1328,-0.0137,-0.1089,1.0220,4.5166,5.7373,-3.9062,1,466,0,66
38659576,1329,-0.0195,-0.1099,1.0137,4.5776,5.7983,-3.7842,1,466,0,66
38664577,1330,-0.0312,-0.1138,1.0039,4.8828,5.1880,-3.6011,1,466,0,66
38669990,1331,-0.0469,-0.1182,0.9971,5.5542,4.2114,-3.8452,1,477,0,66
38674582,1332,-0.0601,-0.1196,0.9941,6.2256,2.4414,-4.0894,1,466,0,66
38679580,1333,-0.0640,-0.1187,0.9941,6.7139,0.7324,-4.1504,1,466,0,66
38686541,1334,-0.0615,-0.1074,1.0015,7.2021,-3.0518,-5.0659,1,466,0,66
38692546,1335,-0.0508,-0.1030,1.0093,7.0190,-4.6997,-5.4932,1,466,0,66
38698556,1336,-0.0410,-0.1030,1.0171,6.7139,-6.1035,-5.6763,1,466,0,66
38699907,1337,-0.0381,-0.1030,1.0190,6.4697,-7.3242,-5.6763,1,471,0,66
38706252,1338,-0.0376,-0.1011,1.0171,6.3477,-8.7280,-5.9204,1,533,0,66
38709581,1339,-0.0347,-0.0972,1.0176,6.0425,-10.1929,-6.1646,1,466,0,66
38714577,1340,-0.0342,-0.0898,1.0186,5.4932,-11.2915,-6.3477,1,466,0,66
38719580,1341,-0.0371,-0.0845,1.0186,4.8218,-13.1226,-6.5308,1,467,0,66
38725566,1342,-0.0327,-0.0835,1.0205,4.3945,-15.0757,-6.5918,1,466,0,66
38729576,1343,-0.0225,-0.0835,1.0225,3.9062,-16.2354,-6.7139,1,467,0,66
38734583,1344,-0.0220,-0.0884,1.0269,3.7842,-17.2729,-6.8970,1,466,0,66
38741534,1345,-0.0210,-0.0884,1.0259,5.7983,-19.4092,-6.2256,1,466,0,66
38746924,1346,-0.0234,-0.0791,1.0181,6.1646,-19.3481,-7.6294,1,477,0,66
38753526,1347,-0.0190,-0.0752,1.0161,3.1128,-21.9727,-6.7749,1,467,0,66
38759041,1348,-0.0176,-0.0928,1.0366,2.2583,-23.3154,-7.6904,1,497,0,66
38763343,1349,-0.0176,-0.0928,1.0366,2.2583,-23.3154,-7.6904,1,468,0,66
38764646,1350,-0.0239,-0.0967,1.0361,3.6011,-24.9023,-8.1177,1,466,0,66
38770547,1351,-0.0181,-0.0986,1.0278,2.9907,-26.5503,-8.4229,1,466,0,66
38775947,1352,-0.0308,-0.0923,1.0215,3.9673,-25.9399,-9.5825,1,475,0,66
38780343,1353,-0.0479,-0.0884,1.0176,4.0283,-30.2734,-9.9487,1,468,0,66
38785561,1354,-0.0474,-0.0942,1.0186,3.4790,-30.3345,-10.8032,1,466,0,66
38789581,1355,-0.0513,-0.0962,1.0254,4.1504,-33.2031,-10.8643,1,466,0,66
38795540,1356,-0.0386,-0.0918,1.0308,4.4556,-35.8887,-10.9253,1,466,0,66
38802539,1357,-0.0225,-0.0850,1.0352,3.8452,-36.6821,-11.2915,1,467,0,66
38806953,1358,-0.0146,-0.0801,1.0366,3.1738,-37.9639,-11.0474,1,468,0,66
38812539,1359,-0.0122,-0.0781,1.0376,2.9297,-38.5132,-10.8032,1,466,0,66
38818550,1360,-0.0039,-0.0894,1.0435,1.3428,-41.6260,-10.6201,1,466,0,66
38820939,1361,-0.0039,-0.0894,1.0435,1.3428,-41.6260,-10.6201,1,482,0,66
38826546,1362,-0.0220,-0.0918,1.0459,1.0986,-44.4946,-10.3149,1,466,0,66
38832557,1363,-0.0508,-0.0859,1.0459,0.3052,-48.7061,-10.0708,1,466,0,66
38834936,1364,-0.0806,-0.0811,1.0479,-0.9155,-53.8940,-9.8877,1,467,0,66
38839584,1365,-0.1157,-0.0825,1.0542,-2.9297,-60.9131,-11.4136,1,467,0,66
38844917,1366,-0.1562,-0.0679,1.0645,-4.7607,-71.7163,-14.4653,1,482,0,66
38850383,1367,-0.2217,-0.0366,1.0762,-8.7280,-84.5947,-19.7144,1,496,0,66
38856544,1368,-0.4302,0.0005,1.1152,-16.1133,-102.0508,-28.8696,1,466,0,66
38861973,1369,-0.7656,0.0508,1.2095,-29.4189,-150.9399,-43.0908,1,471,0,66
38867559,1370,-1.0796,0.0820,1.3813,-76.5991,-296.9971,-75.4395,1,467,0,66
38872989,1371,-1.1504,0.0537,1.4370,-96.2524,-359.8633,-92.1631,1,477,0,66
38876386,1372,-1.1504,0.0537,1.4370,-96.2524,-359.8633,-92.1631,1,496,0,66
38882545,1373,-1.1323,-0.0972,1.6265,-121.0327,-483.8257,-116.8823,1,466,0,66
38885898,1374,-1.1323,-0.0972,1.6265,-121.0327,-483.8257,-116.8823,1,481,0,66
38889576,1375,-0.8872,-0.1689,1.6499,-110.7178,-524.1699,-118.0420,1,466,0,66
38894583,1376,-0.5757,-0.1011,1.5942,-105.7129,-549.8657,-127.7466,1,466,0,66
38899576,1377,-0.3379,0.0864,1.4888,-122.6196,-564.3311,-142.1509,1,466,0,66
38904576,1378,-0.2939,0.1357,1.3818,-151.4893,-565.7349,-156.3110,1,466,0,66
38909583,1379,-0.3384,-0.0093,1.2979,-165.1611,-576.5381,-166.1377,1,467,0,66
38916519,1380,-0.1514,-0.2031,0.8413,-149.4751,-612.4268,-186.8896,1,466,0,66
38922552,1381,0.0220,-0.3569,0.5127,-140.5029,-603.4546,-194.0918,1,466,0,66
38929519,1382,0.1211,-0.5347,0.3330,-104.1870,-570.2515,-201.0498,1,466,0,66
38935552,1383,0.0918,-0.5752,0.4014,-54.0161,-541.6260,-200.2563,1,466,0,67
38942520,1384,0.8125,-0.6592,1.9277,-22.4609,-589.2334,-164.4897,1,466,0,67
38948552,1385,2.2856,-1.7593,3.6167,-107.7881,-459.0454,-133.1177,1,466,0,67
38954533,1386,2.2871,-2.8594,5.2837,-138.1836,-94.6045,-133.5449,1,466,0,67
38955942,1387,0.7012,-2.7769,5.6338,-30.7617,19.5923,-85.0830,1,479,0,67
38966557,1388,-1.2144,-1.3848,2.6333,-12.1460,145.6299,-31.5552,1,466,0,68
38969578,1389,-1.2144,-1.3848,2.6333,-12.1460,145.6299,-31.5552,1,466,0,68
38974580,1390,-1.5918,-0.9707,1.2891,5.7983,168.4570,-11.7798,1,466,0,68
38980536,1391,-1.5469,-0.4590,0.5337,8.9111,141.3574,4.0283,1,466,0,68
38984576,1392,-1.5469,-0.4590,0.5337,8.9111,141.3574,4.0283,1,466,0,68
38991531,1393,-1.0474,-0.1792,0.9390,26.7334,126.4038,7.9346,1,466,0,68
38994582,1394,-1.0474,-0.1792,0.9390,26.7334,126.4038,7.9346,1,484,0,68
39000554,1395,-0.7388,0.0889,1.2231,19.6533,152.1606,0.8545,1,466,0,68
39007524,1396,-0.6460,0.1567,1.2710,14.9536,172.5464,-4.3335,1,466,0,68
39014510,1397,-0.5806,0.1851,1.2378,10.1929,191.4062,-9.7046,1,466,0,68
39018922,1398,-0.5312,0.1802,1.1406,5.9814,206.5430,-14.8315,1,477,0,68
39024281,1399,-0.5000,0.1450,1.0195,3.2959,216.7358,-19.3481,1,492,0,68
39029545,1400,-0.4741,0.0845,0.9155,1.8921,220.7031,-22.2778,1,466,0,68
39030927,1401,-0.4297,0.0039,0.8530,0.9766,221.7407,-23.1934,1,471,0,68
39034576,1402,-0.3677,-0.0894,0.8364,0.9766,222.9004,-21.9116,1,466,0,68
39039581,1403,-0.3037,-0.1831,0.8584,2.5024,223.7549,-18.2495,1,466,0,68
39045537,1404,-0.2358,-0.2642,0.8950,5.1270,224.7925,-12.8784,1,466,0,68
39049584,1405,-0.1660,-0.3291,0.9253,6.8359,227.2339,-6.0425,1,466,0,68
39054582,1406,-0.1040,-0.3804,0.9458,6.5308,230.1025,1.9531,1,484,0,68
39059581,1407,-0.0552,-0.4258,0.9595,4.2114,232.1167,11.1084,1,466,0,68
39064581,1408,-0.0132,-0.4712,0.9688,0.4272,233.5815,21.3623,1,466,0,68
39070040,1409,0.0269,-0.5156,0.9746,-4.1504,234.9853,32.5928,1,497,0,68
39074582,1410,0.0620,-0.5513,0.9731,-8.8501,235.5957,44.4336,1,466,0,68
39080539,1411,0.0947,-0.5752,0.9683,-13.7329,234.7412,56.6406,1,466,0,68
39086621,1412,0.1323,-0.5908,0.9702,-17.9443,232.7270,69.0918,1,466,0,68
39093520,1413,0.1743,-0.5996,0.9829,-20.9351,230.0415,81.6040,1,466,0,68
39099552,1414,0.2456,-0.5830,1.0337,-23.0103,222.9004,105.6518,1,466,0,68
39101910,1415,0.2456,-0.5830,1.0337,-23.0103,222.9004,105.6518,1,467,0,68
39105227,1416,0.2812,-0.5513,1.0645,-22.7051,220.1538,116.1499,1,497,0,68
39109576,1417,0.3159,-0.5010,1.0986,-22.0337,218.2007,125.1221,1,466,0,68
39115546,1418,0.3462,-0.4370,1.1377,-21.3623,215.8203,132.1411,1,466,0,68
39121555,1419,0.3823,-0.3774,1.1831,-21.0571,213.8061,137.0239,1,466,0,68
39127537,1420,0.4229,-0.3325,1.2314,-20.3857,213.0127,139.9536,1,466,0,68
39133549,1421,0.4976,-0.2886,1.3164,-18.0664,212.4634,141.4795,1,466,0,68
39134950,1422,0.4976,-0.2886,1.3164,-18.0664,212.4634,141.4795,1,470,0,68
39139583,1423,0.5308,-0.2949,1.3535,-17.4561,212.5854,141.1743,1,466,0,68
39149019,1424,0.6016,-0.3740,1.4370,-15.3198,214.4775,141.2964,1,495,0,68
39151338,1425,0.6016,-0.3740,1.4370,-15.3198,214.4775,141.2964,1,471,0,68
39154578,1426,0.6426,-0.4253,1.4766,-14.0991,216.3086,142.2729,1,466,0,68
39160625,1427,0.6890,-0.4692,1.5049,-12.8174,218.0176,143.9209,1,466,0,68
39167527,1428,0.7949,-0.5278,1.5127,-12.2070,223.1445,148.0103,1,466,0,68
39171937,1429,0.7949,-0.5278,1.5127,-12.2070,223.1445,148.0103,1,481,0,68
39177554,1430,0.9106,-0.5474,1.4062,-12.6953,226.1963,151.5503,1,466,0,68
39180000,1431,0.9106,-0.5474,1.4062,-12.6953,226.1963,151.5503,1,466,0,68
39184584,1432,0.9468,-0.5405,1.3223,-15.1367,223.8159,152.1606,1,466,0,68
39190554,1433,0.9795,-0.5410,1.2563,-19.7144,218.8110,152.5879,1,466,0,68
39194579,1434,1.0181,-0.5562,1.2236,-25.1465,212.9516,153.0762,1,466,0,68
39199577,1435,1.0571,-0.5776,1.2188,-30.6396,207.3974,154.0527,1,466,0,68
39204580,1436,1.0898,-0.6006,1.2358,-35.5835,202.2095,155.0903,1,466,0,68
39210546,1437,1.1191,-0.6245,1.2744,-39.7339,197.2046,156.6772,1,466,0,68
39216556,1438,1.1514,-0.6421,1.3286,-42.3584,192.9931,159.1187,1,467,0,68
39222539,1439,1.2139,-0.6616,1.4258,-43.8232,188.5986,166.1377,1,466,0,68
39226929,1440,1.2397,-0.6523,1.4512,-40.4053,186.8896,170.4101,1,468,0,68
39233533,1441,1.2612,-0.6118,1.4468,-35.0952,186.0351,174.4385,1,466,0,68
39236059,1442,1.2612,-0.6118,1.4468,-35.0952,186.0351,174.4385,1,494,0,68
39239579,1443,1.2739,-0.5425,1.4062,-28.9307,185.4858,177.6733,1,466,0,68
39244582,1444,1.2847,-0.4604,1.3296,-21.6064,183.5937,179.7485,1,466,0,68
39249581,1445,1.2979,-0.3794,1.2095,-13.7329,180.5420,180.7251,1,466,0,68
39255557,1446,1.2861,-0.3076,1.0527,-6.2256,175.0488,180.4199,1,466,0,68
39259583,1447,1.2480,-0.2681,0.9087,-1.2817,163.3301,179.7485,1,466,0,68
39265537,1448,1.2241,-0.2847,0.8354,1.8311,148.6816,179.5044,1,467,0,68
39270966,1449,1.2510,-0.4004,0.8867,12.3291,124.4507,179.1992,1,475,0,68
39274582,1450,1.2510,-0.4004,0.8867,12.3291,124.4507,179.1992,1,466,0,68
39280550,1451,1.2632,-0.4395,0.9272,18.4937,116.6382,178.5278,1,466,0,68
39284582,1452,1.2573,-0.4595,0.9385,23.2544,110.8398,177.3071,1,466,0,68
39290529,1453,1.2339,-0.4663,0.9160,25.9399,105.4687,175.5981,1,466,0,68
39295992,1454,1.1665,-0.4478,0.7915,24.3530,93.6279,170.4101,1,471,0,68
39299577,1455,1.1665,-0.4478,0.7915,24.3530,93.6279,170.4101,1,467,0,68
39304580,1456,1.1396,-0.4346,0.7158,20.8740,86.3647,166.6260,1,466,0,68
39310028,1457,1.1196,-0.4263,0.6445,16.1133,78.0640,162.5366,1,507,0,68
39315553,1458,1.0801,-0.4243,0.5273,1.0986,56.9458,154.2358,1,466,0,68
39321538,1459,1.0640,-0.4248,0.4951,-7.9346,44.2505,150.3296,1,466,0,68
39327547,1460,1.0552,-0.4243,0.4912,-16.1133,31.2500,146.8506,1,466,0,68
39331970,1461,1.0547,-0.4219,0.5137,-22.2168,19.5923,143.8599,1,471,0,68
39337402,1462,1.0635,-0.4141,0.5488,-25.2075,9.4604,140.7471,1,494,0,68
39339727,1463,1.0635,-0.4141,0.5488,-25.2075,9.4604,140.7471,1,466,0,68
39346508,1464,1.0815,-0.3423,0.5605,-22.4609,-7.3853,134.1553,1,466,0,68
39350923,1465,1.0762,-0.2744,0.5254,-20.0806,-16.8457,130.4932,1,474,0,68
39356610,1466,1.0654,-0.2134,0.4927,-18.0664,-26.7334,126.7090,1,466,0,68
39359581,1467,1.0522,-0.1729,0.4868,-15.7471,-36.5601,122.4976,1,466,0,68
39365541,1468,1.0444,-0.1519,0.5181,-12.1460,-45.7153,117.9809,1,466,0,68
39372509,1469,1.2300,0.1616,0.4717,-6.0425,-58.4106,112.7319,1,466,0,68
39374579,1470,1.3154,1.0239,0.0273,20.4468,-103.1494,82.8247,1,466,0,68
39380555,1471,0.9336,1.0703,-0.5493,-33.5083,-167.5415,37.6587,1,466,0,68
39384578,1472,0.2681,-0.2280,-0.3887,-149.2920,-168.5791,28.2593,1,466,0,68
39389577,1473,-0.2847,-1.1104,0.5757,-104.6753,-158.6304,37.1094,1,466,0,68
39394576,1474,-0.5327,-0.9233,1.4546,-17.5781,-174.8047,31.8603,1,466,0,68
39400545,1475,-0.6680,-0.5117,1.8213,-48.7061,-160.7666,28.7476,1,466,0,68
39407514,1476,-0.6128,-0.3989,1.8135,-55.7251,-158.0811,32.4097,1,466,0,68
39409916,1477,-0.3545,-0.3535,1.4546,-19.0430,-159.4849,30.7007,1,480,0,68
39414583,1478,-0.1396,-0.1157,0.9473,-8.8501,-156.6162,28.5034,1,484,0,68
39420533,1479,-0.0498,0.1777,0.6157,-6.1646,-164.9170,22.8882,1,466,0,68
39424578,1480,0.0073,0.2900,0.6304,-8.3008,-176.1474,18.9819,1,466,0,68
39429579,1481,0.0757,0.2197,0.9741,-17.2729,-174.9267,15.6250,1,466,0,68
39435550,1482,0.1377,0.1182,1.4438,-16.6016,-166.9922,12.0850,1,466,0,68
39439576,1483,0.1748,0.0723,1.7554,-10.7422,-152.8320,7.9346,1,466,0,68
39445529,1484,0.1665,0.0796,1.7886,-8.7280,-136.4136,3.1128,1,466,0,68
39449920,1485,0.1440,0.1353,1.6348,-10.4370,-125.6103,-1.4038,1,475,0,68
39455536,1486,0.1284,0.2192,1.4404,-15.5640,-116.6382,-6.7749,1,466,0,68
39459583,1487,0.0874,0.2603,1.3086,-22.8882,-108.7036,-12.8174,1,466,0,68
39465547,1488,0.0327,0.2373,1.2646,-26.6113,-104.6143,-18.4326,1,466,0,68
39471528,1489,-0.0015,0.1890,1.2544,-29.6631,-100.9521,-24.2310,1,466,0,68
39475897,1490,-0.0054,0.1235,1.2310,-36.4990,-98.2666,-28.6255,1,477,0,68
39479583,1491,0.0127,0.0386,1.1816,-42.1143,-95.4590,-31.1279,1,466,0,68
39484581,1492,0.0283,-0.0444,1.1030,-44.8608,-92.3462,-33.2031,1,466,0,68
39490540,1493,0.0195,-0.0972,1.0083,-46.3257,-90.5151,-34.9121,1,466,0,68
39494584,1494,-0.0254,-0.1348,0.9277,-47.8516,-90.8813,-36.4380,1,466,0,68
39499581,1495,-0.2856,-0.6240,1.0713,-52.6123,-88.6841,-35.8887,1,466,0,68
39504577,1496,-0.0054,-1.4009,1.8384,-58.3496,-110.3516,-6.3477,1,466,0,68
39510530,1497,0.8086,-1.7178,2.6592,-20.3247,-66.5283,6.4697,1,466,0,68
39516541,1498,1.0405,-1.3813,2.6133,29.7241,-6.8970,14.1602,1,466,0,68
39522555,1499,0.0952,0.0005,1.2168,46.4478,23.3765,13.8550,1,466,0,68
39528535,1500,-0.2710,0.2568,0.9180,31.4941,15.4419,12.4512,1,466,0,68
39530945,1501,-0.2710,0.2568,0.9180,31.4941,15.4419,12.4512,1,472,0,68
39534582,1502,-0.2944,0.1968,0.9761,17.5171,10.3149,7.8735,1,486,0,68
39539584,1503,-0.1211,-0.0083,1.1484,7.0190,9.7656,4.2725,1,466,0,68
39545533,1504,0.0483,-0.2295,1.2441,1.4648,12.4512,2.2583,1,466,0,68
39549576,1505,0.1040,-0.3682,1.2188,4.0894,17.2119,4.3945,1,466,0,68
39554576,1506,0.0371,-0.3618,1.1255,11.9629,21.1792,7.3853,1,466,0,68
39559583,1507,-0.1138,-0.2671,1.0532,18.9209,20.9961,7.2632,1,466,0,68
39565552,1508,-0.1460,-0.2090,1.0659,17.8223,3.2349,20.9961,1,466,0,68
39569584,1509,-0.0718,-0.1899,1.0938,33.2031,8.7891,5.8594,1,466,0,68
39574980,1510,-0.0557,-0.1592,1.0859,43.0298,9.1553,6.3477,1,482,0,68
39579577,1511,-0.0532,-0.1143,1.0469,26.3672,7.5073,3.6011,1,466,0,68
39585541,1512,-0.0752,-0.1064,1.0132,10.7422,9.9487,0.1221,1,466,0,68
39589935,1513,-0.1040,-0.1504,1.0063,11.7798,5.4932,0.6104,1,482,0,68
39594579,1514,-0.0981,-0.1929,1.0015,13.4888,2.7466,0.6714,1,490,0,68
39599584,1515,-0.0796,-0.2188,1.0161,12.7563,2.3193,1.8311,1,466,0,68
39604577,1516,-0.0801,-0.2197,1.0312,19.5923,1.7700,2.6855,1,466,0,68
39609576,1517,-0.0942,-0.1934,1.0132,25.3906,-1.0986,4.3335,1,466,0,68
39616526,1518,-0.0840,-0.1567,0.9873,19.1650,-2.0752,3.4180,1,466,0,68
39623516,1519,-0.0664,-0.1768,1.0117,18.2495,-1.4038,3.0518,1,466,0,68
39624883,1520,-0.0664,-0.1768,1.0117,18.2495,-1.4038,3.0518,1,467,0,68
39635532,1521,-0.0879,-0.1890,1.0044,24.2310,-3.9673,4.4556,1,466,0,69
39641545,1522,-0.0962,-0.1782,0.9917,25.5127,-5.9814,4.9438,1,466,0,69
39644582,1523,-0.0962,-0.1782,0.9917,25.5127,-5.9814,4.9438,1,466,0,69
39649936,1524,-0.0889,-0.1792,0.9888,29.6020,-7.6904,4.5166,1,480,0,69
39654580,1525,-0.0786,-0.1802,0.9888,31.9824,-8.4229,4.0283,1,488,0,69
39659576,1526,-0.0732,-0.1777,1.0024,31.9214,-9.1553,3.4790,1,466,0,69
39664584,1527,-0.0649,-0.1670,1.0312,33.2031,-10.0708,2.6245,1,466,0,69
39671518,1528,-0.0425,-0.1011,1.0757,29.6631,-10.5591,0.4272,1,466,0,69
39677554,1529,-0.0439,-0.0703,1.0752,23.0103,-9.5825,-1.4648,1,466,0,69
39679935,1530,-0.0537,-0.0713,1.0576,17.6392,-9.0942,-2.6245,1,480,0,69
39684584,1531,-0.0635,-0.1035,1.0376,15.3809,-9.3994,-3.1128,1,466,0,69
39690555,1532,-0.0620,-0.1338,1.0249,15.8081,-10.3149,-2.7466,1,466,0,69
39694576,1533,-0.0576,-0.1343,1.0210,17.1509,-9.8267,-2.6245,1,466,0,69
39699577,1534,-0.0640,-0.1138,1.0186,16.9678,-10.3760,-2.4414,1,466,0,69
39704577,1535,-0.0723,-0.0923,1.0244,15.9302,-11.4746,-2.5024,1,467,0,69
39709584,1536,-0.0674,-0.0859,1.0352,14.5874,-12.5732,-2.6245,1,466,0,69
39714584,1537,-0.0566,-0.1025,1.0312,13.4277,-11.2915,-2.2583,1,470,0,69
39720553,1538,-0.0542,-0.1260,1.0190,12.9395,-10.9863,-1.2207,1,466,0,69
39725981,1539,-0.0527,-0.1323,1.0132,12.8784,-10.1318,-0.3662,1,480,0,69
39731325,1540,-0.0518,-0.1216,1.0127,12.0239,-9.3384,0.3662,1,468,0,69
39736543,1541,-0.0527,-0.1123,1.0054,9.7656,-7.6904,0.4272,1,466,0,69
39741943,1542,-0.0610,-0.1152,0.9907,7.4463,-6.3477,0.1831,1,473,0,69
39744578,1543,-0.0723,-0.1226,0.9824,6.2866,-6.2866,-0.3052,1,466,0,69
39749581,1544,-0.0703,-0.1279,0.9946,5.9814,-7.0190,-0.7935,1,466,0,69
39754974,1545,-0.0532,-0.1313,1.0186,5.9204,-6.8359,-1.1597,1,467,0,69
39759582,1546,-0.0396,-0.1309,1.0308,5.4932,-5.6152,-1.2817,1,467,0,69
39764578,1547,-0.0400,-0.1294,1.0269,4.7607,-5.3101,-1.4038,1,466,0,69
39769577,1548,-0.0420,-0.1313,1.0244,3.9062,-5.3711,-1.4038,1,466,0,69
39774581,1549,-0.0366,-0.1299,1.0347,3.5400,-4.8218,-1.4648,1,488,0,69
39779582,1550,-0.0298,-0.1245,1.0444,2.8076,-3.9062,-1.7090,1,466,0,69
39784911,1551,-0.0312,-0.1250,1.0405,2.0752,-2.9297,-1.7700,1,482,0,69
39789578,1552,-0.0381,-0.1299,1.0308,1.9531,-2.6245,-1.7090,1,467,0,69
39796517,1553,-0.0410,-0.1323,1.0273,1.8921,-2.5635,-1.8311,1,466,0,69
39803508,1554,-0.0459,-0.1221,1.0225,1.8311,-2.1973,-2.2583,1,466,0,69
39809541,1555,-0.0479,-0.1201,1.0215,1.7090,-2.6245,-2.1973,1,466,0,69
39815553,1556,-0.0439,-0.1245,1.0229,1.5259,-2.6245,-2.1973,1,466,0,70
39819944,1557,-0.0386,-0.1284,1.0269,1.8921,-2.1362,-2.0752,1,471,0,70
39824578,1558,-0.0342,-0.1284,1.0303,2.0142,-1.7090,-1.9531,1,466,0,70
39829579,1559,-0.0317,-0.1265,1.0312,1.8311,-1.0376,-1.6479,1,466,0,70
39834576,1560,-0.0342,-0.1245,1.0303,1.7700,-0.3662,-1.3428,1,488,0,70
39840545,1561,-0.0361,-0.1230,1.0283,1.4038,-0.0610,-1.0376,1,466,0,70
39847512,1562,-0.0356,-0.1270,1.0254,1.1597,0.7935,-0.5493,1,466,0,70
39852903,1563,-0.0366,-0.1255,1.0249,1.0376,1.2207,-0.6714,1,468,0,70
39858292,1564,-0.0356,-0.1226,1.0249,0.5493,0.9766,-0.3662,1,489,0,70
39863556,1565,-0.0356,-0.1211,1.0259,0.2441,1.8311,-0.4272,1,466,0,70
39864906,1566,-0.0356,-0.1211,1.0259,0.2441,1.8311,-0.4272,1,466,0,70
39871248,1567,-0.0391,-0.1196,1.0249,-0.0610,1.7700,-0.3052,1,534,0,70
39874582,1568,-0.0474,-0.1206,1.0186,-0.3052,1.7700,-0.5493,1,466,0,70
39880553,1569,-0.0557,-0.1265,1.0137,-0.6714,0.3662,-0.6714,1,466,0,70
39887520,1570,-0.0479,-0.1382,1.0171,0.1221,-0.3662,-1.1597,1,466,0,70
39894542,1571,-0.0439,-0.1411,1.0186,0.9155,-1.3428,-1.0376,1,469,0,70
39898924,1572,-0.0439,-0.1377,1.0200,2.0142,-1.6479,-1.0986,1,469,0,70
39904325,1573,-0.0430,-0.1343,1.0249,2.5635,-1.8311,-0.8545,1,469,0,70
39907683,1574,-0.0352,-0.1284,1.0322,3.1128,-1.7090,-0.4883,1,466,0,70
39913543,1575,-0.0308,-0.1260,1.0347,3.2959,-0.9155,-0.3662,1,466,0,70
39914888,1576,-0.0308,-0.1260,1.0347,3.2959,-0.9155,-0.3662,1,483,0,70
39925536,1577,-0.0342,-0.1240,1.0303,3.6621,-0.2441,0.2441,1,466,0,71
39931548,1578,-0.0420,-0.1230,1.0186,3.6621,0.1221,0.4883,1,466,0,71
39934585,1579,-0.0420,-0.1230,1.0186,3.6621,0.1221,0.4883,1,466,0,71
39939878,1580,-0.0454,-0.1250,1.0171,3.8452,0.1221,0.5493,1,470,0,71
39944581,1581,-0.0483,-0.1260,1.0161,4.1504,-0.3662,0.5493,1,466,0,71
39950530,1582,-0.0474,-0.1265,1.0137,4.4556,-0.1831,0.7324,1,466,0,71
39956543,1583,-0.0454,-0.1274,1.0151,4.6387,-0.1831,0.6714,1,466,0,71
39961941,1584,-0.0444,-0.1304,1.0176,4.9438,-0.1831,0.6714,1,473,0,71
39964577,1585,-0.0444,-0.1304,1.0176,4.9438,-0.1831,0.6714,1,466,0,71
39970550,1586,-0.0430,-0.1260,1.0181,5.6152,0.0610,0.8545,1,466,0,71
39974583,1587,-0.0430,-0.1260,1.0181,5.6152,0.0610,0.8545,1,466,0,71
39979577,1588,-0.0425,-0.1221,1.0166,5.8594,0.3662,0.9766,1,466,0,71
39984577,1589,-0.0435,-0.1230,1.0171,5.8594,0.3052,1.0376,1,466,0,71
39990539,1590,-0.0513,-0.1265,1.0137,6.7749,-0.7935,0.6714,1,466,0,71
39996550,1591,-0.0483,-0.1250,1.0122,7.2021,-1.0376,0.6714,1,466,0,71
40003517,1592,-0.0439,-0.1221,1.0112,7.7515,-0.7324,0.8545,1,466,0,71
40007901,1593,-0.0479,-0.1206,1.0068,8.3618,-0.8545,0.6104,1,470,0,71
40012173,1594,-0.0552,-0.1177,1.0020,8.5449,-1.2207,0.6104,1,490,0,71
40014579,1595,-0.0557,-0.1138,1.0029,8.4229,-1.4038,0.4883,1,488,0,71
40019581,1596,-0.0522,-0.1128,1.0059,8.4839,-1.4038,0.6104,1,466,0,71
40024581,1597,-0.0518,-0.1108,1.0044,8.0566,-1.4648,0.5493,1,466,0,71
40030547,1598,-0.0581,-0.1079,0.9990,7.5684,-1.7700,0.3052,1,466,0,71
40034584,1599,-0.0645,-0.1069,0.9946,6.7749,-2.5635,-0.0610,1,466,0,71
40039974,1600,-0.0610,-0.1084,0.9951,6.1035,-3.4180,-0.0610,1,512,0,71
40045530,1601,-0.0547,-0.1099,0.9990,5.2490,-3.4180,-0.5493,1,467,0,71
40052528,1602,-0.0552,-0.1104,1.0010,4.6997,-3.9062,-0.8545,1,466,0,71
40059518,1603,-0.0615,-0.1118,0.9932,4.0283,-5.7373,-1.4038,1,466,0,71
40060880,1604,-0.0615,-0.1118,0.9932,4.0283,-5.7373,-1.4038,1,468,0,71
40068151,1605,-0.0664,-0.1074,0.9932,4.0894,-6.7139,-1.5259,1,491,0,71
40072534,1606,-0.0640,-0.1011,1.0010,3.5400,-7.9956,-1.5869,1,466,0,71
40077641,1607,-0.0562,-0.1035,1.0088,3.1128,-8.5449,-1.8921,1,466,0,71
40083527,1608,-0.0654,-0.0977,1.0005,3.3569,-10.6201,-1.9531,1,466,0,71
40085904,1609,-0.0654,-0.0977,1.0005,3.3569,-10.6201,-1.9531,1,467,0,71
40089581,1610,-0.0693,-0.1030,0.9976,2.6855,-12.3291,-1.8311,1,466,0,71
40095550,1611,-0.0708,-0.0996,0.9990,2.9297,-13.7939,-1.5869,1,466,0,71
40102515,1612,-0.0791,-0.0859,0.9995,2.5635,-15.9302,-1.5259,1,466,0,71
40104888,1613,-0.0962,-0.0830,0.9937,1.0986,-18.5547,-2.0142,1,482,0,71
40110532,1614,-0.1289,-0.0854,0.9819,0.9155,-21.7895,-2.9907,1,466,0,71
40117529,1615,-0.1655,-0.0815,0.9707,0.6104,-27.8320,-4.3335,1,466,0,71
40124518,1616,-0.1230,-0.0864,0.9912,-2.3193,-38.0859,-6.1035,1,466,0,71
40130551,1617,-0.1011,-0.0889,1.0000,-2.5635,-40.2222,-6.5918,1,466,0,72
40137518,1618,-0.1152,-0.0820,0.9990,-5.1270,-50.2319,-8.4839,1,466,0,72
40144507,1619,-0.0874,-0.1138,1.0244,-6.3477,-52.7954,-7.9346,1,466,0,72
40150543,1620,-0.0317,-0.1484,1.0532,-5.3711,-52.2461,-7.3242,1,466,0,73
40156552,1621,-0.0078,-0.1450,1.0552,-2.6855,-49.1333,-7.2021,1,466,0,73
40159582,1622,-0.0107,-0.1196,1.0415,-3.2959,-49.3774,-6.5918,1,466,0,73
40165525,1623,-0.0044,-0.1162,1.0420,-5.1270,-47.7905,-5.7373,1,466,0,73
40169582,1624,-0.0127,-0.1235,1.0479,-3.6621,-46.4478,-6.0425,1,466,0,73
40174583,1625,-0.0308,-0.1270,1.0430,-2.4414,-49.0723,-6.7139,1,466,0,73
40179584,1626,-0.0293,-0.1338,1.0366,-3.0518,-51.5747,-7.4463,1,466,0,73
40184579,1627,-0.0215,-0.1401,1.0361,-2.4414,-53.1006,-8.0566,1,466,0,73
40190549,1628,-0.0117,-0.1436,1.0386,-0.7324,-56.7627,-8.8501,1,466,0,73
40194576,1629,0.0112,-0.1470,1.0420,-0.2441,-59.9365,-10.1318,1,488,0,73
40200528,1630,-0.0039,-0.1455,1.0459,0.1221,-60.1807,-11.2305,1,466,0,73
40207527,1631,-0.0142,-0.1450,1.0474,1.5869,-75.7446,-10.1318,1,466,0,73
40210931,1632,-0.0142,-0.1450,1.0474,1.5869,-75.7446,-10.1318,1,482,0,73
40214584,1633,0.0459,-0.1450,1.0435,2.0752,-77.5757,-9.7046,1,466,0,73
40219577,1634,0.0752,-0.1445,1.0356,2.8076,-77.4536,-9.0332,1,466,0,73
40224577,1635,0.0688,-0.1499,1.0244,4.0283,-77.8809,-7.8735,1,466,0,73
40229577,1636,0.0537,-0.1777,1.0068,6.6528,-76.8433,-5.9814,1,466,0,73
40234578,1637,-0.0444,-0.2065,1.0127,11.2915,-70.3735,-4.2114,1,466,0,73
40240538,1638,-0.1196,-0.1729,1.0352,17.2119,-79.9561,-2.3193,1,466,0,73
40247503,1639,-0.1367,-0.1465,1.0938,25.6348,-80.6885,-5.5542,1,466,0,73
40250940,1640,-0.2339,-0.2051,1.1802,37.2925,-101.2573,-3.4180,1,472,0,73
40256525,1641,-0.2500,-0.3950,1.2705,45.4102,-122.1313,-1.9531,1,466,0,73
40260857,1642,-0.3887,-0.5605,1.3330,61.0352,-134.0942,-2.4414,1,467,0,73
40264582,1643,-0.3887,-0.5605,1.3330,61.0352,-134.0942,-2.4414,1,466,0,73
40270533,1644,-0.7495,-0.7183,1.5337,91.4307,-226.2573,-16.4795,1,466,0,73
40277501,1645,-0.4297,-0.8677,1.5928,121.0937,-256.1646,-21.4844,1,466,0,73
40283534,1646,-0.0029,-1.0444,1.6562,152.1606,-270.3857,-24.4141,1,466,0,73
40285882,1647,0.2124,-1.3115,1.7764,184.0820,-263.2446,-23.2544,1,467,0,73
40289579,1648,0.2124,-1.3115,1.7764,184.0820,-263.2446,-23.2544,1,466,0,73
40296513,1649,-0.3311,-1.5083,2.0005,286.3770,-281.1279,-8.3618,1,466,0,73
40300925,1650,-0.6812,-1.4263,1.8931,326.4160,-313.1714,-4.2725,1,467,0,73
40304578,1651,-0.6812,-1.4263,1.8931,326.4160,-313.1714,-4.2725,1,466,0,73
40309582,1652,-0.6250,-1.2861,1.6084,382.8735,-347.1679,3.5400,1,466,0,73
40315547,1653,-0.4248,-0.9902,0.9834,464.0503,-371.2768,16.7236,1,466,0,73
40321527,1654,-0.4287,-0.9517,0.8110,473.5107,-399.8413,18.1274,1,466,0,73
40324578,1655,-0.4336,-0.9927,0.7622,481.5063,-453.7964,22.8882,1,466,0,73
40330531,1656,-0.1934,-1.1089,0.7456,464.7827,-562.8052,34.0576,1,466,0,73
40334577,1657,1.0688,-1.5762,0.8989,377.9297,-616.2720,75.1953,1,467,0,73
40340542,1658,2.3896,-2.3228,1.7495,241.6992,-354.1870,126.6479,1,466,0,73
40347510,1659,2.0161,-2.6499,3.0337,156.3110,-118.1030,165.3442,1,466,0,73
40354529,1660,0.2671,-1.7354,3.5342,106.3843,-42.7246,233.3984,1,467,0,73
40357963,1661,0.2671,-1.7354,3.5342,106.3843,-42.7246,233.3984,1,472,0,73
40364506,1662,-0.3159,-1.3657,1.8403,49.5605,40.9546,259.0942,1,466,0,73
40370539,1663,-0.4810,-1.1807,1.1216,57.3730,49.3164,267.3950,1,466,0,74
40377508,1664,-0.5859,-0.8364,0.7021,49.9878,55.4199,267.8833,1,466,0,74
40381950,1665,-0.6411,-0.4609,0.5664,45.7153,50.1709,261.1694,1,482,0,74
40384582,1666,-0.6338,-0.1406,0.5820,46.6309,40.2222,250.0000,1,466,0,74
40391514,1667,-0.5967,0.1001,0.6479,39.1235,35.8276,233.9477,1,466,0,74
40397615,1668,-0.5737,0.2500,0.7349,25.2075,34.9121,215.2099,1,466,0,74
40404514,1669,-0.5444,0.3179,0.9443,-11.2915,40.4053,177.2461,1,466,0,74
40410548,1670,-0.5098,0.2539,1.0547,-31.9824,49.3774,160.0952,1,466,0,75
40414577,1671,-0.4858,0.1323,1.1499,-48.1567,60.4858,145.8130,1,466,0,75
40419576,1672,-0.4771,-0.0293,1.2090,-58.3496,71.2280,135.1318,1,466,0,75
40424918,1673,-0.4756,-0.2085,1.2290,-62.3169,82.2143,127.9907,1,472,0,75
40429582,1674,-0.4712,-0.3848,1.2275,-61.3403,92.1631,124.7559,1,466,0,75
40434583,1675,-0.4541,-0.5459,1.2246,-56.1523,101.3184,125.0610,1,488,0,75
40439585,1676,-0.4248,-0.6763,1.2310,-47.3633,109.9243,128.7842,1,466,0,75
40444937,1677,-0.3818,-0.7617,1.2402,-37.1704,118.5913,135.0098,1,473,0,75
40449584,1678,-0.3306,-0.7998,1.2505,-27.6489,127.5635,142.3950,1,466,0,75
40455529,1679,-0.2754,-0.7974,1.2603,-19.8975,136.3525,150.2075,1,466,0,75
40460960,1680,-0.2129,-0.7622,1.2642,-14.4043,145.6909,157.7148,1,475,0,75
40464577,1681,-0.1475,-0.7061,1.2524,-11.4136,155.7007,164.0625,1,466,0,75
40471500,1682,-0.0898,-0.6353,1.2192,-10.3760,165.4663,168.7012,1,466,0,75
40477534,1683,-0.0112,-0.4824,1.0918,-15.1978,180.6030,172.7295,1,466,0,75
40479581,1684,-0.0112,-0.4824,1.0918,-15.1978,180.6030,172.7295,1,466,0,75
40485528,1685,0.0166,-0.4199,1.0181,-19.7754,184.9975,172.3633,1,466,0,75
40492528,1686,0.0742,-0.3555,0.8867,-30.5786,188.4155,169.1894,1,466,0,75
40498529,1687,0.0776,-0.3535,0.8506,-35.4004,186.3403,166.9922,1,466,0,75
40499934,1688,0.0776,-0.3535,0.8506,-35.4004,186.3403,166.9922,1,476,0,75
40504577,1689,0.0820,-0.3672,0.8608,-39.1846,180.9692,164.6728,1,466,0,75
40514975,1690,0.1660,-0.4229,1.0146,-45.0439,174.8657,160.9497,1,480,0,76
40519580,1691,0.2173,-0.4619,1.1279,-47.1802,175.0488,159.7900,1,466,0,76
40524583,1692,0.2554,-0.5054,1.2344,-49.0112,177.3071,159.2407,1,466,0,76
40529584,1693,0.2847,-0.5493,1.3188,-50.7812,180.9082,159.4849,1,466,0,76
40534582,1694,0.3179,-0.5889,1.3730,-52.3071,185.7300,160.6445,1,467,0,76
40539583,1695,0.3477,-0.6162,1.3916,-53.5278,192.0166,162.4145,1,466,0,76
40544582,1696,0.3604,-0.6250,1.3794,-54.8706,197.5098,164.6728,1,466,0,76
40550531,1697,0.3677,-0.6143,1.3462,-56.8848,200.3784,167.1142,1,466,0,76
40555900,1698,0.3862,-0.5703,1.2603,-61.2183,203.5522,170.5932,1,469,0,76
40559582,1699,0.3862,-0.5703,1.2603,-61.2183,203.5522,170.5932,1,466,0,76
40564581,1700,0.3882,-0.5381,1.2246,-62.9883,202.4536,171.5698,1,466,0,76
40570029,1701,0.3945,-0.4990,1.1978,-65.2466,200.5615,172.1802,1,496,0,76
40574581,1702,0.4033,-0.4521,1.1821,-67.2607,198.3642,171.9971,1,466,0,76
