t_us,seq,ax,ay,az,gx,gy,gz,valid,t_imu_us,t_serial_us,missed
138467484,0,-0.0249,-0.1426,1.0156,0.3052,0.0000,-0.1831,1,467,0,0
138473416,1,-0.0249,-0.1411,1.0176,0.0610,0.1221,-0.2441,1,466,0,0
138478785,2,-0.0259,-0.1421,1.0181,0.1221,0.1831,-0.2441,1,467,0,0
138481017,3,-0.0259,-0.1421,1.0181,0.1221,0.1831,-0.2441,1,506,0,0
138484407,4,-0.0259,-0.1436,1.0176,0.1221,0.3052,-0.2441,1,466,0,0
138490414,5,-0.0259,-0.1445,1.0161,0.0610,0.1221,-0.1831,1,466,0,0
138494407,6,-0.0273,-0.1440,1.0137,0.0000,0.1221,-0.1831,1,466,0,0
138499406,7,-0.0278,-0.1431,1.0122,0.0610,0.1831,-0.1831,1,466,0,0
138506397,8,-0.0269,-0.1426,1.0132,-0.0610,0.2441,-0.1221,1,466,0,0
138512417,9,-0.0283,-0.1436,1.0137,-0.0610,0.3052,-0.1221,1,466,0,0
138518398,10,-0.0283,-0.1440,1.0132,-0.0610,0.3052,-0.1831,1,466,0,0
138520746,11,-0.0283,-0.1440,1.0132,-0.0610,0.3052,-0.1831,1,483,0,0
138526423,12,-0.0273,-0.1440,1.0127,0.1221,0.1831,-0.3052,1,467,0,0
138530818,13,-0.0273,-0.1440,1.0127,0.1221,0.1831,-0.3052,1,481,0,0
138537402,14,-0.0283,-0.1421,1.0127,0.0610,0.0000,-0.1831,1,466,0,0
138540709,15,-0.0283,-0.1421,1.0127,0.0610,0.0000,-0.1831,1,466,0,0
138547411,16,-0.0278,-0.1421,1.0137,0.0000,0.2441,-0.1831,1,466,0,0
138549711,17,-0.0278,-0.1421,1.0137,0.0000,0.2441,-0.1831,1,466,0,0
138556413,18,-0.0269,-0.1431,1.0137,0.3052,0.1221,-0.1831,1,466,0,0
138559405,19,-0.0269,-0.1431,1.0137,0.3052,0.1221,-0.1831,1,466,0,0
138564409,20,-0.0269,-0.1440,1.0132,0.2441,0.0610,-0.2441,1,466,0,0
138571399,21,-0.0269,-0.1431,1.0132,0.3052,0.2441,-0.1831,1,466,0,0
138578416,22,-0.0269,-0.1431,1.0142,0.3052,0.1221,-0.2441,1,466,0,0
138579741,23,-0.0269,-0.1431,1.0142,0.3052,0.1221,-0.2441,1,483,0,0
138588105,24,-0.0249,-0.1426,1.0151,0.1831,0.0610,-0.2441,1,558,0,0
138590849,25,-0.0249,-0.1416,1.0166,0.1221,0.1831,-0.1221,1,495,0,0
138594409,26,-0.0249,-0.1416,1.0166,0.1221,0.1831,-0.1221,1,466,0,0
138601395,27,-0.0278,-0.1426,1.0176,0.1221,0.2441,-0.2441,1,466,0,0
138608417,28,-0.0278,-0.1426,1.0166,0.1221,0.2441,-0.2441,1,466,0,0
138612792,29,-0.0283,-0.1431,1.0161,0.1831,0.1831,-0.3052,1,466,0,0
138618408,30,-0.0278,-0.1440,1.0161,0.1221,0.1221,-0.2441,1,466,0,0
138619752,31,-0.0278,-0.1440,1.0161,0.1221,0.1221,-0.2441,1,483,0,0
138627106,32,-0.0264,-0.1431,1.0151,0.2441,0.2441,-0.1831,1,501,0,0
138632418,33,-0.0264,-0.1426,1.0156,0.1221,0.1831,-0.2441,1,466,0,0
138634763,34,-0.0269,-0.1421,1.0161,0.0610,0.2441,-0.3052,1,483,0,0
138640135,35,-0.0273,-0.1421,1.0146,0.1831,0.0610,-0.3052,1,494,0,0
138644399,36,-0.0273,-0.1421,1.0146,0.1831,0.0610,-0.3052,1,467,0,0
138649691,37,-0.0269,-0.1440,1.0137,0.0000,0.2441,-0.1831,1,466,0,0
138654936,38,-0.0283,-0.1431,1.0137,0.0610,0.1221,-0.1831,1,502,0,0
138660400,39,-0.0283,-0.1426,1.0142,0.1831,0.1831,-0.1831,1,466,0,0
138664414,40,-0.0278,-0.1431,1.0137,0.1221,0.1831,-0.1831,1,466,0,0
138670411,41,-0.0269,-0.1436,1.0137,0.1831,0.1221,-0.1831,1,466,0,0
138677414,42,-0.0264,-0.1431,1.0132,0.1221,0.0000,-0.2441,1,466,0,0
138683410,43,-0.0264,-0.1436,1.0132,0.0610,0.1221,-0.2441,1,466,0,0
138688780,44,-0.0278,-0.1440,1.0127,0.1221,0.1221,-0.2441,1,473,0,0
138694428,45,-0.0288,-0.1416,1.0127,0.0610,0.1221,-0.1831,1,466,0,1
138699403,46,-0.0278,-0.1411,1.0132,0.1221,0.1831,-0.2441,1,466,0,1
138704404,47,-0.0278,-0.1411,1.0137,0.1831,0.0610,-0.1831,1,466,0,1
138710418,48,-0.0283,-0.1431,1.0146,0.1221,0.1831,-0.0610,1,466,0,1
138714405,49,-0.0288,-0.1445,1.0151,0.0610,0.0610,-0.2441,1,466,0,1
138720429,50,-0.0288,-0.1440,1.0146,0.0610,0.0000,-0.1831,1,466,0,1
138724760,51,-0.0273,-0.1431,1.0137,0.0610,-0.0610,-0.1831,1,483,0,1
138729404,52,-0.0259,-0.1431,1.0127,0.0610,0.1221,-0.3052,1,466,0,1
138734770,53,-0.0259,-0.1436,1.0122,0.0610,0.0000,-0.2441,1,478,0,1
138741410,54,-0.0269,-0.1436,1.0127,0.2441,0.0610,-0.1221,1,466,0,1
138748398,55,-0.0269,-0.1426,1.0151,0.1221,0.0610,-0.1831,1,466,0,1
138749730,56,-0.0269,-0.1426,1.0151,0.1221,0.0610,-0.1831,1,483,0,1
138754409,57,-0.0254,-0.1436,1.0156,0.1221,0.0610,-0.1831,1,466,0,1
138760749,58,-0.0249,-0.1440,1.0166,0.3052,0.1221,0.0000,1,483,0,1
138764402,59,-0.0249,-0.1436,1.0171,0.3052,0.0000,-0.1221,1,466,0,1
138769486,60,-0.0249,-0.1426,1.0161,0.1831,0.1831,-0.1221,1,466,0,1
138775420,61,-0.0259,-0.1421,1.0146,0.1831,0.2441,-0.1221,1,466,0,1
138782396,62,-0.0264,-0.1426,1.0137,0.3052,0.0000,0.0000,1,466,0,1
138788423,63,-0.0273,-0.1426,1.0161,0.0610,0.1221,-0.2441,1,466,0,1
138791776,64,-0.0273,-0.1426,1.0161,0.0610,0.1221,-0.2441,1,476,0,1
138797425,65,-0.0254,-0.1436,1.0156,0.0000,0.2441,-0.1831,1,466,0,1
138803405,66,-0.0269,-0.1426,1.0142,0.0610,0.1221,-0.1221,1,466,0,1
138806759,67,-0.0269,-0.1426,1.0142,0.0610,0.1221,-0.1221,1,483,0,1
138813399,68,-0.0254,-0.1416,1.0151,0.0610,0.1221,-0.1221,1,466,0,1
138819426,69,-0.0239,-0.1426,1.0161,0.0610,0.0000,-0.1221,1,466,0,2
138825408,70,-0.0249,-0.1426,1.0151,0.0610,0.1221,-0.0610,1,466,0,2
138830108,71,-0.0269,-0.1431,1.0132,0.0610,0.1221,-0.0610,1,489,0,2
138835418,72,-0.0269,-0.1440,1.0127,0.1221,0.1221,-0.0610,1,466,0,2
138839400,73,-0.0259,-0.1440,1.0122,0.1831,0.0610,-0.1221,1,467,0,2
138846390,74,-0.0269,-0.1436,1.0117,0.1831,0.0610,-0.1221,1,466,0,2
138852415,75,-0.0264,-0.1436,1.0146,0.0000,0.1831,-0.1221,1,466,0,2
138859389,76,-0.0259,-0.1445,1.0161,0.0610,0.1221,-0.0610,1,466,0,2
138860719,77,-0.0259,-0.1445,1.0161,0.0610,0.1221,-0.0610,1,466,0,2
138868071,78,-0.0269,-0.1450,1.0142,0.1831,0.0610,-0.2441,1,509,0,2
138873411,79,-0.0273,-0.1440,1.0127,0.2441,0.0610,-0.1831,1,466,0,2
138876767,80,-0.0264,-0.1426,1.0137,0.0000,0.1831,-0.1221,1,480,0,2
138879409,81,-0.0264,-0.1426,1.0137,0.0000,0.1831,-0.1221,1,466,0,2
138884418,82,-0.0259,-0.1426,1.0156,0.0610,0.0610,-0.0610,1,466,0,2
138889405,83,-0.0269,-0.1426,1.0161,0.0610,0.1831,-0.1221,1,466,0,2
138894401,84,-0.0278,-0.1426,1.0146,0.0610,0.1831,-0.0610,1,466,0,2
138899406,85,-0.0273,-0.1421,1.0132,0.0610,0.1221,-0.0610,1,466,0,2
138906386,86,-0.0254,-0.1436,1.0132,0.0610,0.1221,-0.1831,1,466,0,2
138913405,87,-0.0259,-0.1436,1.0142,0.0610,0.0610,-0.1221,1,466,0,2
138919403,88,-0.0259,-0.1426,1.0146,0.1831,0.2441,-0.1221,1,466,0,3
138924405,89,-0.0254,-0.1421,1.0151,0.0000,0.1221,-0.1831,1,466,0,3
138929403,90,-0.0249,-0.1421,1.0151,0.0610,0.1221,-0.1221,1,466,0,3
138935424,91,-0.0273,-0.1431,1.0142,-0.0610,0.3052,-0.1221,1,466,0,3
138941403,92,-0.0278,-0.1440,1.0132,0.0000,0.3052,-0.1221,1,467,0,3
138944411,93,-0.0278,-0.1440,1.0132,0.0000,0.3052,-0.1221,1,466,0,3
138949408,94,-0.0269,-0.1440,1.0137,0.0610,0.3662,-0.1221,1,467,0,3
138954400,95,-0.0264,-0.1431,1.0146,0.0000,0.3662,-0.0610,1,466,0,3
138959402,96,-0.0269,-0.1431,1.0151,-0.0610,0.3662,-0.1221,1,466,0,3
138966415,97,-0.0264,-0.1440,1.0171,0.0610,0.1831,-0.0610,1,466,0,3
138973403,98,-0.0273,-0.1436,1.0151,0.0610,0.3052,-0.1221,1,466,0,3
138979400,99,-0.0273,-0.1416,1.0146,0.0000,0.1831,-0.1221,1,466,0,4
138985429,100,-0.0264,-0.1416,1.0146,0.0000,0.1221,-0.1221,1,466,0,4
138992383,101,-0.0264,-0.1421,1.0142,-0.0610,0.1831,-0.1221,1,466,0,4
138999402,102,-0.0273,-0.1431,1.0146,0.0000,0.3662,-0.1831,1,466,0,5
139004406,103,-0.0269,-0.1426,1.0142,-0.0610,0.1221,-0.1831,1,466,0,5
139011396,104,-0.0264,-0.1426,1.0156,0.0000,0.2441,-0.1831,1,466,0,5
139018384,105,-0.0259,-0.1421,1.0151,0.0000,0.1831,-0.2441,1,466,0,5
139021702,106,-0.0259,-0.1426,1.0146,0.1221,0.0610,-0.1831,1,466,0,5
139024405,107,-0.0259,-0.1440,1.0151,0.0000,0.1221,-0.2441,1,466,0,5
139031385,108,-0.0254,-0.1440,1.0156,0.0000,0.1221,-0.1831,1,466,0,5
139034702,109,-0.0259,-0.1436,1.0161,0.0610,0.0610,-0.1831,1,466,0,5
139041397,110,-0.0269,-0.1431,1.0166,0.0000,0.1221,-0.2441,1,467,0,5
139044711,111,-0.0264,-0.1416,1.0161,0.1221,0.3052,-0.1831,1,466,0,5
139049405,112,-0.0264,-0.1406,1.0146,0.0000,0.3662,-0.2441,1,466,0,5
139055426,113,-0.0269,-0.1426,1.0142,-0.0610,0.2441,-0.1831,1,466,0,5
139061406,114,-0.0273,-0.1440,1.0146,0.1221,0.0610,-0.1831,1,467,0,5
139067418,115,-0.0269,-0.1440,1.0156,0.0610,0.1221,-0.1221,1,500,0,5
139072223,116,-0.0269,-0.1431,1.0151,-0.0610,0.2441,-0.1831,1,466,0,5
139074720,117,-0.0264,-0.1426,1.0151,0.0000,0.3052,-0.1221,1,484,0,5
139080419,118,-0.0254,-0.1416,1.0156,-0.0610,0.2441,-0.1221,1,466,0,5
139086429,119,-0.0264,-0.1411,1.0166,-0.1831,0.2441,-0.2441,1,466,0,5
139091737,120,-0.0278,-0.1416,1.0161,-0.0610,0.3052,-0.1831,1,484,0,5
139094401,121,-0.0283,-0.1426,1.0151,0.0610,0.3662,-0.0610,1,466,0,5
139100408,122,-0.0278,-0.1440,1.0156,0.2441,0.1221,-0.1221,1,466,0,5
139106418,123,-0.0264,-0.1436,1.0156,0.1831,0.1831,-0.1221,1,466,0,5
139113385,124,-0.0244,-0.1436,1.0122,0.2441,0.1831,-0.0610,1,466,0,5
139119420,125,-0.0249,-0.1440,1.0127,0.0610,0.2441,-0.1831,1,466,0,6
139125431,126,-0.0269,-0.1431,1.0142,0.0610,0.2441,-0.1221,1,466,0,6
139129410,127,-0.0278,-0.1421,1.0142,0.0610,0.3052,-0.1221,1,466,0,6
139135411,128,-0.0278,-0.1426,1.0132,0.0610,0.1831,-0.0610,1,466,0,6
139142407,129,-0.0273,-0.1440,1.0161,0.0000,0.2441,-0.1221,1,466,0,6
139148478,130,-0.0264,-0.1426,1.0161,-0.1831,0.3662,-0.1831,1,466,0,6
139154423,131,-0.0264,-0.1411,1.0151,-0.0610,0.3052,-0.1221,1,467,0,7
139159408,132,-0.0269,-0.1416,1.0137,-0.1221,0.3052,-0.1221,1,467,0,7
139166395,133,-0.0273,-0.1436,1.0127,-0.0610,0.2441,-0.0610,1,466,0,7
139171785,134,-0.0288,-0.1436,1.0132,-0.1221,0.1221,-0.1221,1,466,0,7
139174405,135,-0.0288,-0.1436,1.0132,-0.1221,0.1221,-0.1221,1,466,0,7
139180425,136,-0.0288,-0.1445,1.0127,0.0000,0.1221,-0.0610,1,466,0,7
139184403,137,-0.0269,-0.1440,1.0127,0.1221,0.2441,-0.1831,1,466,0,7
139190434,138,-0.0249,-0.1440,1.0137,0.0000,0.3052,-0.2441,1,467,0,7
139194405,139,-0.0249,-0.1440,1.0146,0.0000,0.1831,-0.1831,1,466,0,7
139199401,140,-0.0264,-0.1436,1.0142,-0.0610,0.1831,-0.1221,1,467,0,7
139204401,141,-0.0264,-0.1426,1.0137,0.1221,0.1831,-0.1221,1,466,0,7
139209401,142,-0.0254,-0.1426,1.0142,0.1221,0.3052,-0.1221,1,466,0,7
139215429,143,-0.0259,-0.1431,1.0146,0.1221,0.1221,-0.0610,1,466,0,7
139219404,144,-0.0273,-0.1431,1.0142,0.0610,0.0610,-0.1221,1,466,0,7
139225408,145,-0.0269,-0.1416,1.0142,0.0000,0.2441,-0.2441,1,466,0,7
139229737,146,-0.0259,-0.1416,1.0151,0.0610,0.1831,-0.2441,1,483,0,7
139236400,147,-0.0254,-0.1421,1.0156,0.1831,0.1831,-0.1831,1,466,0,7
139242404,148,-0.0269,-0.1421,1.0146,0.1831,0.1221,-0.0610,1,466,0,7
139244753,149,-0.0269,-0.1421,1.0146,0.1831,0.1221,-0.0610,1,483,0,7
139249400,150,-0.0269,-0.1421,1.0142,0.1221,0.2441,-0.1221,1,466,0,7
139254407,151,-0.0269,-0.1426,1.0142,0.1221,0.1831,-0.1831,1,466,0,7
139259410,152,-0.0269,-0.1426,1.0156,0.1831,0.1221,-0.0610,1,466,0,7
139265413,153,-0.0273,-0.1431,1.0161,0.0610,0.1221,-0.1831,1,467,0,7
139269400,154,-0.0273,-0.1431,1.0161,0.0610,0.1221,-0.1831,1,466,0,7
139274401,155,-0.0278,-0.1426,1.0156,0.1221,0.1831,-0.1221,1,466,0,7
139279786,156,-0.0269,-0.1440,1.0132,0.2441,0.1221,-0.1221,1,466,0,7
139285404,157,-0.0259,-0.1436,1.0122,0.0610,0.0000,-0.1221,1,466,0,7
139289734,158,-0.0249,-0.1431,1.0132,0.0610,0.1221,0.0000,1,483,0,7
139295412,159,-0.0254,-0.1411,1.0146,0.1831,0.2441,-0.1221,1,466,0,7
139301424,160,-0.0259,-0.1401,1.0151,0.0000,0.2441,-0.0610,1,466,0,7
139307405,161,-0.0249,-0.1401,1.0151,0.0610,0.1831,0.0000,1,490,0,7
139313417,162,-0.0259,-0.1416,1.0146,0.0610,0.1221,-0.1221,1,467,0,7
139319431,163,-0.0264,-0.1416,1.0151,-0.0610,0.2441,-0.1221,1,466,0,8
139325411,164,-0.0259,-0.1416,1.0156,0.0000,0.3052,-0.2441,1,466,0,8
139331422,165,-0.0264,-0.1436,1.0146,0.0000,0.3052,-0.1831,1,467,0,8
139335754,166,-0.0273,-0.1450,1.0127,0.1221,0.1831,-0.1221,1,483,0,8
139341469,167,-0.0283,-0.1436,1.0127,0.0610,0.1221,-0.1221,1,466,0,8
139348398,168,-0.0278,-0.1421,1.0137,0.0610,0.3052,-0.1221,1,466,0,8
139349731,169,-0.0273,-0.1426,1.0137,0.1221,0.1221,-0.0610,1,483,0,8
139357086,170,-0.0273,-0.1431,1.0137,0.0000,0.1221,-0.1221,1,505,0,8
139363391,171,-0.0269,-0.1426,1.0142,0.1221,0.1831,-0.1221,1,466,0,8
139369418,172,-0.0254,-0.1440,1.0146,0.0610,0.1831,-0.1831,1,466,0,9
139374407,173,-0.0264,-0.1426,1.0151,0.1221,0.1221,-0.1831,1,466,0,9
139379699,174,-0.0273,-0.1406,1.0161,0.1831,0.1831,-0.0610,1,466,0,9
139384407,175,-0.0269,-0.1411,1.0166,0.0000,0.1831,0.0000,1,466,0,9
139390413,176,-0.0264,-0.1426,1.0171,-0.0610,0.1831,-0.1831,1,467,0,9
139397412,177,-0.0254,-0.1431,1.0171,0.0000,0.1831,-0.1831,1,466,0,9
139404399,178,-0.0254,-0.1416,1.0137,-0.0610,0.1831,-0.0610,1,466,0,10
139409790,179,-0.0264,-0.1421,1.0137,0.0610,0.2441,-0.1221,1,482,0,10
139414410,180,-0.0278,-0.1426,1.0146,0.0000,0.1831,-0.1221,1,466,0,10
139421398,181,-0.0269,-0.1431,1.0151,0.0000,0.1831,-0.1831,1,466,0,10
139424400,182,-0.0259,-0.1431,1.0151,0.0000,0.1831,-0.1831,1,466,0,10
139430422,183,-0.0259,-0.1426,1.0146,0.1221,0.2441,-0.1831,1,466,0,10
139434407,184,-0.0269,-0.1416,1.0146,0.1221,0.3052,-0.1831,1,466,0,10
139439400,185,-0.0283,-0.1426,1.0137,0.0610,0.2441,-0.1221,1,466,0,10
139445405,186,-0.0283,-0.1431,1.0137,0.0000,0.1831,-0.1831,1,466,0,10
139449405,187,-0.0278,-0.1426,1.0146,0.0610,0.2441,-0.1831,1,466,0,10
139455416,188,-0.0273,-0.1416,1.0146,0.1831,0.1831,-0.1221,1,466,0,10
139460753,189,-0.0269,-0.1411,1.0142,0.0000,0.3052,-0.2441,1,483,0,10
139466002,190,-0.0254,-0.1406,1.0151,0.0000,0.2441,-0.1221,1,487,0,10
139469401,191,-0.0239,-0.1411,1.0156,0.0000,0.1831,-0.1831,1,466,0,10
139474407,192,-0.0244,-0.1421,1.0142,-0.0610,0.3662,-0.2441,1,466,0,10
139480409,193,-0.0254,-0.1421,1.0127,-0.0610,0.1831,-0.1221,1,466,0,10
139484402,194,-0.0264,-0.1411,1.0127,-0.1221,0.1221,-0.1831,1,466,0,10
139489401,195,-0.0269,-0.1416,1.0137,0.0000,0.2441,-0.1221,1,467,0,10
139494400,196,-0.0273,-0.1440,1.0137,0.1831,0.1831,-0.0610,1,466,0,10
139499400,197,-0.0273,-0.1450,1.0127,0.0610,0.1221,-0.2441,1,466,0,10
139505402,198,-0.0269,-0.1440,1.0122,0.0000,0.1221,-0.1831,1,466,0,10
139509735,199,-0.0249,-0.1421,1.0127,0.0610,0.0610,-0.1831,1,483,0,10
139514400,200,-0.0229,-0.1421,1.0137,0.0000,0.1221,-0.2441,1,466,0,10
139520419,201,-0.0239,-0.1431,1.0146,0.1221,0.2441,-0.2441,1,466,0,10
139526428,202,-0.0278,-0.1436,1.0137,0.0000,0.2441,-0.2441,1,466,0,10
139530760,203,-0.0278,-0.1436,1.0137,0.0000,0.2441,-0.2441,1,483,0,10
139534404,204,-0.0259,-0.1421,1.0166,0.0000,0.1831,-0.1831,1,466,0,10
139539410,205,-0.0239,-0.1416,1.0186,0.0000,0.1831,-0.1221,1,466,0,10
139546397,206,-0.0303,-0.1440,1.0112,0.0610,0.3052,-0.1831,1,466,0,10
139549406,207,-0.0303,-0.1440,1.0112,0.0610,0.3052,-0.1831,1,467,0,10
139554407,208,-0.0298,-0.1436,1.0117,0.0610,0.1831,-0.2441,1,466,0,10
139559408,209,-0.0264,-0.1431,1.0137,0.1831,0.0610,-0.2441,1,466,0,10
139564399,210,-0.0239,-0.1416,1.0156,0.1221,0.1831,-0.1831,1,466,0,10
139569791,211,-0.0249,-0.1411,1.0166,0.0610,0.3052,-0.1221,1,481,0,10
139574408,212,-0.0259,-0.1426,1.0166,0.0610,0.3662,0.0000,1,466,0,10
139579650,213,-0.0264,-0.1436,1.0166,0.0000,0.1831,-0.0610,1,466,0,10
139584991,214,-0.0283,-0.1426,1.0161,0.0000,0.3052,-0.1221,1,508,0,10
139590225,215,-0.0283,-0.1426,1.0156,0.0610,0.1831,-0.1221,1,467,0,10
139595430,216,-0.0264,-0.1431,1.0151,0.0000,0.2441,-0.1831,1,466,0,10
139600769,217,-0.0249,-0.1431,1.0142,-0.0610,0.3662,-0.1831,1,478,0,10
139604405,218,-0.0249,-0.1431,1.0142,-0.0610,0.3662,-0.1831,1,466,0,10
139610414,219,-0.0259,-0.1436,1.0132,-0.0610,0.3052,-0.1831,1,466,0,10
139614399,220,-0.0259,-0.1436,1.0132,-0.0610,0.3052,-0.1831,1,466,0,10
139619781,221,-0.0264,-0.1421,1.0127,-0.1221,0.3052,-0.1221,1,466,0,10
139626381,222,-0.0269,-0.1431,1.0137,-0.0610,0.3052,-0.1831,1,466,0,10
139633401,223,-0.0254,-0.1431,1.0146,-0.0610,0.2441,-0.1221,1,466,0,10
139639404,224,-0.0259,-0.1416,1.0156,-0.1221,0.1831,-0.1831,1,466,0,11
139646401,225,-0.0264,-0.1401,1.0161,-0.1221,0.2441,-0.1221,1,466,0,11
139653391,226,-0.0259,-0.1401,1.0151,-0.1221,0.3052,0.0000,1,466,0,11
139654693,227,-0.0249,-0.1426,1.0142,-0.1221,0.1831,-0.1831,1,466,0,11
139665406,228,-0.0239,-0.1416,1.0161,0.0000,0.2441,-0.1831,1,466,0,12
139669781,229,-0.0264,-0.1416,1.0156,-0.1221,0.2441,-0.3052,1,477,0,12
139674402,230,-0.0283,-0.1440,1.0142,0.0000,0.3052,-0.1831,1,466,0,12
139680421,231,-0.0278,-0.1450,1.0132,0.1221,0.3662,-0.0610,1,466,0,12
139686401,232,-0.0259,-0.1440,1.0142,0.1221,0.3052,-0.0610,1,466,0,12
139693397,233,-0.0264,-0.1416,1.0151,0.1221,0.3052,-0.1221,1,466,0,12
139699401,234,-0.0259,-0.1421,1.0151,0.0610,0.2441,-0.2441,1,466,0,13
139705413,235,-0.0254,-0.1431,1.0146,0.1221,0.3052,-0.1221,1,466,0,13
139709400,236,-0.0259,-0.1431,1.0142,0.1221,0.2441,-0.2441,1,466,0,13
139714401,237,-0.0264,-0.1426,1.0137,0.1831,0.2441,-0.2441,1,466,0,13
139719407,238,-0.0273,-0.1421,1.0137,0.0610,0.4272,-0.2441,1,466,0,13
139725404,239,-0.0278,-0.1421,1.0151,0.0610,0.4883,-0.2441,1,466,0,13
139729827,240,-0.0273,-0.1421,1.0151,0.1831,0.3052,-0.1831,1,466,0,13
139734406,241,-0.0278,-0.1421,1.0137,0.0610,0.3662,-0.1831,1,466,0,13
139739406,242,-0.0278,-0.1421,1.0132,0.0000,0.3662,-0.2441,1,467,0,13
139745422,243,-0.0269,-0.1426,1.0132,0.1221,0.3052,-0.1831,1,466,0,13
139749405,244,-0.0269,-0.1426,1.0137,0.1221,0.1831,-0.1831,1,466,0,13
139754407,245,-0.0269,-0.1426,1.0137,0.0610,0.3052,-0.3052,1,466,0,13
139760407,246,-0.0259,-0.1431,1.0132,0.0610,0.2441,-0.1221,1,466,0,13
139767402,247,-0.0269,-0.1426,1.0117,0.1221,0.2441,-0.2441,1,466,0,13
139772793,248,-0.0273,-0.1421,1.0132,0.0000,0.1831,-0.2441,1,477,0,13
139778412,249,-0.0264,-0.1426,1.0151,0.0610,0.2441,-0.2441,1,467,0,13
139779758,250,-0.0264,-0.1426,1.0151,0.0610,0.2441,-0.2441,1,483,0,13
139784407,251,-0.0259,-0.1431,1.0161,0.1221,0.2441,-0.1831,1,466,0,13
139793819,252,-0.0269,-0.1426,1.0151,0.0610,0.2441,-0.1831,1,507,0,13
139798401,253,-0.0273,-0.1431,1.0156,0.1831,0.1831,-0.3052,1,466,0,13
139799740,254,-0.0273,-0.1431,1.0156,0.1831,0.1831,-0.3052,1,483,0,13
139810424,255,-0.0273,-0.1421,1.0146,0.1221,0.1831,-0.1831,1,466,0,14
139816404,256,-0.0273,-0.1426,1.0132,0.1831,0.1831,-0.1831,1,467,0,14
139823402,257,-0.0259,-0.1431,1.0137,0.0610,0.1831,-0.1831,1,466,0,14
139829406,258,-0.0239,-0.1431,1.0146,0.2441,0.1221,-0.1831,1,467,0,15
139836402,259,-0.0259,-0.1426,1.0146,0.1221,0.2441,-0.0610,1,466,0,15
139842405,260,-0.0259,-0.1426,1.0146,0.1831,0.1831,-0.1831,1,466,0,15
139848418,261,-0.0264,-0.1431,1.0146,0.1831,0.1831,-0.2441,1,466,0,15
139854399,262,-0.0269,-0.1431,1.0156,0.1831,0.2441,-0.3052,1,466,0,16
139860410,263,-0.0273,-0.1421,1.0166,0.2441,0.1221,-0.2441,1,466,0,16
139866422,264,-0.0278,-0.1406,1.0146,0.1831,0.1221,-0.1221,1,466,0,16
139872406,265,-0.0273,-0.1411,1.0132,0.1831,0.3052,0.0000,1,466,0,16
139877743,266,-0.0259,-0.1426,1.0132,0.2441,0.2441,-0.1831,1,483,0,16
139883423,267,-0.0254,-0.1436,1.0137,0.1831,0.3052,-0.1221,1,466,0,16
139885718,268,-0.0273,-0.1426,1.0151,0.1831,0.2441,-0.1221,1,484,0,16
139891018,269,-0.0278,-0.1411,1.0161,0.1831,0.2441,-0.1221,1,499,0,16
139894407,270,-0.0278,-0.1411,1.0161,0.1831,0.2441,-0.1221,1,466,0,16
139901406,271,-0.0273,-0.1396,1.0132,0.0610,0.1831,-0.0610,1,466,0,16
139907407,272,-0.0269,-0.1406,1.0122,0.0610,0.2441,-0.1221,1,493,0,16
139910185,273,-0.0269,-0.1411,1.0122,0.1831,0.1831,-0.1221,1,466,0,16
139916411,274,-0.0269,-0.1421,1.0132,0.0610,0.1221,-0.1831,1,466,0,16
139919403,275,-0.0269,-0.1421,1.0132,0.0610,0.1221,-0.1831,1,466,0,16
139926396,276,-0.0259,-0.1426,1.0146,0.0610,0.1221,-0.1831,1,466,0,16
139932401,277,-0.0264,-0.1421,1.0151,0.1221,0.1831,-0.1831,1,466,0,16
139939399,278,-0.0264,-0.1431,1.0161,0.1221,0.2441,-0.0610,1,466,0,17
139946388,279,-0.0259,-0.1436,1.0146,0.0610,0.2441,-0.0610,1,466,0,17
139951778,280,-0.0254,-0.1431,1.0127,0.0610,0.2441,-0.1221,1,466,0,17
139957427,281,-0.0269,-0.1431,1.0137,0.0610,0.3052,-0.1831,1,466,0,17
139959721,282,-0.0288,-0.1436,1.0156,0.1831,0.1831,-0.2441,1,483,0,17
139965421,283,-0.0278,-0.1431,1.0161,0.1831,0.1831,-0.1221,1,466,0,17
139969698,284,-0.0264,-0.1426,1.0156,0.1221,0.3052,-0.1831,1,466,0,17
139974408,285,-0.0264,-0.1431,1.0161,0.0000,0.3052,-0.1221,1,466,0,17
139979402,286,-0.0269,-0.1426,1.0171,0.0000,0.3662,-0.1221,1,466,0,17
139985410,287,-0.0269,-0.1411,1.0166,-0.0610,0.5493,-0.2441,1,467,0,17
139990749,288,-0.0264,-0.1416,1.0156,0.0000,0.3662,-0.3052,1,484,0,17
139994990,289,-0.0264,-0.1426,1.0146,-0.0610,0.2441,-0.1221,1,487,0,17
140000423,290,-0.0269,-0.1421,1.0142,-0.0610,0.2441,-0.0610,1,467,0,17
140004402,291,-0.0264,-0.1416,1.0146,0.0000,0.2441,-0.1831,1,466,0,17
140011389,292,-0.0249,-0.1411,1.0161,-0.1221,0.2441,-0.1221,1,466,0,17
140015774,293,-0.0259,-0.1416,1.0161,-0.1831,0.4883,-0.1221,1,469,0,17
140020137,294,-0.0283,-0.1431,1.0151,-0.1831,0.4272,-0.1221,1,488,0,17
140025419,295,-0.0288,-0.1445,1.0146,-0.1221,0.3052,-0.1831,1,466,0,17
140029407,296,-0.0283,-0.1436,1.0142,-0.0610,0.1831,-0.1831,1,466,0,17
140034405,297,-0.0273,-0.1431,1.0142,-0.0610,0.3052,-0.1831,1,466,0,17
140039462,298,-0.0273,-0.1436,1.0156,0.0000,0.3052,-0.1831,1,466,0,17
140044408,299,-0.0283,-0.1436,1.0161,0.0000,0.3662,-0.2441,1,466,0,17
140049400,300,-0.0278,-0.1426,1.0156,0.0000,0.2441,-0.2441,1,466,0,17
140055416,301,-0.0278,-0.1421,1.0146,0.0000,0.3052,-0.1831,1,466,0,17
140059406,302,-0.0269,-0.1431,1.0137,-0.0610,0.3052,-0.2441,1,466,0,17
140064407,303,-0.0254,-0.1431,1.0142,0.0000,0.2441,-0.1221,1,466,0,17
140069406,304,-0.0259,-0.1426,1.0146,0.1221,0.2441,-0.1221,1,466,0,17
140076390,305,-0.0269,-0.1416,1.0146,0.1221,0.1831,-0.2441,1,466,0,17
140082425,306,-0.0269,-0.1426,1.0122,0.1831,0.0610,-0.1221,1,466,0,17
140088427,307,-0.0254,-0.1416,1.0146,0.3052,-0.0610,-0.0610,1,466,0,17
140092097,308,-0.0254,-0.1411,1.0171,0.0610,0.2441,-0.1221,1,490,0,17
140097410,309,-0.0269,-0.1426,1.0181,0.0000,0.2441,-0.1221,1,466,0,17
140101739,310,-0.0269,-0.1426,1.0181,0.0000,0.2441,-0.1221,1,483,0,17
140107418,311,-0.0288,-0.1426,1.0137,-0.0610,0.3052,-0.1221,1,466,0,17
140109419,312,-0.0288,-0.1426,1.0137,-0.0610,0.3052,-0.1221,1,466,0,17
140115414,313,-0.0278,-0.1431,1.0127,-0.1221,0.1831,-0.2441,1,466,0,17
140121425,314,-0.0278,-0.1436,1.0142,0.0610,0.1831,-0.1831,1,466,0,17
140127406,315,-0.0288,-0.1436,1.0142,-0.1221,0.1221,-0.1221,1,466,0,17
140129434,316,-0.0288,-0.1436,1.0142,-0.1221,0.1221,-0.1221,1,466,0,17
140135403,317,-0.0283,-0.1440,1.0142,-0.0610,0.1831,-0.1221,1,466,0,17
140141482,318,-0.0269,-0.1440,1.0137,0.0000,0.1831,-0.1831,1,466,0,17
140144405,319,-0.0269,-0.1440,1.0137,0.0000,0.1831,-0.1831,1,466,0,17
140150419,320,-0.0273,-0.1431,1.0132,0.0610,0.1221,-0.1221,1,466,0,17
140157383,321,-0.0283,-0.1416,1.0161,0.0610,0.0000,-0.1831,1,466,0,17
140164404,322,-0.0278,-0.1421,1.0166,0.0610,0.0610,-0.1221,1,466,0,18
140170406,323,-0.0278,-0.1426,1.0161,0.0000,0.1221,-0.1221,1,466,0,18
140174738,324,-0.0269,-0.1421,1.0171,-0.0610,0.0610,-0.2441,1,483,0,18
140179399,325,-0.0264,-0.1416,1.0171,0.0610,0.1221,-0.0610,1,466,0,18
140184778,326,-0.0264,-0.1416,1.0166,-0.0610,0.0610,-0.1221,1,466,0,18
140190425,327,-0.0264,-0.1416,1.0161,0.0610,0.1831,-0.2441,1,466,0,18
140196409,328,-0.0259,-0.1421,1.0151,-0.1221,0.2441,-0.1221,1,466,0,18
140203406,329,-0.0264,-0.1426,1.0146,0.0000,0.2441,-0.0610,1,466,0,18
140205713,330,-0.0269,-0.1421,1.0132,-0.0610,0.3052,-0.0610,1,483,0,18
140209401,331,-0.0269,-0.1421,1.0132,-0.0610,0.3052,-0.0610,1,466,0,18
140214402,332,-0.0278,-0.1426,1.0122,-0.0610,0.2441,-0.1221,1,466,0,18
140219406,333,-0.0283,-0.1431,1.0132,0.0000,0.1831,-0.1831,1,466,0,18
140225398,334,-0.0283,-0.1436,1.0137,0.1221,0.1221,-0.1221,1,466,0,18
140229408,335,-0.0283,-0.1436,1.0137,0.1221,0.1221,-0.1221,1,467,0,18
140236392,336,-0.0278,-0.1431,1.0156,0.0000,0.1831,-0.1221,1,466,0,18
140243384,337,-0.0283,-0.1431,1.0156,0.1221,0.1221,-0.0610,1,467,0,18
140249417,338,-0.0273,-0.1426,1.0132,0.0000,0.1221,-0.0610,1,466,0,19
140254402,339,-0.0273,-0.1411,1.0122,-0.0610,0.0610,-0.0610,1,466,0,19
140259789,340,-0.0264,-0.1421,1.0156,0.0000,0.1221,-0.1221,1,478,0,19
140265408,341,-0.0259,-0.1426,1.0156,0.0000,0.1221,-0.1831,1,466,0,19
140269740,342,-0.0269,-0.1421,1.0156,0.0000,0.2441,-0.1221,1,483,0,19
140274987,343,-0.0283,-0.1416,1.0151,-0.0610,0.0610,-0.0610,1,505,0,19
140280297,344,-0.0288,-0.1426,1.0151,-0.0610,0.0000,-0.1221,1,466,0,19
140284401,345,-0.0283,-0.1436,1.0151,0.0000,0.1221,-0.1221,1,466,0,19
140289400,346,-0.0273,-0.1440,1.0146,0.1221,0.1831,-0.0610,1,466,0,19
140296390,347,-0.0269,-0.1436,1.0146,-0.0610,0.1221,-0.2441,1,467,0,19
140302423,348,-0.0259,-0.1426,1.0146,0.0610,0.1221,-0.1831,1,466,0,19
140304721,349,-0.0254,-0.1411,1.0161,0.0610,0.1831,-0.1221,1,483,0,19
140310421,350,-0.0259,-0.1411,1.0166,-0.0610,0.0610,-0.0610,1,466,0,19
140316400,351,-0.0269,-0.1411,1.0146,0.0000,0.1221,-0.1221,1,466,0,19
140322413,352,-0.0273,-0.1411,1.0142,0.1221,0.1831,-0.1831,1,466,0,19
140328447,353,-0.0273,-0.1421,1.0171,0.0610,0.3052,-0.0610,1,466,0,19
140334405,354,-0.0273,-0.1426,1.0166,-0.0610,0.3662,-0.1221,1,467,0,20
140339402,355,-0.0264,-0.1426,1.0161,0.0000,0.2441,-0.1221,1,466,0,20
140345423,356,-0.0249,-0.1421,1.0156,-0.0610,0.2441,-0.1831,1,466,0,20
140351405,357,-0.0254,-0.1416,1.0142,0.0000,0.3662,-0.1221,1,467,0,20
140354728,358,-0.0273,-0.1416,1.0151,-0.0610,0.2441,-0.1221,1,484,0,20
140359401,359,-0.0288,-0.1421,1.0161,-0.0610,0.3052,-0.1221,1,466,0,20
140364401,360,-0.0283,-0.1426,1.0146,-0.1221,0.1221,-0.1221,1,466,0,20
140369403,361,-0.0269,-0.1421,1.0142,-0.0610,0.3662,-0.0610,1,467,0,20
140374404,362,-0.0254,-0.1411,1.0146,-0.0610,0.3052,-0.0610,1,466,0,20
140379405,363,-0.0264,-0.1421,1.0151,0.0000,0.3662,-0.1221,1,467,0,20
140384407,364,-0.0278,-0.1436,1.0151,-0.1221,0.4272,-0.0610,1,466,0,20
140389739,365,-0.0273,-0.1445,1.0151,-0.1221,0.3052,-0.0610,1,484,0,20
140396395,366,-0.0259,-0.1440,1.0142,0.0000,0.2441,-0.0610,1,466,0,20
140399711,367,-0.0269,-0.1431,1.0137,-0.0610,0.2441,-0.1221,1,484,0,20
140404399,368,-0.0273,-0.1426,1.0137,-0.2441,0.2441,-0.1831,1,466,0,20
140409401,369,-0.0269,-0.1421,1.0137,0.0000,0.1221,-0.1221,1,466,0,20
140414407,370,-0.0269,-0.1421,1.0142,0.0000,0.2441,-0.0610,1,466,0,20
140419401,371,-0.0249,-0.1431,1.0137,0.0610,0.2441,-0.1221,1,466,0,20
140424401,372,-0.0239,-0.1436,1.0142,0.0000,0.1831,-0.1831,1,466,0,20
140430413,373,-0.0254,-0.1440,1.0151,-0.0610,0.0610,-0.1831,1,466,0,20
140436394,374,-0.0259,-0.1436,1.0151,0.0000,0.1221,-0.2441,1,467,0,20
140440727,375,-0.0249,-0.1426,1.0142,-0.0610,0.1831,-0.2441,1,484,0,20
140446404,376,-0.0249,-0.1421,1.0137,0.0610,0.3052,-0.1831,1,466,0,20
140452419,377,-0.0278,-0.1436,1.0146,-0.0610,0.1221,-0.1221,1,467,0,20
140457969,378,-0.0288,-0.1440,1.0156,-0.0610,0.1221,-0.1221,1,486,0,20
140460223,379,-0.0288,-0.1440,1.0156,-0.0610,0.1221,-0.1221,1,495,0,20
140469395,380,-0.0283,-0.1421,1.0151,-0.2441,0.2441,-0.1831,1,467,0,20
140474784,381,-0.0288,-0.1426,1.0142,-0.1831,0.2441,-0.1831,1,482,0,21
140480401,382,-0.0288,-0.1421,1.0137,-0.0610,0.2441,-0.1221,1,466,0,21
140487398,383,-0.0283,-0.1436,1.0146,-0.1221,0.3662,-0.1221,1,466,0,21
140493403,384,-0.0269,-0.1440,1.0127,0.0000,0.2441,-0.2441,1,466,0,21
140497732,385,-0.0254,-0.1440,1.0122,-0.0610,0.3052,-0.1831,1,483,0,21
140500999,386,-0.0254,-0.1436,1.0142,0.0000,0.2441,-0.1831,1,475,0,21
140506186,387,-0.0264,-0.1426,1.0156,0.0610,0.1831,-0.1831,1,466,0,21
140511408,388,-0.0278,-0.1421,1.0166,0.0610,0.1831,-0.1221,1,466,0,21
140517418,389,-0.0278,-0.1411,1.0156,0.0000,0.1831,-0.1831,1,466,0,21
140520744,390,-0.0273,-0.1411,1.0151,0.0610,0.2441,-0.1221,1,483,0,21
140524404,391,-0.0273,-0.1411,1.0151,0.0610,0.2441,-0.1221,1,466,0,21
140529401,392,-0.0283,-0.1421,1.0146,0.0000,0.1831,-0.2441,1,467,0,21
140535394,393,-0.0244,-0.1436,1.0171,-0.0610,0.2441,-0.2441,1,466,0,21
140541406,394,-0.0249,-0.1426,1.0176,-0.0610,0.3662,-0.1221,1,466,0,21
140548371,395,-0.0264,-0.1431,1.0171,-0.1221,0.4272,-0.1831,1,467,0,21
140554405,396,-0.0273,-0.1426,1.0166,0.0000,0.2441,-0.1221,1,466,0,22
140560417,397,-0.0278,-0.1416,1.0166,-0.1831,0.2441,-0.1221,1,466,0,22
140565725,398,-0.0283,-0.1431,1.0151,-0.1221,0.3052,-0.0610,1,483,0,22
140569408,399,-0.0283,-0.1431,1.0151,-0.1221,0.3052,-0.0610,1,466,0,22
140575401,400,-0.0264,-0.1450,1.0137,-0.1831,0.4272,-0.1831,1,467,0,22
140579402,401,-0.0264,-0.1450,1.0137,-0.1831,0.4272,-0.1831,1,466,0,22
140586398,402,-0.0288,-0.1440,1.0103,0.0000,0.0610,-0.1221,1,466,0,22
140590720,403,-0.0273,-0.1436,1.0122,0.0610,0.0610,-0.1831,1,483,0,22
140594408,404,-0.0229,-0.1431,1.0161,0.0000,0.1831,-0.1221,1,467,0,22
140601381,405,-0.0215,-0.1426,1.0181,-0.0610,0.4883,-0.0610,1,466,0,22
140608401,406,-0.0244,-0.1426,1.0161,-0.0610,0.3662,-0.1221,1,466,0,22
140613791,407,-0.0273,-0.1416,1.0142,-0.0610,0.3052,-0.1831,1,475,0,22
140619161,408,-0.0249,-0.1416,1.0151,-0.0610,0.4272,-0.0610,1,500,0,22
140621459,409,-0.0249,-0.1416,1.0151,-0.0610,0.4272,-0.0610,1,466,0,22
140627403,410,-0.0244,-0.1416,1.0151,-0.1831,0.4883,-0.1221,1,480,0,22
140629845,411,-0.0259,-0.1416,1.0146,-0.1221,0.3662,-0.1831,1,466,0,22
140634403,412,-0.0264,-0.1416,1.0146,-0.1831,0.4883,-0.2441,1,466,0,22
140640405,413,-0.0273,-0.1421,1.0132,-0.1831,0.4883,-0.1221,1,466,0,22
140647400,414,-0.0288,-0.1431,1.0117,-0.0610,0.4272,-0.1831,1,466,0,22
140653404,415,-0.0283,-0.1445,1.0132,0.0000,0.2441,-0.1831,1,466,0,22
140654715,416,-0.0283,-0.1445,1.0132,0.0000,0.2441,-0.1831,1,484,0,22
140663015,417,-0.0278,-0.1431,1.0127,0.0000,0.3052,-0.1831,1,497,0,22
140669375,418,-0.0283,-0.1416,1.0137,0.0610,0.3052,-0.1221,1,466,0,22
140670713,419,-0.0283,-0.1416,1.0137,0.0610,0.3052,-0.1221,1,483,0,22
140681418,420,-0.0269,-0.1411,1.0151,-0.0610,0.3662,-0.1221,1,466,0,23
140687400,421,-0.0269,-0.1421,1.0151,0.0000,0.2441,-0.1831,1,483,0,23
140693414,422,-0.0273,-0.1440,1.0142,-0.0610,0.3662,-0.0610,1,466,0,23
140694792,423,-0.0273,-0.1440,1.0142,-0.0610,0.3662,-0.0610,1,472,0,23
140705405,424,-0.0273,-0.1445,1.0142,-0.1221,0.1831,-0.1221,1,466,0,24
140712372,425,-0.0269,-0.1431,1.0151,-0.1221,0.1831,-0.1831,1,467,0,24
140719391,426,-0.0259,-0.1426,1.0156,0.0610,0.1831,-0.1831,1,467,0,24
140725394,427,-0.0259,-0.1436,1.0151,-0.0610,0.2441,-0.1221,1,466,0,25
140731473,428,-0.0269,-0.1445,1.0142,-0.1221,0.1831,-0.1831,1,466,0,25
140737418,429,-0.0273,-0.1436,1.0112,0.0610,0.2441,-0.0610,1,466,0,25
140743399,430,-0.0254,-0.1436,1.0127,-0.0610,0.1831,-0.1831,1,466,0,25
140744751,431,-0.0254,-0.1436,1.0127,-0.0610,0.1831,-0.1831,1,483,0,25
140754140,432,-0.0249,-0.1436,1.0137,-0.0610,0.1221,-0.1221,1,467,0,25
140755488,433,-0.0249,-0.1436,1.0137,-0.0610,0.1221,-0.1221,1,466,0,25
140760945,434,-0.0269,-0.1431,1.0137,0.0000,0.1221,-0.1221,1,495,0,25
140766409,435,-0.0288,-0.1436,1.0142,-0.0610,0.1831,-0.1221,1,466,0,25
140773376,436,-0.0278,-0.1436,1.0151,0.0000,0.1831,-0.1221,1,466,0,25
140774682,437,-0.0278,-0.1436,1.0151,0.0000,0.1831,-0.1221,1,466,0,25
140780999,438,-0.0278,-0.1436,1.0142,0.0000,0.1221,-0.1831,1,533,0,25
140784399,439,-0.0273,-0.1431,1.0127,-0.0610,0.0610,-0.1831,1,467,0,25
140791384,440,-0.0259,-0.1411,1.0156,0.0610,0.0000,-0.1221,1,466,0,25
140794401,441,-0.0259,-0.1411,1.0156,0.0610,0.0000,-0.1221,1,466,0,25
140799405,442,-0.0249,-0.1411,1.0166,0.0000,0.1221,-0.1831,1,466,0,25
140804406,443,-0.0254,-0.1416,1.0161,0.0000,0.0610,-0.1831,1,466,0,25
140809406,444,-0.0269,-0.1426,1.0156,0.1221,0.0610,-0.2441,1,466,0,25
140814400,445,-0.0269,-0.1426,1.0146,0.0610,-0.0610,-0.3052,1,466,0,25
140821380,446,-0.0264,-0.1416,1.0151,0.0610,0.1831,-0.0610,1,467,0,25
140825672,447,-0.0264,-0.1416,1.0151,0.0610,0.1831,-0.0610,1,466,0,25
140829408,448,-0.0283,-0.1421,1.0151,0.0000,0.1221,-0.0610,1,467,0,25
140834407,449,-0.0293,-0.1436,1.0142,0.0610,0.1221,-0.1831,1,466,0,25
140839407,450,-0.0278,-0.1436,1.0127,0.1221,0.0610,-0.1831,1,466,0,25
140844399,451,-0.0269,-0.1426,1.0137,0.0610,0.0000,-0.1221,1,466,0,25
140851380,452,-0.0259,-0.1431,1.0171,0.0610,0.2441,-0.1831,1,466,0,25
140857412,453,-0.0259,-0.1431,1.0156,0.0000,0.0610,-0.1221,1,466,0,25
140864379,454,-0.0269,-0.1436,1.0137,-0.1221,0.0610,-0.1831,1,466,0,25
140870414,455,-0.0278,-0.1411,1.0132,0.0610,0.0610,-0.1221,1,467,0,26
140874404,456,-0.0278,-0.1411,1.0132,0.0610,0.0610,-0.1221,1,466,0,26
140879690,457,-0.0278,-0.1411,1.0122,-0.0610,0.1831,-0.1221,1,467,0,26
140886381,458,-0.0283,-0.1431,1.0137,0.1221,0.1221,-0.3052,1,466,0,26
140889406,459,-0.0283,-0.1431,1.0137,0.1221,0.1221,-0.3052,1,467,0,26
140894399,460,-0.0273,-0.1426,1.0151,0.1831,0.1221,-0.1221,1,466,0,26
140901398,461,-0.0254,-0.1421,1.0161,0.0000,0.0610,-0.1831,1,466,0,26
140908386,462,-0.0254,-0.1421,1.0161,0.0610,0.0000,-0.1831,1,466,0,26
140909690,463,-0.0259,-0.1421,1.0146,0.0000,0.1831,-0.1831,1,466,0,26
140916006,464,-0.0264,-0.1431,1.0151,0.0610,0.0000,-0.1831,1,5504,0,26
140926411,465,-0.0278,-0.1431,1.0171,0.1831,0.0000,-0.1831,1,466,0,27
140929742,466,-0.0278,-0.1426,1.0156,0.1221,0.1221,-0.2441,1,483,0,27
140936370,467,-0.0273,-0.1431,1.0146,0.0610,0.0000,-0.2441,1,466,0,27
140943388,468,-0.0269,-0.1436,1.0146,0.1221,0.1221,-0.2441,1,466,0,27
140949394,469,-0.0278,-0.1431,1.0142,0.1831,0.1221,-0.2441,1,466,0,27
140955404,470,-0.0288,-0.1431,1.0127,0.1831,0.0610,-0.1831,1,466,0,28
140961415,471,-0.0288,-0.1426,1.0112,0.1831,-0.1221,-0.1221,1,466,0,28
140967396,472,-0.0278,-0.1426,1.0107,0.1221,-0.2441,-0.1831,1,466,0,28
140974396,473,-0.0254,-0.1440,1.0151,0.0000,-0.0610,-0.2441,1,466,0,28
140975701,474,-0.0254,-0.1440,1.0151,0.0000,-0.0610,-0.2441,1,466,0,28
140986409,475,-0.0254,-0.1436,1.0142,0.0000,-0.0610,-0.1831,1,466,0,29
140992390,476,-0.0264,-0.1416,1.0137,0.1221,0.0610,-0.1831,1,466,0,29
140994897,477,-0.0264,-0.1411,1.0137,0.1831,-0.0610,-0.3052,1,506,0,29
141001372,478,-0.0264,-0.1416,1.0142,0.1831,0.0000,-0.2441,1,467,0,29
141008390,479,-0.0264,-0.1436,1.0166,0.1831,0.0000,-0.3662,1,466,0,29
141009699,480,-0.0264,-0.1436,1.0166,0.1831,0.0000,-0.3662,1,466,0,29
141014403,481,-0.0273,-0.1431,1.0171,0.2441,0.0000,-0.2441,1,466,0,29
141020716,482,-0.0269,-0.1421,1.0161,0.1831,0.1221,-0.3052,1,484,0,29
141024401,483,-0.0259,-0.1416,1.0161,0.1831,0.0610,-0.2441,1,466,0,29
141030482,484,-0.0259,-0.1421,1.0161,0.2441,-0.0610,-0.2441,1,466,0,29
141037382,485,-0.0254,-0.1421,1.0156,0.1221,0.0610,-0.1831,1,467,0,29
141043416,486,-0.0264,-0.1406,1.0166,0.1221,0.0000,-0.1831,1,466,0,29
141049397,487,-0.0264,-0.1406,1.0171,0.1221,0.0610,-0.1831,1,466,0,29
141052752,488,-0.0264,-0.1416,1.0156,0.1221,0.0000,-0.0610,1,482,0,29
141058399,489,-0.0269,-0.1431,1.0142,0.0610,-0.0610,-0.1831,1,466,0,29
141059744,490,-0.0269,-0.1431,1.0142,0.0610,-0.0610,-0.1831,1,483,0,29
141064400,491,-0.0264,-0.1436,1.0146,0.0610,0.0610,-0.1221,1,466,0,29
141071736,492,-0.0259,-0.1431,1.0151,0.0000,0.1221,-0.1831,1,483,0,29
141076984,493,-0.0269,-0.1426,1.0146,0.0000,0.1221,-0.1831,1,486,0,29
141079399,494,-0.0269,-0.1426,1.0146,0.0000,0.1221,-0.1831,1,466,0,29
141085407,495,-0.0264,-0.1416,1.0146,0.0000,0.1221,-0.2441,1,466,0,29
141089408,496,-0.0254,-0.1416,1.0151,0.1221,0.1221,-0.1221,1,466,0,29
141094407,497,-0.0249,-0.1421,1.0151,0.1221,0.1221,-0.0610,1,467,0,29
141099406,498,-0.0254,-0.1431,1.0146,0.0000,0.0610,-0.0610,1,466,0,29
141106382,499,-0.0259,-0.1426,1.0142,0.0610,0.2441,-0.2441,1,466,0,29
141112415,500,-0.0259,-0.1416,1.0146,0.0610,0.2441,-0.1221,1,467,0,29
141114925,501,-0.0259,-0.1416,1.0146,0.0610,0.2441,-0.1221,1,491,0,29
141119404,502,-0.0269,-0.1416,1.0142,0.0000,0.1831,-0.1221,1,466,0,29
141124742,503,-0.0278,-0.1416,1.0127,-0.0610,0.1831,-0.1831,1,483,0,29
141130391,504,-0.0269,-0.1406,1.0122,-0.1831,0.1831,-0.2441,1,466,0,29
141137389,505,-0.0244,-0.1436,1.0127,0.1221,0.2441,-0.2441,1,466,0,29
141143392,506,-0.0254,-0.1436,1.0132,0.0610,0.2441,-0.2441,1,466,0,29
141149402,507,-0.0269,-0.1431,1.0127,0.0610,0.3662,-0.1831,1,467,0,30
141156368,508,-0.0269,-0.1416,1.0151,-0.0610,0.1831,-0.1831,1,466,0,30
141159749,509,-0.0269,-0.1416,1.0151,-0.0610,0.1831,-0.1831,1,484,0,30
141165395,510,-0.0244,-0.1411,1.0156,0.0610,0.1831,-0.0610,1,467,0,30
141169499,511,-0.0249,-0.1416,1.0151,0.0610,0.1831,-0.2441,1,466,0,30
141174401,512,-0.0269,-0.1426,1.0142,0.0000,0.2441,-0.3052,1,466,0,30
141179404,513,-0.0269,-0.1426,1.0137,0.0000,0.1831,-0.2441,1,466,0,30
141185415,514,-0.0254,-0.1426,1.0156,-0.0610,0.2441,-0.1831,1,466,0,30
141191394,515,-0.0249,-0.1421,1.0166,-0.0610,0.1831,-0.2441,1,466,0,30
141198393,516,-0.0249,-0.1416,1.0166,-0.0610,0.1831,-0.0610,1,466,0,30
141204394,517,-0.0259,-0.1416,1.0161,-0.0610,0.1831,-0.1221,1,466,0,30
141210406,518,-0.0254,-0.1426,1.0137,0.0000,0.4272,-0.1831,1,467,0,31
141216420,519,-0.0264,-0.1445,1.0132,0.0610,0.2441,-0.1831,1,466,0,31
141222399,520,-0.0273,-0.1440,1.0146,0.0000,0.2441,-0.1221,1,466,0,31
141228417,521,-0.0273,-0.1426,1.0146,0.0000,0.1831,-0.2441,1,466,0,31
141234395,522,-0.0259,-0.1416,1.0146,0.1221,0.1221,-0.1831,1,466,0,31
141240404,523,-0.0273,-0.1416,1.0156,0.1831,0.2441,-0.2441,1,466,0,32
141244707,524,-0.0283,-0.1421,1.0161,0.1221,0.3052,-0.1831,1,483,0,32
141249400,525,-0.0273,-0.1426,1.0156,-0.0610,0.3052,0.0000,1,466,0,32
141254406,526,-0.0259,-0.1431,1.0151,0.0000,0.3052,-0.1221,1,467,0,32
141259404,527,-0.0259,-0.1431,1.0146,0.0000,0.3662,-0.1831,1,466,0,32
141265398,528,-0.0264,-0.1426,1.0146,0.0000,0.3052,-0.1831,1,466,0,32
141269732,529,-0.0264,-0.1421,1.0151,0.0000,0.2441,-0.1221,1,484,0,32
141274980,530,-0.0254,-0.1426,1.0151,0.0610,0.2441,-0.1831,1,507,0,32
141279404,531,-0.0244,-0.1431,1.0146,0.0000,0.4272,-0.1831,1,466,0,32
141284406,532,-0.0249,-0.1426,1.0146,-0.0610,0.3052,-0.2441,1,466,0,32
141290461,533,-0.0259,-0.1416,1.0146,0.0000,0.2441,-0.2441,1,466,0,32
141296404,534,-0.0273,-0.1421,1.0142,0.1221,0.1221,-0.1221,1,466,0,32
141299400,535,-0.0278,-0.1431,1.0137,0.0610,0.3052,-0.0610,1,466,0,32
141304406,536,-0.0278,-0.1440,1.0142,0.0000,0.2441,0.0000,1,466,0,32
141310412,537,-0.0273,-0.1445,1.0151,0.1221,0.3052,-0.1831,1,466,0,32
141316393,538,-0.0273,-0.1445,1.0151,0.1831,0.2441,-0.2441,1,466,0,32
141321794,539,-0.0273,-0.1436,1.0146,0.1831,0.2441,-0.3052,1,466,0,32
141326157,540,-0.0273,-0.1416,1.0132,0.1221,0.3052,-0.2441,1,500,0,32
141330461,541,-0.0273,-0.1416,1.0137,0.1221,0.2441,-0.2441,1,466,0,32
141336413,542,-0.0259,-0.1421,1.0156,0.0610,0.3052,-0.1831,1,466,0,32
141339401,543,-0.0259,-0.1416,1.0151,0.1831,0.4883,-0.0610,1,466,0,32
141344407,544,-0.0278,-0.1411,1.0142,0.1221,0.4272,-0.1221,1,466,0,32
141349451,545,-0.0288,-0.1416,1.0137,-0.0610,0.4272,-0.1831,1,466,0,32
141354844,546,-0.0283,-0.1421,1.0137,0.0610,0.3052,-0.0610,1,482,0,32
141359406,547,-0.0278,-0.1421,1.0146,0.0610,0.1831,-0.1831,1,466,0,32
141366388,548,-0.0249,-0.1426,1.0166,-0.0610,0.2441,-0.2441,1,467,0,32
141370774,549,-0.0234,-0.1421,1.0171,0.0610,0.4272,-0.0610,1,467,0,32
141376390,550,-0.0264,-0.1426,1.0151,0.0610,0.4883,-0.1221,1,466,0,32
141379403,551,-0.0288,-0.1431,1.0132,0.2441,0.3662,-0.1221,1,466,0,32
141384780,552,-0.0293,-0.1421,1.0132,0.2441,0.1831,-0.1831,1,480,0,32
141389399,553,-0.0273,-0.1416,1.0146,0.1221,0.3052,-0.1831,1,467,0,32
141395405,554,-0.0264,-0.1426,1.0146,0.1831,0.3662,-0.0610,1,466,0,32
141401414,555,-0.0269,-0.1436,1.0142,0.3052,0.1831,-0.3052,1,466,0,32
141404400,556,-0.0278,-0.1421,1.0161,0.3052,0.3052,-0.2441,1,466,0,32
141409720,557,-0.0269,-0.1416,1.0161,0.1831,0.2441,-0.1831,1,484,0,32
141415114,558,-0.0244,-0.1431,1.0156,0.1831,0.3052,-0.1831,1,489,0,32
141419401,559,-0.0234,-0.1411,1.0166,0.2441,0.3662,-0.3052,1,466,0,32
141425401,560,-0.0254,-0.1387,1.0171,0.1221,0.4272,-0.2441,1,466,0,32
141429404,561,-0.0269,-0.1401,1.0156,0.1221,0.3052,-0.1831,1,466,0,32
141436365,562,-0.0264,-0.1411,1.0146,0.0610,0.4272,-0.1221,1,466,0,32
141443385,563,-0.0264,-0.1411,1.0142,0.0610,0.4883,-0.1831,1,466,0,32
141449390,564,-0.0273,-0.1421,1.0127,-0.1221,0.4272,-0.2441,1,466,0,32
141455400,565,-0.0273,-0.1431,1.0122,0.0000,0.4272,-0.1831,1,466,0,33
141460740,566,-0.0264,-0.1426,1.0132,0.0610,0.4272,-0.2441,1,483,0,33
141467373,567,-0.0283,-0.1426,1.0112,0.0610,0.3662,-0.1221,1,493,0,33
141472855,568,-0.0288,-0.1426,1.0117,0.1221,0.2441,-0.1831,1,470,0,33
141476228,569,-0.0283,-0.1411,1.0137,0.1221,0.2441,-0.1221,1,496,0,33
141479401,570,-0.0283,-0.1411,1.0137,0.1221,0.2441,-0.1221,1,466,0,33
141486710,571,-0.0269,-0.1421,1.0137,-0.0610,0.3052,-0.1831,1,483,0,33
141489973,572,-0.0269,-0.1421,1.0137,-0.0610,0.3052,-0.1831,1,510,0,33
141495407,573,-0.0273,-0.1426,1.0132,0.0000,0.3052,-0.2441,1,466,0,33
141499740,574,-0.0273,-0.1426,1.0132,0.0000,0.3052,-0.2441,1,483,0,33
141504989,575,-0.0278,-0.1411,1.0137,0.0610,0.2441,-0.1831,1,477,0,33
141509402,576,-0.0278,-0.1411,1.0132,0.0000,0.2441,-0.1831,1,466,0,33
141515398,577,-0.0259,-0.1421,1.0137,0.0000,0.3052,-0.1221,1,467,0,33
141522395,578,-0.0259,-0.1416,1.0142,0.0610,0.4883,-0.1831,1,466,0,33
141528413,579,-0.0264,-0.1411,1.0142,0.0610,0.4883,-0.1221,1,466,0,33
141532698,580,-0.0269,-0.1416,1.0142,-0.0610,0.3662,-0.1831,1,467,0,33
141538408,581,-0.0278,-0.1416,1.0137,0.0610,0.2441,-0.2441,1,467,0,33
141543716,582,-0.0283,-0.1421,1.0122,0.0610,0.3052,-0.2441,1,483,0,33
141545974,583,-0.0273,-0.1426,1.0127,0.1221,0.3052,-0.2441,1,509,0,33
141549399,584,-0.0273,-0.1426,1.0127,0.1221,0.3052,-0.2441,1,466,0,33
141556390,585,-0.0259,-0.1421,1.0137,0.0610,0.1831,-0.1831,1,466,0,33
141562395,586,-0.0273,-0.1416,1.0146,0.0610,0.1831,-0.0610,1,466,0,33
141568405,587,-0.0273,-0.1421,1.0156,0.0000,0.1831,-0.1831,1,466,0,33
141570723,588,-0.0264,-0.1421,1.0161,0.0000,0.2441,-0.0610,1,484,0,33
141576034,589,-0.0259,-0.1411,1.0156,0.0000,0.3662,-0.0610,1,489,0,33
141579399,590,-0.0264,-0.1416,1.0156,0.0000,0.3662,-0.1221,1,466,0,33
141584403,591,-0.0269,-0.1431,1.0156,0.0000,0.3052,-0.2441,1,467,0,33
141589773,592,-0.0278,-0.1421,1.0151,-0.0610,0.3052,-0.2441,1,467,0,33
141594406,593,-0.0283,-0.1406,1.0156,-0.1831,0.4272,-0.3052,1,466,0,33
141600389,594,-0.0269,-0.1416,1.0156,-0.1221,0.3052,-0.1831,1,466,0,33
141606399,595,-0.0249,-0.1436,1.0146,-0.0610,0.2441,-0.1221,1,466,0,33
141612411,596,-0.0259,-0.1436,1.0142,-0.1831,0.3052,-0.1831,1,466,0,33
141618392,597,-0.0293,-0.1426,1.0122,0.0000,0.1831,-0.1221,1,467,0,33
141622725,598,-0.0293,-0.1426,1.0122,0.0000,0.1831,-0.1221,1,483,0,33
141628035,599,-0.0283,-0.1416,1.0103,0.0610,0.0610,-0.3052,1,490,0,33
141629437,600,-0.0283,-0.1411,1.0103,0.1221,0.1221,-0.2441,1,466,0,33
141636376,601,-0.0283,-0.1406,1.0132,-0.1221,0.1221,-0.2441,1,466,0,33
141642412,602,-0.0264,-0.1401,1.0151,-0.0610,0.1221,-0.1221,1,466,0,33
141648407,603,-0.0273,-0.1411,1.0146,-0.0610,0.0610,-0.1221,1,466,0,33
141650678,604,-0.0273,-0.1411,1.0146,-0.0610,0.0610,-0.1221,1,466,0,33
141654400,605,-0.0273,-0.1416,1.0142,-0.1221,0.0610,-0.0610,1,466,0,33
141659680,606,-0.0264,-0.1406,1.0146,-0.1221,0.1831,-0.0610,1,466,0,33
141664401,607,-0.0254,-0.1411,1.0156,-0.0610,0.2441,-0.0610,1,466,0,33
141670394,608,-0.0259,-0.1421,1.0156,-0.1831,0.1831,-0.1221,1,467,0,33
141674404,609,-0.0264,-0.1426,1.0137,-0.1831,0.0610,-0.1221,1,466,0,33
141680404,610,-0.0273,-0.1436,1.0117,-0.2441,0.2441,-0.1831,1,466,0,33
141684704,611,-0.0273,-0.1436,1.0117,-0.1831,0.2441,-0.1831,1,483,0,33
141690416,612,-0.0273,-0.1440,1.0132,-0.0610,0.1221,-0.1831,1,466,0,33
141696395,613,-0.0278,-0.1436,1.0132,-0.0610,0.0000,-0.1221,1,466,0,33
141701734,614,-0.0273,-0.1431,1.0132,-0.1221,0.0610,-0.2441,1,483,0,33
141704999,615,-0.0259,-0.1431,1.0132,0.0000,0.1221,-0.3052,1,499,0,33
141711390,616,-0.0264,-0.1426,1.0132,0.1221,0.1831,-0.3052,1,466,0,33
141718376,617,-0.0264,-0.1416,1.0146,0.1831,0.0610,-0.2441,1,466,0,33
141721753,618,-0.0264,-0.1416,1.0146,0.1831,0.0610,-0.2441,1,478,0,33
141724402,619,-0.0273,-0.1411,1.0142,0.2441,0.0000,-0.1831,1,466,0,33
141729748,620,-0.0278,-0.1416,1.0137,0.3052,0.0610,0.0000,1,482,0,33
141735396,621,-0.0273,-0.1431,1.0137,0.1831,0.0610,-0.1221,1,466,0,33
141742365,622,-0.0269,-0.1426,1.0146,0.1831,0.0000,-0.2441,1,466,0,33
141744416,623,-0.0269,-0.1426,1.0146,0.1831,0.0000,-0.2441,1,466,0,33
141750410,624,-0.0278,-0.1431,1.0156,0.2441,-0.0610,-0.1831,1,466,0,33
141756392,625,-0.0273,-0.1421,1.0151,0.0610,-0.0610,-0.1221,1,467,0,33
141763389,626,-0.0269,-0.1416,1.0171,0.1221,-0.0610,-0.0610,1,466,0,33
141769393,627,-0.0259,-0.1421,1.0181,0.0610,0.0610,-0.1221,1,466,0,33
141771743,628,-0.0264,-0.1431,1.0161,-0.0610,0.0000,-0.1831,1,483,0,33
141777082,629,-0.0259,-0.1426,1.0146,-0.1831,0.0000,-0.1831,1,495,0,33
141782393,630,-0.0254,-0.1416,1.0146,-0.1831,0.0610,-0.1221,1,466,0,33
141789390,631,-0.0264,-0.1421,1.0151,-0.1221,0.0000,-0.1221,1,466,0,33
141791698,632,-0.0264,-0.1436,1.0142,0.0000,0.1221,-0.0610,1,466,0,33
141794400,633,-0.0264,-0.1436,1.0142,0.0000,0.1221,-0.0610,1,466,0,33
141799399,634,-0.0264,-0.1440,1.0132,0.0610,0.0000,-0.1831,1,466,0,33
141804400,635,-0.0269,-0.1426,1.0142,0.0610,-0.0610,-0.1831,1,466,0,33
141810410,636,-0.0269,-0.1431,1.0132,0.0610,-0.2441,-0.1831,1,466,0,33
141816389,637,-0.0264,-0.1431,1.0127,0.1831,-0.0610,-0.1221,1,466,0,33
141819401,638,-0.0264,-0.1431,1.0127,0.1831,-0.0610,-0.1221,1,466,0,33
141824780,639,-0.0273,-0.1431,1.0122,0.2441,-0.1221,-0.2441,1,477,0,33
141829407,640,-0.0278,-0.1426,1.0127,0.2441,-0.3052,-0.1831,1,467,0,33
141835401,641,-0.0259,-0.1421,1.0137,0.2441,-0.3052,-0.2441,1,466,0,33
141842369,642,-0.0254,-0.1406,1.0146,0.1221,-0.3052,-0.2441,1,466,0,33
141849387,643,-0.0249,-0.1401,1.0151,0.1831,-0.2441,-0.3052,1,466,0,33
141853770,644,-0.0249,-0.1406,1.0156,0.1831,-0.1221,-0.2441,1,467,0,33
141858135,645,-0.0254,-0.1411,1.0151,0.0610,-0.2441,-0.1831,1,510,0,33
141863386,646,-0.0259,-0.1411,1.0151,0.0610,-0.2441,-0.1221,1,466,0,33
141869398,647,-0.0264,-0.1406,1.0156,0.1221,-0.3052,-0.1831,1,466,0,33
141871747,648,-0.0264,-0.1406,1.0146,0.0610,-0.2441,-0.1221,1,482,0,33
141874403,649,-0.0264,-0.1406,1.0146,0.0610,-0.2441,-0.1221,1,466,0,33
141881370,650,-0.0244,-0.1421,1.0156,0.0000,-0.1221,-0.1221,1,467,0,33
141884401,651,-0.0249,-0.1426,1.0146,0.0610,-0.1221,-0.1831,1,466,0,33
141889405,652,-0.0259,-0.1416,1.0132,0.1221,-0.1831,-0.3052,1,466,0,33
141895398,653,-0.0259,-0.1416,1.0137,0.0610,0.1221,-0.3052,1,466,0,33
141899400,654,-0.0259,-0.1416,1.0156,-0.0610,0.0610,-0.3052,1,466,0,33
141904402,655,-0.0264,-0.1411,1.0166,0.0000,0.0610,-0.1831,1,467,0,33
141910382,656,-0.0269,-0.1401,1.0151,0.0610,0.0610,-0.1831,1,466,0,33
141917379,657,-0.0269,-0.1396,1.0142,-0.3052,0.1221,-0.1831,1,466,0,33
141923383,658,-0.0269,-0.1387,1.0137,0.0000,0.1221,-0.1221,1,466,0,33
141929397,659,-0.0249,-0.1387,1.0151,-0.1221,0.1831,-0.1831,1,466,0,33
141930744,660,-0.0249,-0.1387,1.0151,-0.1221,0.1831,-0.1831,1,483,0,33
141941389,661,-0.0244,-0.1396,1.0166,-0.1831,0.1221,-0.1221,1,466,0,34
141947402,662,-0.0239,-0.1401,1.0161,-0.1831,0.2441,-0.1831,1,490,0,34
141953413,663,-0.0269,-0.1426,1.0161,-0.3662,0.2441,-0.3052,1,466,0,34
141955759,664,-0.0269,-0.1426,1.0161,-0.3662,0.2441,-0.3052,1,471,0,34
141960124,665,-0.0273,-0.1431,1.0156,-0.2441,0.1831,-0.1831,1,487,0,34
141965407,666,-0.0264,-0.1416,1.0146,-0.3052,0.3052,-0.1221,1,466,0,34
141972372,667,-0.0264,-0.1401,1.0142,-0.1831,0.1831,-0.1831,1,466,0,34
141976757,668,-0.0269,-0.1396,1.0146,-0.2441,0.4272,-0.1221,1,473,0,34
141979401,669,-0.0264,-0.1416,1.0161,-0.3052,0.3052,-0.1221,1,466,0,34
141985395,670,-0.0259,-0.1431,1.0156,-0.3052,0.3052,-0.0610,1,467,0,34
141989405,671,-0.0264,-0.1431,1.0132,-0.3662,0.3052,0.0000,1,466,0,34
141994731,672,-0.0264,-0.1436,1.0112,-0.3662,0.2441,-0.0610,1,483,0,34
141999399,673,-0.0249,-0.1431,1.0132,-0.4883,0.3662,-0.0610,1,466,0,34
142004401,674,-0.0254,-0.1416,1.0156,-0.3052,0.3052,0.0610,1,466,0,34
142009687,675,-0.0259,-0.1411,1.0156,-0.3052,0.3052,0.0000,1,466,0,34
142015395,676,-0.0264,-0.1426,1.0142,-0.4883,0.3052,-0.0610,1,466,0,34
142022391,677,-0.0273,-0.1421,1.0132,-0.3662,0.4272,-0.1221,1,466,0,34
142028395,678,-0.0264,-0.1436,1.0146,-0.3662,0.3662,-0.0610,1,466,0,34
142034405,679,-0.0254,-0.1440,1.0166,-0.3052,0.3052,-0.0610,1,466,0,35
142039406,680,-0.0259,-0.1431,1.0166,-0.3052,0.3052,-0.0610,1,466,0,35
142044403,681,-0.0254,-0.1426,1.0146,-0.1221,0.3662,-0.1831,1,466,0,35
142051383,682,-0.0259,-0.1431,1.0137,-0.2441,0.3662,-0.1831,1,466,0,35
142055767,683,-0.0264,-0.1436,1.0146,-0.1831,0.3052,-0.1831,1,466,0,35
142060038,684,-0.0254,-0.1440,1.0156,-0.0610,0.3052,-0.1831,1,491,0,35
142064402,685,-0.0249,-0.1440,1.0156,-0.0610,0.3662,-0.0610,1,466,0,35
142069406,686,-0.0249,-0.1431,1.0142,0.0000,0.3662,-0.1831,1,466,0,35
142074407,687,-0.0259,-0.1416,1.0132,0.0000,0.3052,-0.1831,1,466,0,35
142080394,688,-0.0259,-0.1401,1.0142,-0.1831,0.3662,-0.1221,1,467,0,35
142087361,689,-0.0249,-0.1416,1.0151,0.0000,0.5493,-0.1221,1,466,0,35
142089413,690,-0.0249,-0.1416,1.0151,0.0000,0.5493,-0.1221,1,466,0,35
142095409,691,-0.0254,-0.1406,1.0156,-0.0610,0.4272,0.1221,1,466,0,35
142099399,692,-0.0244,-0.1406,1.0151,-0.2441,0.4272,-0.0610,1,466,0,35
142104407,693,-0.0244,-0.1426,1.0142,-0.2441,0.4883,-0.0610,1,466,0,35
142109404,694,-0.0254,-0.1445,1.0146,-0.1831,0.3662,-0.1221,1,466,0,35
142114406,695,-0.0259,-0.1440,1.0146,-0.1831,0.4272,-0.1221,1,466,0,35
142119408,696,-0.0264,-0.1426,1.0142,-0.2441,0.3662,-0.0610,1,467,0,35
142125408,697,-0.0264,-0.1421,1.0142,-0.3662,0.6714,-0.0610,1,466,0,35
142129407,698,-0.0254,-0.1431,1.0137,-0.2441,0.5493,-0.1221,1,466,0,35
142134401,699,-0.0269,-0.1426,1.0132,-0.2441,0.6104,-0.1221,1,466,0,35
142140392,700,-0.0293,-0.1445,1.0146,-0.3052,0.3662,-0.1221,1,466,0,35
142146471,701,-0.0288,-0.1450,1.0142,-0.1831,0.3052,-0.0610,1,466,0,35
142149404,702,-0.0288,-0.1450,1.0142,-0.1831,0.3052,-0.0610,1,466,0,35
142156363,703,-0.0293,-0.1426,1.0146,-0.0610,0.3662,-0.1221,1,466,0,35
142163381,704,-0.0269,-0.1421,1.0146,0.0610,0.0610,0.0610,1,466,0,35
142169384,705,-0.0239,-0.1436,1.0137,-0.1221,0.1831,0.0000,1,466,0,35
142175395,706,-0.0278,-0.1450,1.0137,0.2441,0.1831,-0.1221,1,466,0,36
142181408,707,-0.0283,-0.1455,1.0137,0.0610,0.1831,0.0000,1,466,0,36
142188389,708,-0.0273,-0.1455,1.0127,0.1831,0.1221,-0.1221,1,466,0,36
142190782,709,-0.0273,-0.1450,1.0122,0.0000,0.1221,-0.0610,1,473,0,36
142197377,710,-0.0269,-0.1445,1.0117,0.0000,0.0610,-0.0610,1,467,0,36
142204365,711,-0.0239,-0.1445,1.0146,0.1221,0.0610,-0.1221,1,467,0,36
142205705,712,-0.0239,-0.1445,1.0146,0.1221,0.0610,-0.1221,1,483,0,36
142216410,713,-0.0249,-0.1426,1.0142,-0.0610,0.1831,-0.0610,1,466,0,37
142222393,714,-0.0254,-0.1426,1.0146,0.1221,0.1221,0.0610,1,466,0,37
142229360,715,-0.0264,-0.1416,1.0166,-0.0610,0.2441,-0.0610,1,466,0,37
142235394,716,-0.0278,-0.1426,1.0166,-0.0610,0.1221,0.0610,1,466,0,38
142242359,717,-0.0269,-0.1436,1.0151,-0.0610,0.1221,-0.0610,1,466,0,38
142248410,718,-0.0254,-0.1431,1.0142,-0.2441,0.0610,-0.1221,1,466,0,38
142252695,719,-0.0254,-0.1426,1.0151,-0.0610,-0.0610,0.0610,1,466,0,38
142255049,720,-0.0264,-0.1431,1.0176,-0.0610,0.2441,-0.0610,1,499,0,38
142259400,721,-0.0269,-0.1426,1.0166,-0.0610,0.1831,-0.0610,1,466,0,38
142264402,722,-0.0273,-0.1426,1.0137,-0.0610,0.1221,-0.0610,1,466,0,38
142271381,723,-0.0273,-0.1431,1.0132,-0.1831,0.1831,0.0610,1,466,0,38
142278372,724,-0.0278,-0.1445,1.0137,-0.0610,0.1221,-0.0610,1,466,0,38
142284405,725,-0.0288,-0.1440,1.0132,-0.1221,0.0000,0.0000,1,466,0,39
142290384,726,-0.0288,-0.1431,1.0151,-0.0610,0.1221,0.0610,1,466,0,39
142297383,727,-0.0273,-0.1426,1.0171,0.0610,0.1221,-0.0610,1,466,0,39
142303386,728,-0.0254,-0.1431,1.0161,-0.1221,0.2441,-0.0610,1,466,0,39
142304726,729,-0.0254,-0.1431,1.0161,-0.1221,0.2441,-0.0610,1,483,0,39
142309403,730,-0.0269,-0.1421,1.0142,-0.1221,0.1831,-0.0610,1,466,0,39
142320384,731,-0.0259,-0.1436,1.0142,0.0610,0.3052,-0.0610,1,466,0,40
142324403,732,-0.0249,-0.1426,1.0146,-0.1221,0.1831,-0.0610,1,466,0,40
142329402,733,-0.0239,-0.1416,1.0156,-0.1221,0.2441,-0.1221,1,466,0,40
142336383,734,-0.0244,-0.1436,1.0146,-0.0610,0.3052,-0.0610,1,466,0,40
142343373,735,-0.0269,-0.1450,1.0132,0.0000,0.3052,-0.1221,1,467,0,40
142345681,736,-0.0269,-0.1450,1.0132,0.0000,0.3052,-0.1221,1,466,0,40
142351391,737,-0.0273,-0.1431,1.0132,0.0610,0.3662,-0.1831,1,466,0,40
142358388,738,-0.0283,-0.1436,1.0137,0.0000,0.3662,-0.0610,1,466,0,40
142359693,739,-0.0283,-0.1436,1.0137,0.0000,0.3662,-0.0610,1,466,0,40
142366959,740,-0.0254,-0.1436,1.0151,0.0610,0.3662,-0.1221,1,498,0,40
142372386,741,-0.0254,-0.1426,1.0156,0.0610,0.3662,-0.0610,1,466,0,40
142379382,742,-0.0269,-0.1426,1.0142,0.1221,0.3662,-0.1221,1,467,0,40
142385385,743,-0.0278,-0.1431,1.0127,0.0000,0.3052,-0.1831,1,466,0,41
142389716,744,-0.0283,-0.1440,1.0117,0.0610,0.4272,-0.2441,1,483,0,41
142396380,745,-0.0254,-0.1431,1.0132,0.1831,0.3052,-0.1831,1,466,0,41
142401770,746,-0.0254,-0.1431,1.0137,0.1221,0.2441,-0.1221,1,482,0,41
142407389,747,-0.0259,-0.1426,1.0142,0.0610,0.3662,-0.1831,1,466,0,41
142413400,748,-0.0264,-0.1426,1.0151,0.0610,0.3052,-0.2441,1,466,0,41
142414747,749,-0.0264,-0.1426,1.0151,0.0610,0.3052,-0.2441,1,478,0,41
142425393,750,-0.0254,-0.1436,1.0156,0.1221,0.3052,-0.3052,1,467,0,42
142430468,751,-0.0249,-0.1426,1.0151,0.0610,0.3662,-0.3052,1,466,0,42
142436382,752,-0.0254,-0.1426,1.0142,0.1221,0.3662,-0.1221,1,466,0,42
142439403,753,-0.0254,-0.1426,1.0142,0.1221,0.3662,-0.1221,1,466,0,42
142444400,754,-0.0264,-0.1426,1.0151,0.1221,0.3662,-0.2441,1,466,0,42
142449400,755,-0.0269,-0.1431,1.0156,0.1831,0.4883,-0.1831,1,466,0,42
142454402,756,-0.0269,-0.1426,1.0156,0.1221,0.4883,-0.2441,1,466,0,42
142460464,757,-0.0269,-0.1426,1.0161,0.1221,0.3052,-0.1221,1,466,0,42
142464407,758,-0.0269,-0.1426,1.0161,0.1221,0.3052,-0.1221,1,466,0,42
142471361,759,-0.0259,-0.1426,1.0166,-0.1221,0.4272,-0.1831,1,466,0,42
142478381,760,-0.0264,-0.1406,1.0181,-0.1831,0.5493,-0.1831,1,466,0,42
142482765,761,-0.0264,-0.1396,1.0176,-0.1831,0.5493,-0.1831,1,466,0,42
142486121,762,-0.0264,-0.1406,1.0171,-0.3052,0.6104,-0.1221,1,487,0,42
142489483,763,-0.0264,-0.1406,1.0171,-0.3052,0.6104,-0.1221,1,466,0,42
142494399,764,-0.0264,-0.1416,1.0151,-0.2441,0.6104,-0.1831,1,466,0,42
142500405,765,-0.0278,-0.1431,1.0142,-0.2441,0.6104,-0.1831,1,466,0,42
142506386,766,-0.0264,-0.1436,1.0146,-0.1831,0.4883,-0.3052,1,466,0,42
142513384,767,-0.0259,-0.1426,1.0146,-0.1831,0.6104,-0.1831,1,466,0,42
142517767,768,-0.0283,-0.1426,1.0137,-0.1831,0.6104,-0.2441,1,467,0,42
142523139,769,-0.0303,-0.1440,1.0122,0.0000,0.4272,-0.2441,1,500,0,42
142524457,770,-0.0303,-0.1450,1.0132,0.0000,0.4883,-0.3052,1,466,0,42
142529732,771,-0.0278,-0.1460,1.0151,0.0610,0.3662,-0.3052,1,483,0,42
142536363,772,-0.0264,-0.1465,1.0156,0.1831,0.3052,-0.1221,1,466,0,42
142542397,773,-0.0278,-0.1455,1.0142,0.1221,0.3662,-0.2441,1,466,0,42
142548402,774,-0.0303,-0.1436,1.0127,0.1831,0.3052,-0.2441,1,467,0,42
142551765,775,-0.0298,-0.1426,1.0132,0.0610,0.2441,-0.2441,1,466,0,42
142557045,776,-0.0273,-0.1421,1.0146,0.1831,0.2441,-0.2441,1,502,0,42
142562385,777,-0.0249,-0.1431,1.0156,0.1831,0.3052,-0.2441,1,467,0,42
142568397,778,-0.0254,-0.1421,1.0161,0.2441,0.3662,-0.1221,1,466,0,42
142569746,779,-0.0273,-0.1421,1.0132,0.2441,0.3052,-0.1831,1,478,0,42
142580393,780,-0.0244,-0.1416,1.0146,0.3052,0.3662,-0.1221,1,467,0,43
142586404,781,-0.0254,-0.1396,1.0151,0.0610,0.3052,-0.3052,1,467,0,43
142589402,782,-0.0264,-0.1436,1.0142,0.1831,0.2441,-0.1831,1,466,0,43
142594732,783,-0.0269,-0.1450,1.0146,0.4272,0.2441,-0.0610,1,484,0,43
142600379,784,-0.0269,-0.1436,1.0142,0.3662,0.4272,-0.2441,1,467,0,43
142606392,785,-0.0273,-0.1431,1.0127,0.1831,0.3662,-0.1221,1,466,0,43
142609485,786,-0.0278,-0.1431,1.0142,0.3052,0.1831,-0.1221,1,466,0,43
142616379,787,-0.0264,-0.1416,1.0156,0.3662,0.3052,-0.2441,1,466,0,43
142620763,788,-0.0239,-0.1416,1.0156,0.3662,0.3662,-0.3052,1,466,0,43
142625127,789,-0.0239,-0.1431,1.0146,0.3052,0.4883,-0.3052,1,510,0,43
142629399,790,-0.0249,-0.1431,1.0151,0.1221,0.3662,-0.1831,1,466,0,43
142635384,791,-0.0264,-0.1426,1.0151,0.1831,0.3662,-0.2441,1,467,0,43
142642383,792,-0.0278,-0.1431,1.0151,0.2441,0.2441,-0.1221,1,467,0,43
142646765,793,-0.0288,-0.1436,1.0156,0.2441,0.3052,-0.3052,1,467,0,43
142652043,794,-0.0278,-0.1421,1.0156,0.1831,0.3662,-0.2441,1,504,0,43
142657386,795,-0.0269,-0.1411,1.0146,0.0610,0.3052,-0.1221,1,466,0,43
142659735,796,-0.0269,-0.1411,1.0146,0.0610,0.3052,-0.1221,1,483,0,43
142664407,797,-0.0283,-0.1416,1.0137,0.0000,0.3662,-0.0610,1,466,0,43
142669747,798,-0.0283,-0.1431,1.0132,0.0000,0.3662,-0.0610,1,477,0,43
142675393,799,-0.0273,-0.1440,1.0137,-0.0610,0.3052,-0.0610,1,466,0,43
142682358,800,-0.0283,-0.1440,1.0137,0.1221,0.2441,-0.1221,1,466,0,43
142688392,801,-0.0283,-0.1426,1.0137,0.1221,0.2441,-0.1221,1,466,0,43
142690742,802,-0.0283,-0.1426,1.0137,0.1221,0.2441,-0.1221,1,481,0,43
142694406,803,-0.0278,-0.1411,1.0151,0.1221,0.1221,-0.1221,1,466,0,43
142699401,804,-0.0269,-0.1421,1.0161,0.0610,0.3052,-0.1221,1,466,0,43
142704688,805,-0.0264,-0.1440,1.0151,0.1831,0.3052,-0.1221,1,466,0,43
142709406,806,-0.0264,-0.1436,1.0142,0.1831,0.1831,-0.1221,1,467,0,43
142714403,807,-0.0269,-0.1426,1.0137,0.2441,0.2441,-0.1831,1,466,0,43
142719733,808,-0.0273,-0.1431,1.0137,0.1831,0.3662,0.0000,1,483,0,43
142724402,809,-0.0273,-0.1431,1.0137,0.3662,0.2441,0.0000,1,466,0,43
142729778,810,-0.0278,-0.1445,1.0127,0.3662,0.2441,-0.0610,1,473,0,43
142735388,811,-0.0293,-0.1450,1.0122,0.3052,0.2441,0.0000,1,466,0,43
142741400,812,-0.0278,-0.1431,1.0132,0.4272,0.2441,-0.1221,1,466,0,43
142747382,813,-0.0278,-0.1426,1.0132,0.4272,0.0610,-0.1221,1,466,0,43
142754381,814,-0.0283,-0.1426,1.0127,0.3662,0.0610,-0.1221,1,466,0,43
142755721,815,-0.0278,-0.1426,1.0127,0.3052,0.1831,0.0000,1,483,0,43
142763037,816,-0.0269,-0.1426,1.0137,0.2441,0.2441,-0.1831,1,510,0,43
142765425,817,-0.0269,-0.1426,1.0137,0.2441,0.2441,-0.1831,1,466,0,43
142771400,818,-0.0264,-0.1416,1.0137,0.1221,0.2441,-0.1221,1,466,0,43
142778365,819,-0.0269,-0.1421,1.0132,0.2441,0.2441,-0.1221,1,466,0,43
142784401,820,-0.0278,-0.1421,1.0132,0.1831,0.1831,-0.1221,1,466,0,44
142790381,821,-0.0264,-0.1426,1.0146,0.1831,0.2441,-0.1831,1,466,0,44
142797378,822,-0.0269,-0.1411,1.0142,0.1221,0.3052,-0.1831,1,466,0,44
142803381,823,-0.0273,-0.1406,1.0132,0.2441,0.1221,-0.1831,1,466,0,44
142809393,824,-0.0264,-0.1416,1.0137,0.3052,0.1831,-0.1831,1,466,0,44
142810744,825,-0.0264,-0.1426,1.0146,0.2441,0.2441,-0.1221,1,478,0,44
142814407,826,-0.0264,-0.1426,1.0146,0.2441,0.2441,-0.1221,1,466,0,44
142820380,827,-0.0303,-0.1440,1.0127,0.3662,0.3662,-0.1831,1,466,0,44
142826392,828,-0.0298,-0.1436,1.0112,0.3052,0.3052,-0.2441,1,467,0,44
142833358,829,-0.0283,-0.1431,1.0137,0.3052,0.3052,-0.2441,1,467,0,44
142839394,830,-0.0278,-0.1426,1.0156,0.3052,0.3052,-0.1831,1,466,0,44
142845403,831,-0.0264,-0.1411,1.0171,2.2583,0.2441,-0.4883,1,466,0,45
142850682,832,-0.0264,-0.1367,1.0112,-0.2441,0.3662,0.0000,1,466,0,45
142856023,833,-0.0269,-0.1382,1.0142,-1.1597,0.3052,0.0610,1,489,0,45
142859407,834,-0.0244,-0.1426,1.0195,-0.5493,0.4272,-0.0610,1,466,0,45
142864407,835,-0.0225,-0.1465,1.0205,0.1221,0.3662,-0.1831,1,466,0,45
142869404,836,-0.0264,-0.1460,1.0137,0.3662,0.3662,-0.3052,1,466,0,45
142875403,837,-0.0298,-0.1431,1.0098,-0.3052,0.1221,-0.0610,1,466,0,45
142880772,838,-0.0303,-0.1421,1.0107,0.0610,0.2441,-0.1831,1,478,0,45
142884405,839,-0.0283,-0.1436,1.0142,0.3052,0.3052,-0.1831,1,466,0,45
142889399,840,-0.0264,-0.1431,1.0166,0.7935,0.3052,-0.3662,1,467,0,45
142895391,841,-0.0269,-0.1426,1.0146,0.4883,0.3052,-0.3052,1,466,0,45
142902359,842,-0.0278,-0.1426,1.0132,0.4883,0.2441,-0.1831,1,466,0,45
142906743,843,-0.0273,-0.1416,1.0142,0.4883,0.2441,-0.3662,1,479,0,45
142911075,844,-0.0269,-0.1406,1.0151,0.4272,0.3052,-0.2441,1,497,0,45
142915469,845,-0.0259,-0.1406,1.0151,0.3052,0.3052,-0.1831,1,466,0,45
142922378,846,-0.0259,-0.1416,1.0146,0.0610,0.1221,-0.1831,1,466,0,45
142928381,847,-0.0278,-0.1436,1.0137,0.0610,0.2441,-0.1221,1,466,0,45
142929731,848,-0.0278,-0.1436,1.0137,0.0610,0.2441,-0.1221,1,483,0,45
142934401,849,-0.0278,-0.1426,1.0137,0.1221,0.3052,-0.1831,1,466,0,45
142943698,850,-0.0273,-0.1431,1.0137,0.1831,0.3662,-0.1221,1,483,0,45
142945043,851,-0.0273,-0.1431,1.0137,0.1831,0.3662,-0.1221,1,540,0,45
142949404,852,-0.0278,-0.1426,1.0146,0.2441,0.3662,-0.2441,1,466,0,45
142955389,853,-0.0278,-0.1431,1.0146,0.2441,0.2441,-0.1221,1,466,0,45
142961402,854,-0.0283,-0.1431,1.0137,0.3052,0.2441,-0.2441,1,466,0,45
142967381,855,-0.0293,-0.1416,1.0132,0.4272,0.1831,-0.1831,1,498,0,45
142969851,856,-0.0303,-0.1416,1.0127,0.3662,0.1221,-0.1221,1,467,0,45
142975378,857,-0.0303,-0.1431,1.0137,0.5493,0.0000,-0.0610,1,466,0,45
142980717,858,-0.0283,-0.1431,1.0146,0.5493,-0.0610,-0.1831,1,483,0,45
142987381,859,-0.0259,-0.1421,1.0137,0.4272,0.0000,-0.3052,1,466,0,45
142994367,860,-0.0259,-0.1421,1.0151,0.5493,0.0000,-0.2441,1,466,0,45
142996678,861,-0.0259,-0.1421,1.0151,0.5493,0.0000,-0.2441,1,466,0,45
143001011,862,-0.0264,-0.1416,1.0166,0.4883,0.0610,-0.1221,1,490,0,45
143006383,863,-0.0269,-0.1416,1.0166,0.3052,0.1221,-0.1831,1,466,0,45
143013382,864,-0.0254,-0.1421,1.0146,0.2441,0.1831,-0.1831,1,466,0,45
143016756,865,-0.0254,-0.1401,1.0137,0.3052,0.1831,-0.1831,1,468,0,45
143022404,866,-0.0264,-0.1401,1.0146,0.3662,0.1221,-0.1831,1,466,0,45
143028407,867,-0.0269,-0.1411,1.0151,0.5493,0.1831,-0.2441,1,466,0,45
143034397,868,-0.0273,-0.1421,1.0161,0.4272,0.1221,-0.1831,1,466,0,45
143040381,869,-0.0269,-0.1416,1.0156,0.3052,0.1221,-0.1221,1,466,0,46
143044403,870,-0.0264,-0.1401,1.0156,0.2441,0.1221,-0.1831,1,467,0,46
143049402,871,-0.0264,-0.1396,1.0166,0.3052,0.1221,-0.1831,1,467,0,46
143054402,872,-0.0269,-0.1401,1.0166,0.1221,0.1221,-0.1831,1,466,0,46
143059726,873,-0.0264,-0.1416,1.0156,0.1831,0.0610,-0.1221,1,483,0,46
143064402,874,-0.0269,-0.1416,1.0151,0.1831,0.3052,-0.0610,1,466,0,46
143070377,875,-0.0278,-0.1401,1.0156,0.1221,0.4272,-0.2441,1,467,0,46
143076389,876,-0.0273,-0.1411,1.0156,0.1831,0.3052,-0.2441,1,466,0,46
143082403,877,-0.0273,-0.1411,1.0146,0.0610,0.3662,-0.2441,1,466,0,46
143086702,878,-0.0283,-0.1406,1.0142,0.0610,0.4272,-0.1831,1,483,0,46
143092134,879,-0.0288,-0.1411,1.0137,0.1221,0.4272,-0.3052,1,500,0,46
143095523,880,-0.0273,-0.1421,1.0142,0.1221,0.3662,-0.1831,1,466,0,46
143099400,881,-0.0273,-0.1421,1.0142,0.1221,0.3662,-0.1831,1,466,0,46
143104405,882,-0.0273,-0.1416,1.0151,0.1221,0.2441,-0.1831,1,466,0,46
143110385,883,-0.0278,-0.1396,1.0156,0.1221,0.3052,-0.2441,1,467,0,46
143117354,884,-0.0269,-0.1406,1.0156,0.2441,0.2441,-0.2441,1,466,0,46
143119722,885,-0.0269,-0.1406,1.0156,0.2441,0.2441,-0.2441,1,484,0,46
143126357,886,-0.0269,-0.1392,1.0166,0.3052,0.4883,-0.2441,1,466,0,46
143133375,887,-0.0269,-0.1396,1.0161,0.1221,0.1831,-0.1831,1,466,0,46
143136751,888,-0.0254,-0.1406,1.0156,0.3052,0.3052,-0.3052,1,472,0,46
143142400,889,-0.0254,-0.1411,1.0151,0.2441,0.4272,-0.3052,1,466,0,46
143148404,890,-0.0269,-0.1406,1.0151,-0.0610,0.3662,-0.2441,1,466,0,46
143154391,891,-0.0273,-0.1401,1.0156,0.0000,0.3662,-0.3662,1,467,0,46
143156712,892,-0.0283,-0.1396,1.0161,-0.0610,0.4272,-0.2441,1,483,0,46
143159407,893,-0.0283,-0.1396,1.0161,-0.0610,0.4272,-0.2441,1,466,0,46
143164402,894,-0.0254,-0.1416,1.0176,-0.1831,0.6104,-0.2441,1,466,0,46
143170383,895,-0.0269,-0.1421,1.0166,-0.1221,0.6104,-0.3052,1,466,0,46
143176462,896,-0.0298,-0.1421,1.0151,-0.1831,0.5493,-0.3052,1,466,0,46
143179408,897,-0.0312,-0.1426,1.0142,-0.0610,0.4883,-0.2441,1,466,0,46
143184405,898,-0.0303,-0.1421,1.0146,0.0000,0.4272,-0.1221,1,466,0,46
143189402,899,-0.0278,-0.1421,1.0151,-0.1221,0.4883,-0.2441,1,466,0,46
143195377,900,-0.0273,-0.1416,1.0142,-0.0610,0.5493,-0.1831,1,466,0,46
143201388,901,-0.0273,-0.1406,1.0142,-0.0610,0.4272,-0.1831,1,466,0,46
143207401,902,-0.0283,-0.1411,1.0156,-0.1221,0.4272,-0.2441,1,496,0,46
143209871,903,-0.0293,-0.1416,1.0156,-0.1221,0.5493,-0.2441,1,495,0,46
143214406,904,-0.0288,-0.1411,1.0151,-0.0610,0.4272,-0.1221,1,466,0,46
143219405,905,-0.0283,-0.1406,1.0151,-0.0610,0.5493,-0.1831,1,466,0,46
143224408,906,-0.0293,-0.1401,1.0151,-0.1221,0.5493,-0.1221,1,466,0,46
143230381,907,-0.0298,-0.1411,1.0146,-0.1831,0.5493,-0.1221,1,466,0,46
143237379,908,-0.0288,-0.1416,1.0146,-0.1221,0.4272,-0.0610,1,467,0,46
143241762,909,-0.0283,-0.1421,1.0142,-0.0610,0.4272,-0.1831,1,467,0,46
143247133,910,-0.0283,-0.1421,1.0132,-0.0610,0.4272,-0.1831,1,498,0,46
143249513,911,-0.0298,-0.1421,1.0127,-0.0610,0.4272,-0.1221,1,466,0,46
143254406,912,-0.0293,-0.1416,1.0137,0.1221,0.3662,-0.1221,1,466,0,46
143260378,913,-0.0283,-0.1421,1.0142,0.0610,0.3052,-0.2441,1,466,0,46
143264401,914,-0.0273,-0.1431,1.0146,0.1221,0.3052,-0.1831,1,466,0,46
143269407,915,-0.0269,-0.1416,1.0166,0.1221,0.3662,-0.1221,1,466,0,46
143274403,916,-0.0273,-0.1406,1.0166,0.0610,0.4272,-0.1221,1,466,0,46
143279401,917,-0.0273,-0.1406,1.0156,0.0610,0.3662,-0.1831,1,466,0,46
143284405,918,-0.0278,-0.1401,1.0146,0.1221,0.4272,-0.1831,1,466,0,46
143289705,919,-0.0288,-0.1401,1.0146,0.0610,0.4272,-0.1221,1,483,0,46
143294401,920,-0.0288,-0.1421,1.0156,0.0610,0.3052,-0.1221,1,466,0,46
143299405,921,-0.0278,-0.1431,1.0161,0.1831,0.3052,-0.1831,1,466,0,46
143304403,922,-0.0269,-0.1426,1.0156,0.1221,0.3662,-0.1221,1,466,0,46
143309724,923,-0.0273,-0.1436,1.0146,0.0610,0.4272,-0.1831,1,483,0,46
143316356,924,-0.0288,-0.1431,1.0142,0.3662,0.2441,-0.0610,1,466,0,46
143323375,925,-0.0298,-0.1411,1.0146,0.2441,0.3662,-0.1831,1,466,0,46
143329378,926,-0.0288,-0.1421,1.0156,0.2441,0.4272,-0.0610,1,466,0,46
143335390,927,-0.0293,-0.1426,1.0151,0.3052,0.4272,-0.1221,1,466,0,47
143339405,928,-0.0303,-0.1426,1.0142,0.2441,0.3052,-0.1831,1,466,0,47
143344727,929,-0.0283,-0.1421,1.0142,0.2441,0.0610,-0.1831,1,483,0,47
143349404,930,-0.0264,-0.1416,1.0161,0.1831,0.1831,-0.0610,1,466,0,47
143355379,931,-0.0254,-0.1406,1.0171,0.0610,0.3052,-0.1831,1,466,0,47
143362377,932,-0.0288,-0.1416,1.0151,0.1831,0.2441,-0.0610,1,466,0,47
143368380,933,-0.0288,-0.1421,1.0146,0.2441,0.2441,0.0000,1,466,0,47
143371703,934,-0.0278,-0.1421,1.0156,0.1831,0.3052,0.0610,1,484,0,47
143374407,935,-0.0278,-0.1421,1.0156,0.1831,0.3052,0.0610,1,466,0,47
143379731,936,-0.0278,-0.1401,1.0166,0.0610,0.2441,-0.1221,1,483,0,47
143385377,937,-0.0283,-0.1396,1.0156,0.0000,0.4883,-0.0610,1,466,0,47
143389749,938,-0.0283,-0.1416,1.0151,-0.0610,0.5493,-0.0610,1,473,0,47
143395388,939,-0.0278,-0.1426,1.0146,0.0610,0.6104,-0.0610,1,466,0,47
143401467,940,-0.0273,-0.1426,1.0151,0.0610,0.3052,-0.1221,1,466,0,47
143404405,941,-0.0273,-0.1426,1.0151,0.0610,0.3052,-0.1221,1,467,0,47
143410371,942,-0.0278,-0.1421,1.0146,0.1221,0.3662,-0.0610,1,466,0,47
143417370,943,-0.0288,-0.1406,1.0156,0.1221,0.3662,-0.1831,1,466,0,47
143423373,944,-0.0283,-0.1396,1.0156,0.1831,0.3662,-0.2441,1,466,0,47
143429384,945,-0.0283,-0.1392,1.0151,0.1221,0.3662,-0.1221,1,466,0,47
143430726,946,-0.0278,-0.1396,1.0151,0.0610,0.3662,-0.2441,1,483,0,47
143434399,947,-0.0278,-0.1396,1.0151,0.0610,0.3662,-0.2441,1,466,0,47
143439404,948,-0.0288,-0.1411,1.0151,0.0000,0.4272,-0.1221,1,467,0,47
143446361,949,-0.0278,-0.1411,1.0166,0.3662,0.3662,-0.1221,1,466,0,47
143449775,950,-0.0278,-0.1411,1.0166,0.3662,0.3662,-0.1221,1,472,0,47
143455385,951,-0.0288,-0.1396,1.0156,-0.0610,0.3052,0.0000,1,466,0,47
143460724,952,-0.0293,-0.1396,1.0156,-0.0610,0.3662,0.0000,1,483,0,47
143464407,953,-0.0293,-0.1396,1.0156,-0.0610,0.3662,0.0000,1,466,0,47
143470398,954,-0.0264,-0.1416,1.0166,-0.1221,0.5493,0.0000,1,467,0,47
143475737,955,-0.0269,-0.1426,1.0156,-0.1831,0.3662,0.0610,1,481,0,47
143479403,956,-0.0269,-0.1426,1.0156,-0.1831,0.3662,0.0610,1,466,0,47
143485384,957,-0.0298,-0.1431,1.0166,0.1221,0.3662,-0.0610,1,466,0,47
143492351,958,-0.0273,-0.1387,1.0166,0.7935,0.0610,0.0000,1,466,0,47
143499371,959,-0.0273,-0.1382,1.0166,-0.1831,0.3662,-0.0610,1,466,0,47
143501708,960,-0.0273,-0.1382,1.0166,-0.1831,0.3662,-0.0610,1,483,0,47
143504402,961,-0.0293,-0.1411,1.0166,-0.0610,0.4883,-0.0610,1,466,0,47
143510377,962,-0.0293,-0.1416,1.0151,0.2441,0.3052,0.1221,1,466,0,47
143517373,963,-0.0293,-0.1406,1.0132,-0.2441,0.6104,-0.0610,1,466,0,47
143523379,964,-0.0298,-0.1416,1.0132,-0.2441,0.5493,-0.1221,1,466,0,47
143529391,965,-0.0293,-0.1421,1.0132,0.1831,0.2441,0.0000,1,466,0,47
143534727,966,-0.0288,-0.1416,1.0132,0.5493,0.4272,-0.2441,1,483,0,48
143540375,967,-0.0303,-0.1401,1.0137,-0.6104,0.3662,0.0610,1,466,0,48
143544407,968,-0.0293,-0.1401,1.0151,-0.6104,0.2441,0.0000,1,466,0,48
143549402,969,-0.0278,-0.1406,1.0156,-0.2441,0.3662,-0.1221,1,466,0,48
143554402,970,-0.0283,-0.1396,1.0156,-0.1221,0.3662,-0.1831,1,466,0,48
143559405,971,-0.0278,-0.1392,1.0151,-0.3052,0.3052,0.0610,1,467,0,48
143564725,972,-0.0283,-0.1406,1.0151,-0.4272,0.3052,0.0610,1,483,0,48
143569402,973,-0.0298,-0.1416,1.0142,-0.1831,0.4272,0.0000,1,466,0,48
143574406,974,-0.0303,-0.1416,1.0122,0.1221,0.3662,-0.1221,1,467,0,48
143579400,975,-0.0303,-0.1421,1.0107,0.0610,0.3052,-0.0610,1,466,0,48
143586376,976,-0.0298,-0.1416,1.0117,0.0000,0.2441,0.1221,1,467,0,48
143589404,977,-0.0278,-0.1406,1.0156,0.0000,0.2441,0.0000,1,466,0,48
143594404,978,-0.0273,-0.1392,1.0176,0.0610,0.3662,-0.1221,1,466,0,48
143600372,979,-0.0283,-0.1396,1.0161,-0.1221,0.4272,-0.0610,1,466,0,48
143606385,980,-0.0278,-0.1411,1.0142,-0.2441,0.3662,-0.0610,1,467,0,48
143613353,981,-0.0293,-0.1416,1.0117,-0.1221,0.3662,-0.0610,1,466,0,48
143619385,982,-0.0308,-0.1411,1.0122,-0.2441,0.3662,-0.0610,1,466,0,48
143624784,983,-0.0298,-0.1406,1.0137,-0.1221,0.3662,-0.1221,1,481,0,49
143629406,984,-0.0283,-0.1396,1.0156,-0.1831,0.3662,0.0000,1,466,0,49
143635375,985,-0.0278,-0.1387,1.0171,-0.1221,0.4883,-0.1221,1,466,0,49
143642372,986,-0.0288,-0.1416,1.0137,-0.1831,0.3662,-0.0610,1,466,0,49
143646758,987,-0.0288,-0.1416,1.0137,-0.1831,0.3662,-0.0610,1,466,0,49
143650113,988,-0.0293,-0.1421,1.0137,-0.2441,0.4272,-0.1221,1,488,0,49
143654404,989,-0.0303,-0.1421,1.0137,-0.1221,0.3662,-0.0610,1,466,0,49
143660369,990,-0.0312,-0.1416,1.0142,-0.1221,0.1831,-0.0610,1,466,0,49
143664404,991,-0.0308,-0.1406,1.0146,-0.2441,0.2441,0.0000,1,466,0,49
143671364,992,-0.0298,-0.1396,1.0156,-0.2441,0.4272,-0.0610,1,466,0,49
143675749,993,-0.0283,-0.1392,1.0142,-0.1221,0.4883,-0.1221,1,471,0,49
143681395,994,-0.0288,-0.1431,1.0127,-0.1831,0.3662,-0.0610,1,467,0,49
143687377,995,-0.0308,-0.1436,1.0117,0.0000,0.4272,-0.1221,1,497,0,49
143689791,996,-0.0308,-0.1436,1.0117,0.0000,0.4272,-0.1221,1,475,0,49
143695375,997,-0.0317,-0.1426,1.0112,0.0000,0.3052,-0.1831,1,466,0,49
143700712,998,-0.0308,-0.1426,1.0117,0.0000,0.1221,-0.1221,1,484,0,49
143706389,999,-0.0303,-0.1416,1.0137,0.1221,0.2441,-0.1831,1,466,0,49
143712438,1000,-0.0303,-0.1406,1.0137,0.0610,0.1831,-0.1221,1,466,0,49
143719369,1001,-0.0293,-0.1396,1.0142,0.0610,0.2441,-0.2441,1,466,0,49
143725371,1002,-0.0293,-0.1396,1.0132,0.0610,0.3052,-0.1831,1,466,0,50
143732369,1003,-0.0293,-0.1406,1.0156,0.0000,0.1221,-0.2441,1,466,0,50
143739357,1004,-0.0273,-0.1406,1.0166,0.0000,0.3052,-0.1221,1,467,0,50
143740659,1005,-0.0269,-0.1416,1.0166,0.0610,0.2441,-0.0610,1,466,0,50
143744399,1006,-0.0269,-0.1416,1.0166,0.0610,0.2441,-0.0610,1,466,0,50
143749401,1007,-0.0273,-0.1426,1.0161,0.0000,0.3052,-0.1831,1,466,0,50
143754399,1008,-0.0273,-0.1416,1.0161,-0.1221,0.4272,-0.1831,1,467,0,50
143759731,1009,-0.0278,-0.1406,1.0161,0.0610,0.3662,-0.1221,1,484,0,50
143766364,1010,-0.0288,-0.1411,1.0151,0.0610,0.3662,-0.0610,1,466,0,50
143769741,1011,-0.0288,-0.1411,1.0151,0.0610,0.3662,-0.0610,1,478,0,50
143774399,1012,-0.0288,-0.1406,1.0161,0.0000,0.4272,0.0000,1,466,0,50
143779403,1013,-0.0278,-0.1401,1.0181,-0.1221,0.6714,-0.0610,1,466,0,50
143785368,1014,-0.0288,-0.1401,1.0156,-0.1221,0.5493,0.0000,1,466,0,50
143789700,1015,-0.0293,-0.1411,1.0151,-0.2441,0.6104,0.0610,1,483,0,50
143794404,1016,-0.0293,-0.1411,1.0151,-0.2441,0.6104,0.0610,1,466,0,50
143800384,1017,-0.0308,-0.1411,1.0146,-0.0610,0.6104,0.1221,1,466,0,50
143807351,1018,-0.0298,-0.1392,1.0142,0.2441,0.3662,0.1831,1,499,0,50
143809812,1019,-0.0273,-0.1392,1.0146,-0.2441,0.6104,0.0610,1,477,0,50
143814406,1020,-0.0278,-0.1421,1.0146,-0.2441,0.7324,0.1221,1,466,0,50
143819405,1021,-0.0303,-0.1436,1.0132,-0.0610,0.6714,0.0000,1,466,0,50
143824406,1022,-0.0312,-0.1431,1.0137,-0.1221,0.5493,0.0000,1,466,0,50
143829400,1023,-0.0317,-0.1426,1.0132,-0.1221,0.4272,-0.0610,1,466,0,50
143834405,1024,-0.0322,-0.1416,1.0112,-0.0610,0.4272,0.0610,1,466,0,50
143839405,1025,-0.0322,-0.1416,1.0103,0.0000,0.4272,-0.1221,1,466,0,50
143845396,1026,-0.0308,-0.1421,1.0117,0.0000,0.2441,-0.1221,1,466,0,50
143849728,1027,-0.0288,-0.1426,1.0142,-0.0610,0.1831,-0.0610,1,483,0,50
143854406,1028,-0.0283,-0.1426,1.0142,-0.0610,0.3052,-0.1221,1,466,0,50
143859407,1029,-0.0303,-0.1426,1.0132,0.1221,0.3052,-0.1831,1,466,0,50
143864405,1030,-0.0317,-0.1440,1.0132,-0.0610,0.1221,-0.1221,1,466,0,50
143869400,1031,-0.0317,-0.1440,1.0132,-0.1221,0.1831,-0.0610,1,466,0,50
143874406,1032,-0.0308,-0.1431,1.0137,0.0000,0.0610,-0.0610,1,467,0,50
143879400,1033,-0.0303,-0.1411,1.0146,0.0610,0.0000,0.0000,1,467,0,50
143885373,1034,-0.0308,-0.1401,1.0151,0.0610,0.0000,0.0610,1,466,0,50
143890712,1035,-0.0308,-0.1411,1.0171,0.1221,0.0000,0.0610,1,483,0,50
143896392,1036,-0.0303,-0.1416,1.0161,0.4272,0.0000,0.0000,1,466,0,50
143902372,1037,-0.0303,-0.1421,1.0146,-0.1831,0.0000,0.0000,1,466,0,50
143908386,1038,-0.0288,-0.1431,1.0142,0.1221,0.0000,-0.0610,1,466,0,50
143912715,1039,-0.0288,-0.1431,1.0142,0.1221,0.0000,-0.0610,1,483,0,50
143918393,1040,-0.0278,-0.1406,1.0171,0.1831,0.1831,0.0000,1,466,0,50
143920712,1041,-0.0278,-0.1406,1.0171,0.1831,0.1831,0.0000,1,483,0,50
143925046,1042,-0.0283,-0.1392,1.0171,-0.0610,0.1831,0.0610,1,503,0,50
143930387,1043,-0.0298,-0.1387,1.0151,0.0000,0.0000,0.1221,1,466,0,50
143937352,1044,-0.0308,-0.1401,1.0127,0.0610,-0.0610,0.0610,1,466,0,50
143944374,1045,-0.0308,-0.1440,1.0127,0.0610,0.0610,-0.1221,1,466,0,50
143945710,1046,-0.0308,-0.1440,1.0127,0.0610,0.0610,-0.1221,1,483,0,50
143952054,1047,-0.0312,-0.1431,1.0112,0.1221,-0.0610,0.0000,1,5510,0,50
143962371,1048,-0.0283,-0.1406,1.0137,0.2441,-0.1221,-0.1221,1,467,0,51
143969366,1049,-0.0283,-0.1396,1.0161,0.2441,-0.1831,-0.1221,1,466,0,51
143972744,1050,-0.0293,-0.1396,1.0161,0.1831,-0.2441,-0.1221,1,474,0,51
143975007,1051,-0.0293,-0.1396,1.0161,0.1831,-0.2441,-0.1221,1,485,0,51
143979407,1052,-0.0303,-0.1401,1.0142,0.1221,-0.0610,-0.1221,1,466,0,51
143984401,1053,-0.0293,-0.1401,1.0132,0.1221,-0.1831,-0.1221,1,466,0,51
143989402,1054,-0.0278,-0.1401,1.0127,0.2441,-0.0610,-0.0610,1,466,0,51
143994399,1055,-0.0278,-0.1411,1.0127,0.1831,0.0000,-0.1221,1,466,0,51
144000394,1056,-0.0293,-0.1411,1.0142,0.1221,0.0000,-0.1221,1,467,0,51
144006376,1057,-0.0293,-0.1431,1.0161,0.1221,0.0000,-0.1221,1,466,0,51
144011714,1058,-0.0283,-0.1440,1.0161,0.1221,0.1221,-0.0610,1,483,0,51
144018346,1059,-0.0288,-0.1436,1.0146,0.1221,0.1831,-0.1221,1,466,0,51
144019689,1060,-0.0288,-0.1436,1.0146,0.1221,0.1831,-0.1221,1,483,0,51
144029080,1061,-0.0303,-0.1401,1.0132,0.2441,-0.0610,-0.1221,1,493,0,51
144034392,1062,-0.0298,-0.1411,1.0137,0.3662,0.0610,-0.1221,1,466,0,51
144035734,1063,-0.0298,-0.1411,1.0137,0.3662,0.0610,-0.1221,1,481,0,51
144039404,1064,-0.0283,-0.1426,1.0146,0.3662,-0.1221,-0.1221,1,467,0,51
144045378,1065,-0.0278,-0.1431,1.0151,0.3052,-0.0610,-0.1831,1,466,0,51
144051390,1066,-0.0298,-0.1406,1.0161,0.1831,0.0000,-0.1831,1,466,0,51
144057437,1067,-0.0298,-0.1392,1.0156,0.3052,0.0000,-0.1831,1,466,0,51
144060757,1068,-0.0293,-0.1387,1.0146,0.1831,-0.0610,-0.2441,1,466,0,51
144064401,1069,-0.0293,-0.1387,1.0146,0.1831,-0.0610,-0.2441,1,467,0,51
144069401,1070,-0.0288,-0.1387,1.0156,0.3052,0.0610,-0.2441,1,466,0,51
144076360,1071,-0.0308,-0.1411,1.0176,0.1831,0.0000,-0.2441,1,466,0,51
144079401,1072,-0.0308,-0.1411,1.0176,0.1831,0.0000,-0.2441,1,466,0,51
144084399,1073,-0.0308,-0.1406,1.0166,0.2441,0.0000,-0.3052,1,466,0,51
144091375,1074,-0.0273,-0.1411,1.0171,0.2441,0.0000,-0.1221,1,466,0,51
144094692,1075,-0.0273,-0.1411,1.0171,0.2441,0.0000,-0.1221,1,483,0,51
144099407,1076,-0.0264,-0.1411,1.0181,0.1221,0.0610,-0.1831,1,466,0,51
144105374,1077,-0.0283,-0.1411,1.0161,0.0000,0.0610,-0.1831,1,466,0,51
144110450,1078,-0.0278,-0.1411,1.0151,0.1221,0.2441,-0.3052,1,466,0,51
144114741,1079,-0.0278,-0.1411,1.0146,0.0000,0.1831,-0.2441,1,476,0,51
144120390,1080,-0.0283,-0.1416,1.0142,0.0610,0.2441,-0.1831,1,466,0,51
144126369,1081,-0.0293,-0.1421,1.0142,0.0610,0.1221,-0.3052,1,466,0,51
144131739,1082,-0.0293,-0.1416,1.0151,-0.0610,0.1831,-0.1831,1,478,0,51
144134407,1083,-0.0288,-0.1416,1.0156,-0.1831,0.3662,-0.1831,1,466,0,51
144139401,1084,-0.0283,-0.1416,1.0161,-0.0610,0.3662,-0.1221,1,466,0,51
144145383,1085,-0.0288,-0.1411,1.0156,-0.1221,0.3662,-0.0610,1,466,0,51
144151393,1086,-0.0288,-0.1401,1.0142,-0.0610,0.4883,-0.1831,1,466,0,51
144157374,1087,-0.0288,-0.1401,1.0142,-0.1221,0.3662,-0.3052,1,467,0,51
144164374,1088,-0.0293,-0.1406,1.0151,-0.1221,0.4883,-0.1221,1,466,0,51
144169764,1089,-0.0308,-0.1401,1.0146,-0.1221,0.6104,-0.3052,1,479,0,52
144174399,1090,-0.0303,-0.1396,1.0137,-0.2441,0.6104,-0.2441,1,466,0,52
144181371,1091,-0.0308,-0.1401,1.0146,-0.1221,0.5493,-0.1221,1,467,0,52
144187374,1092,-0.0312,-0.1426,1.0156,-0.1221,0.6104,-0.1831,1,466,0,52
144189403,1093,-0.0303,-0.1445,1.0166,0.0000,0.4883,-0.1831,1,466,0,52
144195370,1094,-0.0278,-0.1421,1.0176,-0.0610,0.6714,-0.2441,1,466,0,52
144201380,1095,-0.0278,-0.1406,1.0161,-0.1221,0.5493,-0.2441,1,467,0,52
144207392,1096,-0.0283,-0.1416,1.0142,0.0000,0.4883,-0.1831,1,467,0,52
144209712,1097,-0.0288,-0.1411,1.0142,0.0000,0.4272,-0.1831,1,483,0,52
144215051,1098,-0.0293,-0.1401,1.0146,0.0610,0.4272,-0.1831,1,504,0,52
144219400,1099,-0.0298,-0.1416,1.0151,0.0000,0.4272,-0.1221,1,466,0,52
144226352,1100,-0.0293,-0.1421,1.0151,0.0000,0.4883,-0.1831,1,466,0,52
144229674,1101,-0.0293,-0.1416,1.0151,-0.0610,0.4272,-0.1831,1,466,0,52
144235379,1102,-0.0303,-0.1421,1.0137,0.0610,0.4272,-0.1221,1,466,0,52
144239399,1103,-0.0298,-0.1421,1.0132,0.0000,0.5493,-0.2441,1,466,0,52
144245389,1104,-0.0288,-0.1426,1.0146,-0.1221,0.5493,-0.1831,1,466,0,52
144251370,1105,-0.0298,-0.1416,1.0156,0.1221,0.4883,-0.2441,1,466,0,52
144257382,1106,-0.0298,-0.1406,1.0161,0.0610,0.3052,-0.1221,1,466,0,52
144259729,1107,-0.0293,-0.1406,1.0166,-0.1221,0.5493,-0.0610,1,484,0,52
144264407,1108,-0.0283,-0.1406,1.0176,0.0610,0.5493,-0.0610,1,466,0,52
144270382,1109,-0.0264,-0.1411,1.0176,0.0610,0.6714,-0.1831,1,466,0,52
144277349,1110,-0.0288,-0.1396,1.0181,0.0610,0.7324,-0.2441,1,466,0,52
144283381,1111,-0.0298,-0.1401,1.0176,0.0000,0.6104,-0.2441,1,466,0,52
144287714,1112,-0.0298,-0.1406,1.0176,-0.1221,0.7324,-0.1221,1,502,0,52
144291131,1113,-0.0298,-0.1406,1.0176,-0.1221,0.7324,-0.1221,1,500,0,52
144294403,1114,-0.0308,-0.1406,1.0166,-0.1831,0.7324,-0.1221,1,466,0,52
144300379,1115,-0.0308,-0.1406,1.0137,-0.1221,0.6714,-0.1221,1,466,0,52
144307345,1116,-0.0288,-0.1401,1.0142,0.7324,0.7324,-0.1831,1,466,0,52
144310723,1117,-0.0288,-0.1401,1.0142,0.7324,0.7324,-0.1831,1,483,0,52
144316370,1118,-0.0283,-0.1382,1.0122,-0.6104,1.0376,0.0000,1,466,0,52
144319696,1119,-0.0293,-0.1382,1.0127,-0.4883,0.7935,0.0000,1,483,0,52
144325372,1120,-0.0308,-0.1396,1.0127,-0.4883,0.7935,0.0000,1,467,0,52
144329704,1121,-0.0317,-0.1401,1.0127,-0.1221,0.7324,-0.1831,1,483,0,52
144334400,1122,-0.0322,-0.1392,1.0122,-0.2441,0.7324,-0.1221,1,466,0,52
144339403,1123,-0.0312,-0.1401,1.0122,-0.4883,0.6714,-0.1221,1,466,0,52
144345392,1124,-0.0293,-0.1416,1.0132,-0.4272,0.4883,-0.1221,1,467,0,52
144350436,1125,-0.0308,-0.1426,1.0127,-0.0610,0.5493,-0.1831,1,466,0,52
144356378,1126,-0.0347,-0.1436,1.0083,0.0000,0.1831,-0.1831,1,466,0,52
144362390,1127,-0.0317,-0.1431,1.0103,0.0000,0.1221,-0.2441,1,467,0,52
144368373,1128,-0.0293,-0.1426,1.0142,0.1221,0.0610,-0.2441,1,466,0,52
144369720,1129,-0.0293,-0.1426,1.0142,0.1221,0.0610,-0.2441,1,483,0,52
144380365,1130,-0.0298,-0.1401,1.0146,0.0000,0.1831,-0.1831,1,466,0,53
144384406,1131,-0.0312,-0.1396,1.0132,0.0000,0.0000,-0.1831,1,466,0,53
144390374,1132,-0.0317,-0.1406,1.0142,0.0610,-0.0610,-0.3052,1,467,0,53
144397372,1133,-0.0312,-0.1426,1.0151,0.0610,0.0610,-0.2441,1,467,0,53
144404360,1134,-0.0308,-0.1431,1.0146,0.0000,0.1831,-0.2441,1,466,0,53
144405666,1135,-0.0308,-0.1406,1.0137,0.0000,0.1221,-0.3662,1,466,0,53
144409401,1136,-0.0308,-0.1406,1.0137,0.0000,0.1221,-0.3662,1,466,0,53
144414408,1137,-0.0317,-0.1392,1.0137,0.1221,-0.1831,-0.3052,1,467,0,53
144419700,1138,-0.0312,-0.1396,1.0132,-0.0610,-0.0610,-0.3052,1,483,0,53
144424406,1139,-0.0308,-0.1406,1.0112,0.0610,0.0000,-0.3052,1,467,0,53
144429741,1140,-0.0288,-0.1416,1.0151,0.2441,-0.2441,-0.3052,1,474,0,53
144434405,1141,-0.0288,-0.1416,1.0151,0.2441,-0.2441,-0.3052,1,466,0,53
144439408,1142,-0.0278,-0.1416,1.0176,0.0610,0.0000,-0.3052,1,466,0,53
144445369,1143,-0.0303,-0.1406,1.0142,0.1831,-0.0610,-0.2441,1,466,0,53
144451379,1144,-0.0298,-0.1396,1.0146,0.1221,0.0610,-0.2441,1,466,0,53
144458345,1145,-0.0293,-0.1411,1.0156,0.0000,0.0000,-0.2441,1,466,0,53
144464381,1146,-0.0303,-0.1416,1.0142,0.0610,0.1221,-0.3662,1,466,0,53
144465728,1147,-0.0303,-0.1416,1.0142,0.0610,0.1221,-0.3662,1,484,0,53
144469407,1148,-0.0308,-0.1416,1.0132,0.1831,0.0610,-0.3662,1,466,0,53
144474404,1149,-0.0303,-0.1416,1.0137,0.1831,0.1221,-0.1221,1,466,0,53
144480370,1150,-0.0303,-0.1411,1.0142,0.1221,0.1221,-0.1831,1,466,0,53
144484402,1151,-0.0312,-0.1421,1.0137,0.1221,0.0610,-0.2441,1,466,0,53
144489799,1152,-0.0312,-0.1436,1.0137,0.1831,-0.0610,-0.1831,1,467,0,53
144495385,1153,-0.0303,-0.1440,1.0146,0.0610,-0.0610,-0.1831,1,466,0,53
144502352,1154,-0.0303,-0.1436,1.0142,0.1221,0.0610,-0.1831,1,466,0,53
144509369,1155,-0.0293,-0.1396,1.0161,0.1831,0.1221,-0.3052,1,466,0,53
144510712,1156,-0.0293,-0.1396,1.0161,0.1831,0.1221,-0.3052,1,483,0,53
144514403,1157,-0.0298,-0.1406,1.0161,0.1831,0.1221,-0.2441,1,466,0,53
144521364,1158,-0.0288,-0.1421,1.0151,0.1221,0.1831,-0.3662,1,466,0,53
144525748,1159,-0.0283,-0.1421,1.0156,0.1221,0.1831,-0.1221,1,466,0,53
144530112,1160,-0.0288,-0.1416,1.0181,0.1221,0.1831,-0.2441,1,487,0,53
144534400,1161,-0.0298,-0.1411,1.0181,0.1221,0.3052,-0.2441,1,467,0,53
144539403,1162,-0.0317,-0.1416,1.0156,0.1221,0.3052,-0.2441,1,466,0,53
144545372,1163,-0.0322,-0.1421,1.0132,0.1221,0.1831,-0.2441,1,466,0,53
144551452,1164,-0.0303,-0.1416,1.0137,0.1221,0.2441,-0.2441,1,466,0,53
144558353,1165,-0.0288,-0.1416,1.0161,0.0000,0.3662,-0.1831,1,467,0,53
144559659,1166,-0.0288,-0.1416,1.0161,0.0000,0.3662,-0.1831,1,466,0,53
144570366,1167,-0.0303,-0.1401,1.0146,-0.1221,0.3052,-0.1831,1,466,0,54
144577363,1168,-0.0317,-0.1416,1.0132,-0.1221,0.3052,-0.1221,1,466,0,54
144583366,1169,-0.0298,-0.1450,1.0127,-0.0610,0.1831,-0.3052,1,467,0,54
144584708,1170,-0.0298,-0.1450,1.0127,-0.0610,0.1831,-0.3052,1,483,0,54
144589404,1171,-0.0293,-0.1431,1.0127,0.0000,0.1221,-0.1831,1,466,0,54
144600365,1172,-0.0278,-0.1416,1.0127,0.1221,0.1221,-0.1831,1,467,0,55
144606376,1173,-0.0273,-0.1411,1.0137,0.0610,0.1221,-0.1831,1,466,0,55
144612456,1174,-0.0308,-0.1426,1.0146,0.2441,0.1221,-0.2441,1,467,0,55
144618369,1175,-0.0312,-0.1426,1.0142,0.3052,0.0610,-0.2441,1,467,0,55
144622762,1176,-0.0308,-0.1421,1.0146,0.1221,0.1221,-0.1831,1,477,0,55
144626027,1177,-0.0308,-0.1421,1.0146,0.1221,0.1221,-0.1831,1,505,0,55
144629404,1178,-0.0303,-0.1411,1.0151,0.2441,0.3052,-0.1831,1,466,0,55
144634399,1179,-0.0308,-0.1411,1.0161,0.0610,0.1831,-0.1221,1,466,0,55
144640373,1180,-0.0298,-0.1416,1.0161,0.0610,0.2441,-0.2441,1,466,0,55
144647371,1181,-0.0264,-0.1396,1.0190,-0.0610,0.3052,-0.1831,1,466,0,55
144649836,1182,-0.0264,-0.1396,1.0190,-0.0610,0.3052,-0.1831,1,470,0,55
144655389,1183,-0.0273,-0.1382,1.0176,-0.0610,0.6714,-0.1831,1,466,0,55
144662354,1184,-0.0308,-0.1411,1.0151,-0.1831,0.3662,-0.0610,1,466,0,55
144666739,1185,-0.0303,-0.1431,1.0161,0.0000,0.5493,-0.1221,1,474,0,55
144669403,1186,-0.0303,-0.1431,1.0161,0.0000,0.5493,-0.1221,1,466,0,55
144674403,1187,-0.0298,-0.1421,1.0171,0.0000,0.4272,-0.0610,1,466,0,55
144679738,1188,-0.0298,-0.1392,1.0176,-0.1831,0.5493,-0.1221,1,476,0,55
144684404,1189,-0.0293,-0.1392,1.0161,-0.2441,0.6104,-0.1831,1,466,0,55
144689399,1190,-0.0283,-0.1406,1.0156,-0.1221,0.4883,-0.1221,1,466,0,55
144695366,1191,-0.0298,-0.1406,1.0161,-0.1221,0.6714,-0.0610,1,466,0,55
144702362,1192,-0.0317,-0.1421,1.0171,-0.1221,0.6714,-0.1221,1,466,0,55
144709351,1193,-0.0312,-0.1426,1.0166,-0.1831,0.6104,0.0000,1,466,0,55
144711690,1194,-0.0303,-0.1421,1.0166,-0.1831,0.7324,-0.0610,1,483,0,55
144715047,1195,-0.0303,-0.1421,1.0166,-0.1831,0.7324,-0.0610,1,503,0,55
144719402,1196,-0.0288,-0.1406,1.0161,-0.1831,0.7324,-0.1221,1,467,0,55
144724399,1197,-0.0283,-0.1411,1.0156,-0.2441,0.7324,-0.1221,1,467,0,55
144729399,1198,-0.0293,-0.1426,1.0137,-0.0610,0.6714,0.0000,1,466,0,55
144734399,1199,-0.0312,-0.1431,1.0117,0.0000,0.6104,-0.1221,1,466,0,55
144740378,1200,-0.0303,-0.1426,1.0137,-0.0610,0.5493,-0.0610,1,466,0,55
144747346,1201,-0.0303,-0.1416,1.0142,-0.0610,0.6104,-0.1221,1,466,0,55
144753378,1202,-0.0303,-0.1406,1.0151,0.0000,0.5493,0.0000,1,466,0,55
144754637,1203,-0.0303,-0.1406,1.0151,0.0000,0.5493,0.0000,1,466,0,55
144763936,1204,-0.0278,-0.1396,1.0156,-0.1831,0.9155,0.0610,1,508,0,55
144769370,1205,-0.0303,-0.1387,1.0161,-0.1831,0.8545,0.0000,1,466,0,55
144773701,1206,-0.0312,-0.1421,1.0142,0.0000,0.6104,-0.0610,1,484,0,55
144776021,1207,-0.0303,-0.1416,1.0142,-0.0610,0.7935,-0.1221,1,489,0,55
144779402,1208,-0.0288,-0.1396,1.0156,-0.2441,0.7324,0.0000,1,466,0,55
144784408,1209,-0.0278,-0.1406,1.0166,-0.1831,0.8545,0.0000,1,466,0,55
144790365,1210,-0.0283,-0.1421,1.0166,-0.1221,0.9766,0.0000,1,466,0,55
144796378,1211,-0.0293,-0.1426,1.0166,-0.0610,0.9155,-0.1221,1,466,0,55
144802427,1212,-0.0298,-0.1416,1.0161,-0.1831,0.9155,0.0610,1,466,0,55
144806721,1213,-0.0298,-0.1406,1.0166,-0.2441,1.0986,0.0610,1,483,0,55
144812368,1214,-0.0298,-0.1411,1.0171,-0.3662,1.1597,-0.1221,1,466,0,55
144819366,1215,-0.0322,-0.1411,1.0166,-0.3052,1.1597,-0.0610,1,466,0,55
144824758,1216,-0.0332,-0.1396,1.0161,-0.3052,1.1597,0.0000,1,480,0,56
144830135,1217,-0.0317,-0.1401,1.0161,-0.3662,1.1597,0.1221,1,492,0,56
144834399,1218,-0.0303,-0.1416,1.0161,-0.3662,1.3428,0.0000,1,466,0,56
144839402,1219,-0.0303,-0.1416,1.0161,-0.2441,1.2817,0.0610,1,466,0,56
144846343,1220,-0.0312,-0.1401,1.0161,-0.3052,1.2207,0.1221,1,466,0,56
144852445,1221,-0.0308,-0.1401,1.0156,-0.4272,1.2207,0.0610,1,467,0,56
144858389,1222,-0.0317,-0.1406,1.0166,-0.4272,1.4648,0.0000,1,466,0,56
144859703,1223,-0.0317,-0.1406,1.0166,-0.4272,1.4648,0.0000,1,483,0,56
144866018,1224,-0.0322,-0.1431,1.0161,-0.4883,1.3428,0.1221,1,5497,0,56
144873283,1225,-0.0312,-0.1426,1.0142,-0.4272,1.5259,0.1221,1,496,0,56
144875691,1226,-0.0312,-0.1426,1.0142,-0.4272,1.5259,0.1221,1,483,0,56
144881370,1227,-0.0317,-0.1431,1.0122,-0.4272,1.5869,0.0000,1,466,0,56
144884693,1228,-0.0322,-0.1445,1.0107,-0.3052,1.3428,-0.0610,1,483,0,56
144889407,1229,-0.0332,-0.1440,1.0112,-0.3052,1.2207,0.0000,1,466,0,56
144895378,1230,-0.0342,-0.1426,1.0132,-0.4272,1.3428,0.0000,1,466,0,56
144901387,1231,-0.0347,-0.1411,1.0132,-0.3662,1.3428,0.0000,1,466,0,56
144904408,1232,-0.0347,-0.1416,1.0112,-0.2441,1.2207,-0.1221,1,467,0,56
144909403,1233,-0.0347,-0.1431,1.0107,-0.3052,0.9766,-0.1221,1,466,0,56
144915364,1234,-0.0342,-0.1431,1.0112,-0.3052,0.9155,-0.1221,1,466,0,56
144922364,1235,-0.0327,-0.1426,1.0161,-0.3052,0.7935,-0.1831,1,466,0,56
144926747,1236,-0.0327,-0.1426,1.0161,-0.3052,0.7935,-0.1831,1,466,0,56
144932117,1237,-0.0361,-0.1401,1.0112,-0.1221,0.6714,0.0000,1,500,0,56
144934400,1238,-0.0361,-0.1401,1.0112,-0.1221,0.6714,0.0000,1,467,0,56
144940389,1239,-0.0371,-0.1421,1.0078,-0.1221,0.4272,-0.0610,1,467,0,56
144944404,1240,-0.0371,-0.1436,1.0078,0.0000,0.3662,-0.0610,1,466,0,56
144950440,1241,-0.0356,-0.1431,1.0098,0.1221,0.2441,0.0000,1,466,0,56
144957367,1242,-0.0366,-0.1450,1.0078,0.3052,-0.1831,-0.1221,1,467,0,56
144963370,1243,-0.0376,-0.1450,1.0078,0.4272,-0.1831,-0.2441,1,466,0,56
144969380,1244,-0.0361,-0.1436,1.0093,0.3662,-0.3052,-0.2441,1,466,0,56
144970731,1245,-0.0361,-0.1436,1.0093,0.3662,-0.3052,-0.2441,1,477,0,56
144974399,1246,-0.0342,-0.1426,1.0117,0.3662,-0.2441,-0.2441,1,466,0,56
144979407,1247,-0.0342,-0.1421,1.0146,0.4883,-0.1221,-0.1831,1,466,0,56
144984790,1248,-0.0337,-0.1416,1.0166,0.5493,-0.2441,-0.1221,1,469,0,56
144989400,1249,-0.0327,-0.1401,1.0166,0.1831,-0.2441,-0.3662,1,466,0,56
144995381,1250,-0.0327,-0.1411,1.0156,0.3052,0.1221,-0.3662,1,466,0,56
145001364,1251,-0.0317,-0.1411,1.0176,0.4272,-0.1221,-0.2441,1,466,0,56
145007374,1252,-0.0322,-0.1421,1.0181,0.3052,0.0610,-0.2441,1,466,0,56
145013389,1253,-0.0332,-0.1440,1.0156,0.2441,0.0000,-0.1221,1,466,0,56
145014697,1254,-0.0332,-0.1440,1.0156,0.2441,0.0000,-0.1221,1,484,0,56
145024036,1255,-0.0322,-0.1401,1.0137,0.2441,-0.0610,-0.2441,1,503,0,56
145025413,1256,-0.0322,-0.1401,1.0137,0.2441,-0.0610,-0.2441,1,466,0,56
145032346,1257,-0.0337,-0.1416,1.0137,0.2441,0.0610,0.0000,1,466,0,56
145039365,1258,-0.0352,-0.1426,1.0117,0.3052,-0.1831,-0.1221,1,466,0,56
145040703,1259,-0.0342,-0.1431,1.0137,0.1831,-0.1831,-0.0610,1,484,0,56
145051381,1260,-0.0327,-0.1406,1.0146,0.1831,-0.3052,-0.1831,1,466,0,57
145057362,1261,-0.0322,-0.1416,1.0151,0.1831,-0.1831,-0.1221,1,466,0,57
145063375,1262,-0.0322,-0.1416,1.0146,0.1831,-0.0610,-0.1221,1,467,0,57
145069386,1263,-0.0337,-0.1421,1.0127,0.2441,-0.0610,-0.1831,1,466,0,57
145070727,1264,-0.0342,-0.1431,1.0127,0.2441,-0.1831,-0.1831,1,482,0,57
145081381,1265,-0.0322,-0.1426,1.0137,0.3662,-0.0610,-0.1831,1,466,0,58
145086779,1266,-0.0327,-0.1416,1.0127,0.3662,-0.1221,-0.1831,1,479,0,58
145092433,1267,-0.0342,-0.1416,1.0122,0.3662,-0.1831,-0.2441,1,466,0,58
145098378,1268,-0.0347,-0.1421,1.0132,0.3662,-0.3662,-0.2441,1,466,0,58
145104361,1269,-0.0303,-0.1401,1.0190,0.5493,-0.1221,-0.3052,1,466,0,58
145105708,1270,-0.0303,-0.1401,1.0190,0.5493,-0.1221,-0.3052,1,483,0,58
145116382,1271,-0.0312,-0.1406,1.0156,0.4883,-0.3052,-0.1221,1,467,0,59
145120776,1272,-0.0312,-0.1416,1.0156,0.4272,-0.1221,-0.1831,1,481,0,59
145127346,1273,-0.0298,-0.1426,1.0161,0.7324,-0.0610,-0.3052,1,466,0,59
145129811,1274,-0.0288,-0.1426,1.0151,0.6714,0.0000,-0.3052,1,470,0,59
145136349,1275,-0.0303,-0.1411,1.0142,0.4272,-0.0610,-0.3662,1,466,0,59
145142384,1276,-0.0332,-0.1411,1.0146,0.3052,0.0000,-0.2441,1,466,0,59
145149349,1277,-0.0317,-0.1411,1.0146,0.3662,0.1831,-0.1221,1,466,0,59
145152728,1278,-0.0317,-0.1411,1.0146,0.3662,0.1831,-0.1221,1,479,0,59
145158375,1279,-0.0308,-0.1411,1.0132,0.3052,0.1831,-0.1221,1,466,0,59
145159721,1280,-0.0332,-0.1421,1.0146,0.3052,0.1831,-0.1221,1,483,0,59
145164400,1281,-0.0342,-0.1421,1.0166,0.7324,-0.0610,-0.1221,1,466,0,59
145173785,1282,-0.0303,-0.1411,1.0186,-0.1831,0.3052,-0.0610,1,473,0,59
145178058,1283,-0.0303,-0.1411,1.0186,-0.1831,0.3052,-0.0610,1,493,0,59
145183368,1284,-0.0298,-0.1401,1.0161,0.0610,0.2441,-0.1221,1,466,0,59
145184711,1285,-0.0298,-0.1401,1.0161,0.0610,0.2441,-0.1221,1,484,0,59
145195362,1286,-0.0288,-0.1401,1.0161,-0.0610,0.3052,-0.0610,1,466,0,60
145202358,1287,-0.0293,-0.1401,1.0171,0.0000,0.3052,-0.0610,1,466,0,60
145208361,1288,-0.0317,-0.1416,1.0176,-0.1831,0.5493,-0.1221,1,466,0,60
145214375,1289,-0.0322,-0.1426,1.0166,0.1221,0.3662,-0.1221,1,467,0,60
145215719,1290,-0.0322,-0.1426,1.0166,0.1221,0.3662,-0.1221,1,483,0,60
145226368,1291,-0.0317,-0.1416,1.0176,0.0000,0.3662,-0.1221,1,466,0,61
145229407,1292,-0.0317,-0.1416,1.0181,0.0610,0.4272,-0.0610,1,466,0,61
145234403,1293,-0.0322,-0.1411,1.0181,0.0610,0.4272,-0.1221,1,466,0,61
145240374,1294,-0.0327,-0.1406,1.0181,0.0610,0.4883,-0.0610,1,466,0,61
145244406,1295,-0.0322,-0.1416,1.0181,-0.0610,0.7324,0.0000,1,466,0,61
145249407,1296,-0.0308,-0.1416,1.0186,-0.0610,0.7324,-0.0610,1,466,0,61
145254402,1297,-0.0303,-0.1406,1.0195,-0.0610,0.9766,-0.0610,1,466,0,61
145259404,1298,-0.0308,-0.1401,1.0200,-0.1831,1.0376,0.0610,1,466,0,61
145264695,1299,-0.0312,-0.1406,1.0195,-0.3052,0.9155,0.2441,1,483,0,61
145269400,1300,-0.0298,-0.1411,1.0181,-0.1831,1.1597,0.1221,1,466,0,61
145274402,1301,-0.0283,-0.1411,1.0186,0.0000,1.2207,0.1221,1,466,0,61
145279407,1302,-0.0288,-0.1416,1.0200,-0.2441,1.3428,0.1221,1,466,0,61
145286344,1303,-0.0293,-0.1431,1.0190,-0.0610,1.4038,0.1221,1,466,0,61
145289405,1304,-0.0308,-0.1431,1.0176,-0.0610,1.4038,0.1831,1,466,0,61
145294785,1305,-0.0312,-0.1431,1.0181,-0.1221,1.4038,0.1221,1,471,0,61
145300373,1306,-0.0308,-0.1416,1.0166,-0.1221,1.6479,0.0610,1,466,0,61
145306383,1307,-0.0332,-0.1411,1.0132,0.1221,1.8311,0.1221,1,466,0,61
145310452,1308,-0.0332,-0.1411,1.0132,0.1221,1.8311,0.1221,1,466,0,61
145316431,1309,-0.0356,-0.1401,1.0107,-0.1221,1.7090,0.0000,1,466,0,61
145319403,1310,-0.0356,-0.1401,1.0107,-0.1221,1.7090,0.0000,1,466,0,61
145325367,1311,-0.0361,-0.1387,1.0093,-0.3052,1.7700,0.0610,1,466,0,61
145332362,1312,-0.0415,-0.1421,1.0049,-0.4272,1.0986,0.1221,1,466,0,61
145339352,1313,-0.0400,-0.1450,1.0078,0.0000,0.9155,0.0000,1,466,0,61
145345385,1314,-0.0356,-0.1431,1.0112,0.3662,0.6104,-0.0610,1,466,0,62
145352352,1315,-0.0317,-0.1377,1.0151,-0.8545,0.7935,0.0000,1,466,0,62
145354402,1316,-0.0317,-0.1377,1.0151,-0.8545,0.7935,0.0000,1,466,0,62
145361355,1317,-0.0347,-0.1401,1.0112,-0.4272,0.9155,-0.2441,1,467,0,62
145364407,1318,-0.0347,-0.1401,1.0112,-0.4272,0.9155,-0.2441,1,466,0,62
145369706,1319,-0.0371,-0.1426,1.0093,-0.4883,0.7324,0.0000,1,483,0,62
145374402,1320,-0.0386,-0.1455,1.0088,0.0610,0.7324,-0.1831,1,466,0,62
145381342,1321,-0.0352,-0.1421,1.0137,0.0610,0.6104,-0.1831,1,466,0,62
145387379,1322,-0.0337,-0.1406,1.0142,0.0610,0.4883,-0.1221,1,466,0,62
145394345,1323,-0.0337,-0.1411,1.0127,0.2441,0.6104,-0.0610,1,466,0,62
145399734,1324,-0.0352,-0.1436,1.0137,0.1831,0.4272,-0.2441,1,474,0,63
145404406,1325,-0.0352,-0.1436,1.0137,0.1831,0.4272,-0.2441,1,466,0,63
145409404,1326,-0.0352,-0.1411,1.0142,0.1221,0.3662,-0.0610,1,466,0,63
145414403,1327,-0.0347,-0.1392,1.0146,0.1831,0.4883,0.0000,1,466,0,63
145420433,1328,-0.0327,-0.1440,1.0146,0.1831,0.5493,-0.1831,1,466,0,63
145426378,1329,-0.0337,-0.1431,1.0122,0.3662,0.5493,-0.0610,1,466,0,63
145432359,1330,-0.0342,-0.1392,1.0117,0.3052,0.6714,0.0000,1,466,0,63
145437699,1331,-0.0356,-0.1406,1.0122,0.3052,0.5493,-0.1221,1,483,0,63
145440048,1332,-0.0366,-0.1440,1.0112,0.7935,0.3662,-0.1221,1,503,0,63
145444405,1333,-0.0361,-0.1431,1.0103,0.8545,0.0610,-0.2441,1,466,0,63
145449404,1334,-0.0347,-0.1406,1.0137,0.2441,0.1831,-0.3052,1,466,0,63
145455370,1335,-0.0332,-0.1401,1.0166,0.4272,0.1221,-0.2441,1,467,0,63
145462335,1336,-0.0337,-0.1421,1.0156,0.3662,0.1831,-0.1831,1,466,0,63
145468370,1337,-0.0337,-0.1416,1.0161,0.4883,0.1831,-0.1221,1,467,0,63
145474382,1338,-0.0303,-0.1387,1.0176,-0.1831,0.4883,-0.2441,1,466,0,63
145475732,1339,-0.0303,-0.1387,1.0176,-0.1831,0.4883,-0.2441,1,476,0,63
145482077,1340,-0.0303,-0.1411,1.0166,0.1831,0.4883,-0.1221,1,527,0,63
145484399,1341,-0.0303,-0.1431,1.0112,0.4883,0.4883,-0.0610,1,467,0,63
145489400,1342,-0.0317,-0.1436,1.0093,-0.3662,0.9766,-0.2441,1,466,0,63
145495377,1343,-0.0317,-0.1436,1.0107,0.0610,0.7935,-0.1831,1,466,0,63
145501359,1344,-0.0317,-0.1436,1.0122,-0.7324,1.1597,-0.3052,1,467,0,63
145507373,1345,-0.0347,-0.1450,1.0122,0.1831,1.1597,-0.2441,1,466,0,63
145512770,1346,-0.0356,-0.1475,1.0156,2.0752,1.0376,0.6104,1,466,0,63
145519342,1347,-0.0322,-0.1387,1.0127,-2.0142,2.3804,-0.2441,1,466,0,63
145524733,1348,-0.0317,-0.1440,1.0229,2.5635,1.2207,0.1831,1,475,0,64
145529399,1349,-0.0288,-0.1426,1.0176,2.0752,1.4648,0.1831,1,467,0,64
145534406,1350,-0.0322,-0.1450,1.0142,0.0000,2.0142,-0.0610,1,466,0,64
145540360,1351,-0.0347,-0.1445,1.0137,2.8687,1.1597,0.4272,1,466,0,64
145547357,1352,-0.0337,-0.1387,1.0195,1.0376,1.7700,0.3052,1,466,0,64
145549400,1353,-0.0337,-0.1387,1.0195,1.0376,1.7700,0.3052,1,466,0,64
145555374,1354,-0.0322,-0.1396,1.0220,1.8311,1.5259,0.2441,1,466,0,64
145561358,1355,-0.0337,-0.1416,1.0190,1.0986,1.8921,0.1221,1,466,0,64
145564404,1356,-0.0371,-0.1431,1.0151,1.4038,1.5869,0.1831,1,466,0,64
145569403,1357,-0.0371,-0.1411,1.0132,1.5869,1.3428,0.2441,1,466,0,64
145576349,1358,-0.0381,-0.1372,1.0107,1.2207,1.5259,0.3052,1,466,0,64
145582382,1359,-0.0371,-0.1426,1.0083,1.6479,1.3428,0.4272,1,466,0,64
145588363,1360,-0.0371,-0.1411,1.0112,1.7700,1.4648,0.4272,1,466,0,64
145589715,1361,-0.0371,-0.1411,1.0112,1.7700,1.4648,0.4272,1,483,0,64
145598096,1362,-0.0391,-0.1387,1.0132,1.7700,1.2207,0.5493,1,489,0,64
145599444,1363,-0.0391,-0.1387,1.0132,1.7700,1.2207,0.5493,1,466,0,64
145604400,1364,-0.0371,-0.1396,1.0132,1.7700,1.1597,0.4883,1,466,0,64
145609825,1365,-0.0342,-0.1387,1.0142,1.8921,1.4648,0.4883,1,504,0,64
145614406,1366,-0.0347,-0.1343,1.0156,1.7700,1.7090,0.4883,1,466,0,64
145620377,1367,-0.0376,-0.1328,1.0156,1.5259,1.4648,0.4883,1,466,0,64
145627345,1368,-0.0366,-0.1353,1.0166,1.2817,1.4648,0.6104,1,466,0,64
145633377,1369,-0.0337,-0.1343,1.0220,1.3428,1.4038,0.6104,1,466,0,64
145635728,1370,-0.0337,-0.1343,1.0220,1.3428,1.4038,0.6104,1,477,0,64
145639406,1371,-0.0327,-0.1348,1.0229,1.1597,1.4038,0.5493,1,466,0,64
145644399,1372,-0.0347,-0.1348,1.0190,0.9766,1.5259,0.4883,1,466,0,64
145649399,1373,-0.0381,-0.1357,1.0132,0.8545,1.5259,0.5493,1,467,0,64
145656335,1374,-0.0376,-0.1416,1.0098,1.2207,1.5869,0.4883,1,466,0,64
145662368,1375,-0.0371,-0.1411,1.0117,1.3428,1.5259,0.6104,1,466,0,64
145668415,1376,-0.0366,-0.1382,1.0132,1.3428,1.4648,0.7324,1,476,0,64
145671797,1377,-0.0376,-0.1367,1.0122,1.5259,1.9531,0.7324,1,480,0,64
145678338,1378,-0.0396,-0.1353,1.0107,1.6479,1.8311,0.8545,1,467,0,64
145679678,1379,-0.0396,-0.1353,1.0107,1.6479,1.8311,0.8545,1,483,0,64
145690385,1380,-0.0352,-0.1353,1.0137,1.0986,1.7090,0.8545,1,466,0,65
145697350,1381,-0.0322,-0.1377,1.0200,1.2207,1.8311,0.7324,1,466,0,65
145702742,1382,-0.0337,-0.1348,1.0220,1.2817,2.0752,0.6714,1,466,0,65
145708360,1383,-0.0371,-0.1294,1.0200,0.6714,1.8311,0.7324,1,466,0,65
145714369,1384,-0.0376,-0.1299,1.0190,0.6104,1.7090,0.8545,1,467,0,65
145717726,1385,-0.0376,-0.1318,1.0166,0.7935,2.0752,0.9155,1,478,0,65
145719399,1386,-0.0376,-0.1318,1.0166,0.7935,2.0752,0.9155,1,466,0,65
145724404,1387,-0.0386,-0.1328,1.0127,0.4883,2.0752,0.9155,1,466,0,65
145729407,1388,-0.0371,-0.1357,1.0112,0.4272,1.8921,1.0376,1,466,0,65
145734400,1389,-0.0352,-0.1387,1.0107,0.6714,2.0752,1.2817,1,466,0,65
145740370,1390,-0.0396,-0.1328,1.0049,0.6714,2.6855,1.1597,1,466,0,65
145747339,1391,-0.0415,-0.1304,1.0024,0.7324,3.0518,1.1597,1,466,0,65
145752730,1392,-0.0449,-0.1313,1.0000,0.6714,2.9907,1.2207,1,477,0,65
145759361,1393,-0.0420,-0.1362,1.0029,1.0986,3.0518,1.0376,1,466,0,65
145765365,1394,-0.0444,-0.1353,1.0024,0.9155,3.1128,1.0986,1,466,0,66
145772363,1395,-0.0435,-0.1333,1.0029,0.7324,2.8687,1.1597,1,466,0,66
145778367,1396,-0.0371,-0.1333,1.0078,0.7324,3.1738,1.0986,1,466,0,66
145782758,1397,-0.0332,-0.1323,1.0132,0.8545,3.9062,1.1597,1,475,0,66
145784400,1398,-0.0352,-0.1279,1.0142,0.7935,4.0894,1.2207,1,466,0,66
145789407,1399,-0.0386,-0.1260,1.0142,0.3662,4.2114,1.0986,1,466,0,66
145794408,1400,-0.0391,-0.1299,1.0166,0.1221,4.6387,0.9766,1,467,0,66
145800368,1401,-0.0391,-0.1338,1.0195,0.3662,4.9438,1.1597,1,466,0,66
145807334,1402,-0.0386,-0.1353,1.0220,0.1831,5.4932,1.0986,1,466,0,66
145813368,1403,-0.0449,-0.1284,1.0137,0.3052,5.4932,1.1597,1,466,0,66
145814711,1404,-0.0449,-0.1284,1.0137,0.3052,5.4932,1.1597,1,483,0,66
145821029,1405,-0.0469,-0.1270,1.0107,-0.0610,5.4932,0.9766,1,540,0,66
145824406,1406,-0.0469,-0.1309,1.0098,-0.1221,5.4932,0.9155,1,466,0,66
145829785,1407,-0.0469,-0.1338,1.0103,-0.1221,5.4932,0.9766,1,468,0,66
145835373,1408,-0.0483,-0.1323,1.0112,-0.2441,5.3711,1.0376,1,466,0,66
145842338,1409,-0.0513,-0.1260,1.0098,-0.3052,4.8828,0.9766,1,467,0,66
145849357,1410,-0.0581,-0.1245,1.0054,-1.2207,4.3945,0.9766,1,466,0,66
145854749,1411,-0.0625,-0.1289,1.0054,-1.3428,3.7231,0.6104,1,482,0,67
145861350,1412,-0.0605,-0.1289,1.0093,-1.6479,2.8076,0.4883,1,466,0,67
145867353,1413,-0.0552,-0.1265,1.0151,-1.8311,2.2583,0.2441,1,466,0,67
145873367,1414,-0.0527,-0.1396,1.0190,-1.8921,1.7700,-0.1831,1,466,0,67
145874714,1415,-0.0527,-0.1396,1.0190,-1.8921,1.7700,-0.1831,1,484,0,67
145885359,1416,-0.0405,-0.1416,1.0273,-2.1973,1.8921,-0.3662,1,466,0,68
145891372,1417,-0.0415,-0.1392,1.0239,-2.0142,2.0142,-0.4272,1,466,0,68
145897382,1418,-0.0474,-0.1421,1.0151,-1.7700,1.6479,-0.4272,1,466,0,68
145904349,1419,-0.0518,-0.1450,1.0117,-1.2207,1.5869,-0.4272,1,466,0,68
145909744,1420,-0.0532,-0.1470,1.0112,-0.9155,1.2817,-0.4272,1,466,0,69
145914404,1421,-0.0503,-0.1455,1.0127,-0.4272,1.2207,-0.1831,1,466,0,69
145921347,1422,-0.0488,-0.1431,1.0122,-0.2441,1.2817,-0.0610,1,466,0,69
145925732,1423,-0.0508,-0.1436,1.0093,-0.1831,0.9766,-0.0610,1,474,0,69
145931378,1424,-0.0537,-0.1479,1.0044,0.2441,0.7935,0.1221,1,466,0,69
145934405,1425,-0.0566,-0.1484,0.9990,0.8545,0.7935,0.0610,1,466,0,69
145940382,1426,-0.0586,-0.1475,0.9956,1.5259,0.7935,0.1831,1,466,0,69
145944402,1427,-0.0557,-0.1523,0.9971,1.8311,0.6714,0.1831,1,466,0,69
145950362,1428,-0.0493,-0.1562,1.0029,2.6245,0.6104,0.1221,1,466,0,69
145957358,1429,-0.0503,-0.1499,1.0049,4.0894,0.3662,0.1221,1,466,0,69
145964346,1430,-0.0552,-0.1465,1.0005,4.6387,0.1221,0.0610,1,466,0,69
145965679,1431,-0.0552,-0.1465,1.0005,4.6387,0.1221,0.0610,1,483,0,69
145971115,1432,-0.0557,-0.1362,1.0010,5.3711,-0.1831,-0.3052,1,495,0,69
145974402,1433,-0.0557,-0.1362,1.0010,5.3711,-0.1831,-0.3052,1,466,0,69
145979400,1434,-0.0532,-0.1338,1.0044,5.6152,-0.1831,-0.4883,1,466,0,69
145984404,1435,-0.0493,-0.1348,1.0098,5.4321,-0.1221,-0.4272,1,466,0,69
145989399,1436,-0.0444,-0.1328,1.0156,5.6152,0.0610,-0.4272,1,466,0,69
145994793,1437,-0.0430,-0.1240,1.0200,5.6763,0.3662,-0.4272,1,482,0,69
145999405,1438,-0.0439,-0.1187,1.0215,5.1270,0.5493,-0.1831,1,466,0,69
146005352,1439,-0.0391,-0.1372,1.0269,4.7607,1.1597,-0.1831,1,466,0,69
146011364,1440,-0.0386,-0.1367,1.0239,5.2490,1.5869,-0.1831,1,466,0,69
146016765,1441,-0.0483,-0.1274,1.0132,5.4321,2.0142,-0.3662,1,467,0,69
146019399,1442,-0.0483,-0.1274,1.0132,5.4321,2.0142,-0.3662,1,466,0,69
146024792,1443,-0.0615,-0.1230,1.0020,5.0659,1.1597,-0.1831,1,483,0,69
146030448,1444,-0.0576,-0.1289,1.0063,4.8828,0.2441,-0.1221,1,466,0,69
146034405,1445,-0.0576,-0.1289,1.0063,4.8828,0.2441,-0.1221,1,467,0,69
146041341,1446,-0.0571,-0.1143,1.0088,4.5776,-0.4272,-0.1831,1,466,0,69
146044718,1447,-0.0532,-0.1230,1.0093,4.2114,-0.5493,-0.3052,1,483,0,69
146051353,1448,-0.0532,-0.1323,1.0107,4.6387,-0.3052,-0.3662,1,466,0,69
146054404,1449,-0.0532,-0.1323,1.0107,4.6387,-0.3052,-0.3662,1,466,0,69
146059794,1450,-0.0596,-0.1265,1.0107,4.8218,-2.0142,-0.6714,1,482,0,69
146064404,1451,-0.0508,-0.1265,1.0151,5.0049,-1.8311,-0.6104,1,466,0,69
146069682,1452,-0.0391,-0.1284,1.0200,5.3101,-1.4648,-0.3052,1,483,0,69
146074402,1453,-0.0332,-0.1274,1.0259,5.5542,-0.6104,-0.4883,1,466,0,69
146079405,1454,-0.0376,-0.1240,1.0273,5.6763,-0.1221,-0.4883,1,466,0,69
146084406,1455,-0.0474,-0.1250,1.0229,5.7373,-0.1831,-0.6714,1,467,0,69
146090374,1456,-0.0532,-0.1265,1.0200,5.8594,-0.5493,-0.9155,1,466,0,69
146097343,1457,-0.0498,-0.1274,1.0205,6.0425,-0.8545,-1.1597,1,467,0,69
146103374,1458,-0.0449,-0.1250,1.0239,6.2866,-0.7324,-1.5259,1,466,0,69
146104722,1459,-0.0449,-0.1182,1.0259,6.3477,-0.7324,-1.8921,1,479,0,69
146111071,1460,-0.0522,-0.1133,1.0220,6.1646,-0.8545,-2.0752,1,528,0,69
146114406,1461,-0.0537,-0.1138,1.0186,5.9814,-1.4648,-2.2583,1,466,0,69
146119405,1462,-0.0503,-0.1182,1.0161,5.9814,-1.1597,-2.5024,1,466,0,69
146124704,1463,-0.0518,-0.1191,1.0132,6.2256,-1.2817,-2.7466,1,484,0,69
146129407,1464,-0.0557,-0.1152,1.0112,6.0425,-1.4648,-2.9907,1,467,0,69
146135356,1465,-0.0601,-0.1099,1.0098,5.9814,-1.8921,-3.1738,1,466,0,69
146139399,1466,-0.0635,-0.1128,1.0054,5.5542,-2.5024,-3.6621,1,467,0,69
146144408,1467,-0.0664,-0.1167,1.0000,5.7373,-3.1128,-4.0283,1,466,0,69
146149406,1468,-0.0601,-0.1152,1.0005,5.8594,-3.9673,-4.2114,1,466,0,69
146154795,1469,-0.0576,-0.1069,1.0024,5.4321,-3.7842,-4.0283,1,480,0,69
146159405,1470,-0.0610,-0.1030,1.0029,4.8828,-4.6387,-3.8452,1,466,0,69
146165356,1471,-0.0571,-0.1113,1.0068,4.4556,-5.3101,-3.8452,1,466,0,69
146170755,1472,-0.0601,-0.1177,1.0078,4.8218,-5.3711,-4.0894,1,475,0,69
146176034,1473,-0.0703,-0.1206,1.0015,5.0659,-6.8970,-4.2725,1,504,0,69
146179401,1474,-0.0811,-0.1226,0.9951,5.2490,-8.1787,-4.6997,1,466,0,69
146185374,1475,-0.0864,-0.1235,0.9956,5.6763,-10.1929,-5.1880,1,466,0,69
146191423,1476,-0.0903,-0.1201,0.9980,5.7983,-12.0239,-5.6152,1,466,0,69
146198353,1477,-0.0713,-0.1079,1.0083,5.6763,-16.3574,-6.2866,1,466,0,69
146200724,1478,-0.0713,-0.1079,1.0083,5.6763,-16.3574,-6.2866,1,477,0,69
146206372,1479,-0.0469,-0.1064,1.0210,5.5542,-16.3574,-6.9580,1,466,0,69
146209759,1480,-0.0332,-0.1079,1.0283,5.4932,-16.7236,-7.1411,1,471,0,69
146215373,1481,-0.0298,-0.1055,1.0288,5.2490,-16.7847,-7.2632,1,466,0,69
146219765,1482,-0.0322,-0.1006,1.0234,4.6997,-17.1509,-7.1411,1,467,0,69
146224406,1483,-0.0366,-0.0986,1.0166,4.1504,-17.3950,-6.9580,1,466,0,69
146229399,1484,-0.0386,-0.0986,1.0137,3.6621,-18.1274,-6.7139,1,466,0,69
146234403,1485,-0.0371,-0.1006,1.0127,3.4180,-18.4326,-6.6528,1,466,0,69
146241353,1486,-0.0391,-0.0977,1.0127,3.1738,-18.9819,-6.7139,1,466,0,69
146244408,1487,-0.0396,-0.0923,1.0137,2.5024,-19.9585,-6.4697,1,467,0,69
146249402,1488,-0.0356,-0.0933,1.0161,1.8311,-20.2026,-6.2866,1,466,0,69
146255350,1489,-0.0342,-0.0996,1.0161,1.5259,-20.5078,-5.9814,1,467,0,69
146259743,1490,-0.0361,-0.1094,1.0112,1.6479,-20.9351,-5.8594,1,467,0,69
146266347,1491,-0.0513,-0.1172,1.0005,2.5024,-23.3154,-6.0425,1,466,0,69
146271768,1492,-0.0430,-0.1201,1.0088,2.8076,-25.2075,-5.7983,1,481,0,69
146277356,1493,-0.0269,-0.1196,1.0176,3.5400,-25.5127,-5.9814,1,466,0,69
146284351,1494,-0.0283,-0.1138,1.0210,3.9673,-26.3062,-6.1646,1,466,0,69
146285719,1495,-0.0283,-0.1138,1.0210,3.9673,-26.3062,-6.1646,1,481,0,69
146294107,1496,-0.0337,-0.1094,1.0249,3.7231,-29.2969,-5.9814,1,499,0,69
146296519,1497,-0.0288,-0.1079,1.0249,3.8452,-31.1890,-5.8594,1,466,0,69
146299402,1498,-0.0288,-0.1079,1.0249,3.8452,-31.1890,-5.8594,1,466,0,69
146304406,1499,-0.0259,-0.1099,1.0220,3.9062,-31.9214,-6.0425,1,466,0,69
146311328,1500,-0.0249,-0.1147,1.0132,4.6387,-35.1562,-6.1035,1,466,0,69
146317430,1501,-0.0190,-0.1162,1.0161,5.1270,-36.4990,-6.1035,1,466,0,69
146319802,1502,-0.0190,-0.1162,1.0161,5.1270,-36.4990,-6.1035,1,471,0,69
146325357,1503,0.0205,-0.1001,1.0405,5.7373,-37.5366,-6.6528,1,466,0,69
146329788,1504,0.0205,-0.1001,1.0405,5.7373,-37.5366,-6.6528,1,484,0,69
146334404,1505,0.0298,-0.0884,1.0469,5.2490,-37.4146,-6.8970,1,466,0,69
146339407,1506,0.0303,-0.0869,1.0483,4.3335,-37.4146,-7.1411,1,466,0,69
146346333,1507,0.0083,-0.0918,1.0449,3.6011,-38.3301,-5.3101,1,467,0,69
146352368,1508,0.0039,-0.0859,1.0483,2.6245,-39.2456,-4.5166,1,466,0,69
146359332,1509,-0.0044,-0.0811,1.0527,1.4648,-40.5884,-3.9062,1,466,0,69
146363718,1510,-0.0244,-0.0796,1.0498,0.8545,-42.6025,-3.1738,1,482,0,69
146367105,1511,-0.0464,-0.0879,1.0444,-0.1831,-46.3867,-2.9907,1,498,0,69
146369515,1512,-0.0464,-0.0879,1.0444,-0.1831,-46.3867,-2.9907,1,466,0,69
146374406,1513,-0.0684,-0.0933,1.0435,-1.2207,-50.6592,-3.9062,1,466,0,69
146379403,1514,-0.0918,-0.0850,1.0444,-1.9531,-57.5561,-5.6152,1,467,0,69
146384401,1515,-0.2910,-0.0454,1.0894,-8.7891,-80.3223,-15.6860,1,466,0,69
146390429,1516,-0.4614,-0.0215,1.1299,-16.1133,-115.6616,-23.6816,1,466,0,69
146396369,1517,-0.5791,-0.0063,1.1558,-24.4141,-151.7944,-31.3110,1,466,0,69
146399402,1518,-0.6685,-0.0015,1.1909,-33.5693,-193.9697,-39.2456,1,466,0,69
146404407,1519,-0.7075,-0.0171,1.2373,-44.7998,-247.9858,-44.8608,1,466,0,69
146409857,1520,-0.7437,-0.0176,1.2812,-56.7017,-300.0488,-53.2837,1,501,0,69
146415351,1521,-0.8306,0.0215,1.3550,-65.1855,-347.3510,-61.8286,1,466,0,69
146422352,1522,-0.9009,0.0493,1.4507,-77.0264,-394.5312,-68.5425,1,466,0,69
146429339,1523,-0.7910,-0.0840,1.6113,-93.5669,-472.9614,-75.5005,1,466,0,69
146430739,1524,-0.7910,-0.0840,1.6113,-93.5669,-472.9614,-75.5005,1,467,0,69
146441137,1525,-0.6060,0.0874,1.6313,-98.2666,-554.8096,-84.7778,1,467,0,70
146444407,1526,-0.6670,0.1064,1.5845,-121.5210,-579.1626,-93.0786,1,466,0,70
146455361,1527,-0.6675,-0.2158,1.3608,-116.8823,-610.9009,-94.4214,1,466,0,71
146462328,1528,-0.5967,-0.2173,1.1182,-102.4780,-631.9580,-101.1963,1,466,0,71
146467748,1529,-0.5337,-0.1963,0.8662,-102.1728,-652.9540,-103.9429,1,480,0,71
146473365,1530,-0.4160,-0.4219,0.4229,-67.0166,-694.5190,-113.9526,1,466,0,71
146474777,1531,-0.4160,-0.4219,0.4229,-67.0166,-694.5190,-113.9526,1,473,0,71
146485358,1532,-0.4712,-0.4180,0.3940,6.0425,-736.8163,-123.7183,1,466,0,72
146489402,1533,-0.2402,-0.0088,0.9131,7.2632,-819.8852,-120.4224,1,466,0,72
146494406,1534,1.7056,0.0010,1.9849,-46.3867,-922.6074,-101.9897,1,466,0,72
146500372,1535,4.4272,-1.1519,3.6060,-111.6943,-638.8550,-91.7969,1,466,0,72
146506356,1536,4.0737,-2.0244,5.4360,-90.2710,-134.9487,-133.9111,1,466,0,72
146512366,1537,1.5840,-1.6162,6.2876,-28.9307,-65.2466,-82.1533,1,466,0,72
146514405,1538,0.0435,-0.9893,5.5552,-25.5737,12.5732,-67.9932,1,466,0,72
146519405,1539,-0.5967,-0.7202,4.0068,-25.3296,126.8921,-72.0215,1,466,0,72
146525367,1540,-0.9077,-0.7070,2.5288,1.9531,168.2739,-65.3076,1,466,0,72
146529399,1541,-1.1045,-0.7373,1.5415,15.1367,178.5278,-58.6548,1,466,0,72
146535348,1542,-1.1909,-0.7109,1.0654,20.2026,169.8608,-49.1943,1,466,0,72
146541360,1543,-1.1069,-0.6372,0.9263,37.2314,154.4189,-41.8701,1,466,0,72
146548326,1544,-0.6924,-0.4355,1.0625,65.6128,143.1885,-37.5977,1,466,0,72
146550727,1545,-0.6924,-0.4355,1.0625,65.6128,143.1885,-37.5977,1,474,0,72
146557329,1546,-0.4009,-0.3960,1.3545,70.4956,162.1704,-34.8511,1,466,0,72
146564347,1547,-0.3218,-0.4292,1.4624,68.5425,178.1616,-32.9590,1,466,0,72
146566756,1548,-0.2666,-0.4668,1.5107,65.3076,195.8008,-30.5176,1,472,0,72
146572365,1549,-0.2251,-0.5034,1.4985,62.3779,214.4775,-27.9541,1,466,0,72
146578377,1550,-0.1978,-0.5366,1.4360,60.3027,231.9946,-25.5127,1,467,0,72
146584358,1551,-0.1768,-0.5688,1.3325,59.2651,247.9858,-22.6440,1,466,0,72
146589817,1552,-0.1489,-0.6055,1.1924,58.6548,261.9629,-19.0430,1,475,0,73
146596330,1553,-0.1401,-0.6729,0.8179,53.4668,279.7241,-9.5825,1,466,0,73
146603348,1554,-0.1650,-0.6978,0.6284,45.7153,278.0762,-3.4180,1,466,0,73
146605749,1555,-0.1650,-0.6978,0.6284,45.7153,278.0762,-3.4180,1,478,0,73
146609405,1556,-0.1812,-0.7129,0.4736,34.4849,270.5078,3.9673,1,466,0,73
146614400,1557,-0.1733,-0.7222,0.3696,19.5312,258.7891,12.9395,1,466,0,73
146620367,1558,-0.1460,-0.7427,0.3213,1.7090,245.9717,22.5830,1,466,0,73
146627334,1559,-0.0659,-0.8394,0.3579,-32.2876,221.1304,46.6919,1,466,0,73
146632878,1560,-0.0347,-0.8940,0.4126,-45.5322,211.9751,60.4248,1,500,0,73
146635290,1561,-0.0347,-0.8940,0.4126,-45.5322,211.9751,60.4248,1,466,0,73
146639402,1562,-0.0259,-0.9277,0.4937,-55.2978,202.1484,75.5615,1,466,0,73
146644407,1563,-0.0083,-0.9390,0.6133,-62.3779,192.1997,91.5527,1,466,0,73
146649405,1564,0.0342,-0.9214,0.7715,-65.4297,186.0351,107.2388,1,466,0,73
146655370,1565,0.1724,-0.7515,1.1191,-62.6831,185.0586,134.2163,1,466,0,73
146661353,1566,0.2456,-0.6025,1.2559,-59.0210,191.7724,143.6768,1,466,0,73
146668350,1567,0.2949,-0.4233,1.3506,-54.8706,200.6836,149.0479,1,466,0,73
146674353,1568,0.3184,-0.2402,1.4092,-51.3916,208.7402,150.0244,1,466,0,73
146678777,1569,0.3330,-0.0811,1.4487,-48.5229,215.7593,147.0337,1,471,0,73
146684116,1570,0.3579,0.0415,1.4858,-45.8374,221.8017,141.0522,1,500,0,73
146685492,1571,0.4023,0.1250,1.5181,-43.3350,228.8818,132.9346,1,466,0,73
146689407,1572,0.4023,0.1250,1.5181,-43.3350,228.8818,132.9346,1,466,0,73
146695348,1573,0.4580,0.2163,1.5200,-35.0952,245.7275,110.5957,1,466,0,73
146702346,1574,0.4604,0.2227,1.4951,-30.9448,250.9765,97.9004,1,466,0,73
146708418,1575,0.4780,0.1904,1.4756,-27.7710,255.9204,85.5102,1,466,0,73
146709822,1576,0.5088,0.1343,1.4546,-24.6582,261.7798,74.2188,1,470,0,73
146717261,1577,0.5244,0.0806,1.4116,-21.7895,267.6392,63.6597,1,495,0,73
146719609,1578,0.5137,0.0342,1.3525,-20.6299,270.9351,53.6499,1,466,0,73
146725347,1579,0.4971,-0.0190,1.3042,-21.5454,271.5454,44.5557,1,466,0,73
146729404,1580,0.4893,-0.0884,1.2905,-23.6816,271.4844,36.8042,1,466,0,73
146735358,1581,0.4897,-0.1733,1.3184,-26.4282,271.4844,30.3345,1,466,0,73
146742327,1582,0.4971,-0.2661,1.3784,-29.7241,271.7285,25.3296,1,466,0,73
146748360,1583,0.5083,-0.3604,1.4624,-33.5693,272.8271,21.5454,1,510,0,73
146752842,1584,0.5249,-0.4512,1.5640,-37.9639,274.9023,19.4702,1,500,0,73
146758366,1585,0.5571,-0.5361,1.6685,-43.3960,278.3813,19.2871,1,466,0,73
146759769,1586,0.6045,-0.6069,1.7500,-48.6450,284.4238,20.5078,1,478,0,73
146767200,1587,0.6450,-0.6504,1.7817,-53.1006,292.1143,22.5830,1,496,0,73
146773352,1588,0.6699,-0.6792,1.7256,-61.6455,301.6357,27.8931,1,466,0,73
146774756,1589,0.6699,-0.6792,1.7256,-61.6455,301.6357,27.8931,1,470,0,73
146783193,1590,0.6997,-0.6904,1.7241,-74.7070,304.5044,36.0107,1,497,0,73
146786625,1591,0.6997,-0.6904,1.7241,-74.7070,304.5044,36.0107,1,466,0,73
146792365,1592,0.7324,-0.6831,1.7837,-54.8096,295.4712,41.1987,1,466,0,73
146794400,1593,0.8057,-0.6235,1.8262,-78.9795,310.3638,36.0107,1,466,0,73
146799404,1594,0.8306,-0.6309,1.9380,-100.5859,314.8193,42.5415,1,466,0,73
146804405,1595,0.8535,-0.6592,2.0542,-83.4961,316.7114,49.5605,1,467,0,73
146809852,1596,0.8911,-0.6318,2.0864,-72.3877,324.7680,57.0068,1,510,0,73
146815374,1597,0.9160,-0.5542,2.0352,-69.7632,332.2754,61.2183,1,466,0,73
146819408,1598,0.9209,-0.4590,1.9463,-66.9556,335.5102,65.4907,1,466,0,73
146824402,1599,0.9263,-0.3687,1.8579,-64.5752,335.6933,68.9697,1,466,0,73
146829401,1600,0.9434,-0.2910,1.7881,-60.8520,332.5195,72.0215,1,466,0,73
146835362,1601,0.9697,-0.2290,1.7383,-56.2134,327.0263,73.5474,1,466,0,73
146842332,1602,1.0522,-0.1704,1.6865,-48.2178,313.4155,74.2188,1,466,0,73
146848363,1603,1.0938,-0.1680,1.6670,-44.1284,306.5796,74.0967,1,466,0,73
146854345,1604,1.1270,-0.1729,1.6323,-38.6353,299.3774,73.9136,1,466,0,73
146860357,1605,1.1519,-0.1763,1.5718,-32.6538,291.8091,73.2422,1,466,0,74
146866367,1606,1.1704,-0.1729,1.4839,-26.9165,283.3252,71.8994,1,466,0,74
146869822,1607,1.1895,-0.1611,1.3735,-22.4609,273.5596,69.7021,1,470,0,74
146874402,1608,1.2168,-0.1357,1.2476,-20.0806,263.0005,65.7349,1,466,0,74
146879824,1609,1.2510,-0.0859,1.1113,-19.2871,251.7700,59.3262,1,495,0,74
146884403,1610,1.2979,-0.0107,0.9688,-20.9961,239.3188,50.4150,1,466,0,74
146889402,1611,1.3574,0.0752,0.8228,-26.6724,226.8066,39.2456,1,466,0,74
146894401,1612,1.4072,0.1577,0.6763,-35.7056,213.7451,26.2451,1,466,0,74
146900366,1613,1.4429,0.2261,0.5386,-46.6919,197.7539,12.7563,1,466,0,74
146907333,1614,1.5698,0.1953,0.3745,-69.2749,160.4004,-10.5591,1,466,0,74
146914351,1615,1.6611,0.0967,0.3472,-72.5098,141.7236,-16.8457,1,466,0,74
146916750,1616,1.7490,-0.0107,0.3276,-69.5801,123.2910,-18.1885,1,475,0,74
146922366,1617,1.8262,-0.1040,0.3018,-61.8896,104.3701,-15.1978,1,466,0,74
146928419,1618,1.8970,-0.1738,0.2695,-49.4995,84.4116,-8.9722,1,487,0,74
146930849,1619,1.8970,-0.1738,0.2695,-49.4995,84.4116,-8.9722,1,495,0,74
146936343,1620,2.0371,-0.1748,0.1899,-13.4277,44.0674,7.6904,1,466,0,74
146942356,1621,2.0942,-0.0762,0.1348,4.5776,23.7427,14.7705,1,466,0,74
146946778,1622,2.1406,0.0439,0.0757,18.0664,3.3569,19.2871,1,468,0,74
146952367,1623,2.1689,0.1279,0.0293,26.2451,-16.7236,20.2026,1,466,0,74
146959333,1624,2.1763,0.1523,0.0112,32.2266,-37.8418,19.4702,1,466,0,74
146964754,1625,2.1733,0.1250,0.0239,37.5977,-59.7534,18.7378,1,470,0,75
146969407,1626,2.1548,0.0630,0.0635,41.6870,-81.0547,18.9819,1,466,0,75
146974401,1627,2.1152,-0.0215,0.1313,44.7388,-102.9663,21.9727,1,466,0,75
146981338,1628,0.6558,-0.3125,-0.0610,63.6597,-163.2080,27.4658,1,466,0,75
146986788,1629,-1.3477,0.1123,0.0312,97.3511,-269.2261,26.0010,1,481,0,75
146990306,1630,-2.7842,-0.0249,0.8291,-10.3149,-284.7290,9.9487,1,466,0,75
146994402,1631,-2.7842,-0.0249,0.8291,-10.3149,-284.7290,9.9487,1,466,0,75
146999403,1632,-3.2861,-1.1025,1.5430,-107.7881,-212.3413,8.8501,1,466,0,75
147004405,1633,-2.9639,-1.9922,1.3008,-17.3950,-257.6294,27.4048,1,466,0,75
147009402,1634,-1.8608,-1.7617,0.1885,88.6841,-307.6782,28.0151,1,467,0,75
147014403,1635,-0.6895,-0.5776,-0.9502,139.0381,-353.1494,11.4746,1,466,0,75
147019406,1636,0.2539,0.5337,-1.4253,152.1606,-417.4194,-8.5449,1,466,0,75
147025364,1637,1.5771,0.5796,0.2075,34.3628,-361.7553,9.9487,1,466,0,75
147029787,1638,0.9517,0.1860,1.4819,15.8081,-336.6699,10.6201,1,482,0,75
147036330,1639,0.2671,0.0562,2.4321,22.9492,-355.3466,11.1694,1,466,0,75
147039403,1640,0.3330,0.2632,2.9565,24.2310,-344.1772,6.2256,1,466,0,75
147044405,1641,0.7676,0.6943,3.0435,32.7759,-305.7861,-6.2866,1,466,0,75
147049405,1642,0.9990,1.0801,2.8081,29.7241,-274.9634,-21.3623,1,466,0,75
147054399,1643,0.9375,1.1611,2.5869,7.5073,-252.7466,-35.4004,1,467,0,75
147059816,1644,0.7739,0.9561,2.5825,-9.6436,-233.7036,-47.5464,1,474,0,75
147065373,1645,0.6753,0.5781,2.6460,-25.0244,-209.2285,-55.5420,1,466,0,75
147071354,1646,0.6055,0.1143,2.5435,-40.0391,-180.4199,-59.5703,1,466,0,75
147074399,1647,0.4668,-0.3599,2.2275,-45.5933,-160.2783,-58.4717,1,466,0,75
147079402,1648,0.2266,-0.9775,1.9404,-48.4619,-149.1699,-50.4150,1,466,0,75
147084400,1649,0.1924,-1.5610,1.9961,-34.7900,-148.9258,-33.3862,1,466,0,75
147091352,1650,0.4287,-1.7363,2.1089,7.9346,-127.0752,-19.2261,1,466,0,75
147094757,1651,0.5347,-1.6187,1.9272,33.4473,-98.4497,-3.6621,1,467,0,75
147099407,1652,0.4463,-1.3457,1.6758,41.6870,-88.9893,9.8267,1,466,0,75
147105349,1653,0.3130,-0.9185,1.5439,61.2793,-82.2754,14.1602,1,466,0,75
147109399,1654,0.2046,-0.4497,1.5005,76.7822,-72.8149,14.9536,1,466,0,75
147115358,1655,0.1240,-0.1055,1.4663,77.8198,-62.9272,11.2305,1,466,0,75
147119782,1656,0.0747,-0.0142,1.3848,71.8384,-55.2978,7.8125,1,466,0,75
147124406,1657,0.0552,-0.1704,1.2676,67.9932,-48.7061,5.9814,1,466,0,75
147129730,1658,0.0664,-0.4834,1.1875,71.2280,-44.2505,5.6152,1,467,0,75
147135133,1659,0.0698,-0.5762,1.0596,111.7554,-40.1001,6.5308,1,467,0,75
147144328,1660,0.0767,-0.2197,1.1890,141.2964,-40.9546,18.0054,1,466,0,75
147146729,1661,0.0767,-0.2197,1.1890,141.2964,-40.9546,18.0054,1,469,0,75
147149401,1662,0.1362,0.1597,1.1987,88.9282,-27.2827,5.3101,1,466,0,75
147154401,1663,0.0908,0.3003,1.3184,45.1660,-15.6860,1.4648,1,466,0,75
147160343,1664,0.0288,0.1758,1.4434,65.0024,-19.0430,3.8452,1,466,0,75
147167340,1665,0.0488,-0.0781,1.2876,62.0117,-10.0098,2.3804,1,466,0,75
147173343,1666,0.0308,-0.0942,1.1724,51.5747,-8.1177,0.0610,1,466,0,75
147175720,1667,0.0308,-0.0942,1.1724,51.5747,-8.1177,0.0610,1,478,0,75
147181371,1668,-0.0093,-0.0713,1.1318,32.9590,-8.4839,0.5493,1,466,0,75
147185673,1669,-0.0229,-0.0527,1.1724,28.8696,-8.6060,-1.3428,1,483,0,75
147189401,1670,-0.0034,-0.0508,1.2139,30.6396,-8.4839,-2.2583,1,467,0,75
147194400,1671,0.0088,-0.0718,1.1855,27.8320,-6.6528,-3.0518,1,466,0,75
147199404,1672,0.0005,-0.1172,1.1191,22.2168,-5.3101,-3.4790,1,467,0,75
147204403,1673,0.0054,-0.1118,1.0474,22.0337,-6.5918,-2.1973,1,467,0,75
147210364,1674,0.0103,-0.1299,1.0723,7.9956,-2.5024,-2.5635,1,466,0,75
147216376,1675,0.0093,-0.1812,1.1230,26.8555,-4.0894,-4.6997,1,466,0,75
147219403,1676,0.0195,-0.1523,1.0713,25.3296,-4.6387,-2.9907,1,466,0,75
147225348,1677,0.0127,-0.1392,1.0464,9.9487,-2.0142,-1.7090,1,466,0,75
147231359,1678,-0.0181,-0.1650,1.0498,22.5830,-5.3101,-2.5024,1,467,0,75
147238323,1679,-0.0166,-0.1724,1.0229,16.3574,-4.0283,-3.7231,1,466,0,75
147239698,1680,-0.0166,-0.1724,1.0229,16.3574,-4.0283,-3.7231,1,483,0,75
147246075,1681,-0.0186,-0.1919,1.0093,22.3389,-4.6997,-5.6152,1,5463,0,75
147252424,1682,-0.0215,-0.1812,0.9990,20.4468,-4.6387,-6.8359,1,466,0,75
147259352,1683,-0.0200,-0.1714,0.9971,21.1182,-4.7607,-7.6904,1,466,0,75
147260723,1684,-0.0200,-0.1714,0.9971,21.1182,-4.7607,-7.6904,1,475,0,75
147264407,1685,-0.0210,-0.1592,1.0039,22.4609,-4.5166,-8.1787,1,466,0,75
147269400,1686,-0.0269,-0.1494,1.0117,22.5220,-5.0659,-8.2397,1,466,0,75
147274407,1687,-0.0288,-0.1382,1.0225,23.3154,-5.9814,-8.3008,1,467,0,75
147279405,1688,-0.0220,-0.1221,1.0347,23.0103,-6.5918,-7.8735,1,466,0,75
147284405,1689,-0.0117,-0.1162,1.0391,22.0947,-6.5918,-6.8359,1,466,0,75
147289421,1690,-0.0068,-0.1201,1.0366,22.0947,-5.9204,-5.7373,1,466,0,75
147294406,1691,-0.0044,-0.1221,1.0322,21.6064,-4.9438,-4.8218,1,466,0,75
147299403,1692,-0.0020,-0.1216,1.0278,19.9585,-3.4180,-4.0894,1,466,0,75
