t_us, seq, ax, ay, az, gx, gy, gz, mx, my, mz, valid_mag_reading, valid, t_imu_us, t_serial_us, last_t_mag, missed
28741253,10,-0.0425,0.0039,1.0171,0.0610,0.2441,-0.1831,5.0000,38.0000,66.0000,1,1,488,1174,396,0
28746252,11,-0.0425,0.0049,1.0186,0.0000,0.1831,-0.1221,5.0000,38.0000,66.0000,0,1,500,1186,764,0
28751251,12,-0.0425,0.0059,1.0210,0.0000,0.2441,-0.1831,5.0000,38.0000,66.0000,0,1,479,1125,423,0
28756252,13,-0.0425,0.0039,1.0205,0.0610,0.3052,-0.2441,5.0000,38.0000,66.0000,0,1,480,1127,422,0
28761254,14,-0.0420,0.0029,1.0190,0.0000,0.1831,-0.1221,5.0000,38.0000,66.0000,0,1,463,1174,412,0
28766252,15,-0.0420,0.0044,1.0200,0.0000,0.1221,-0.1221,5.0000,38.0000,66.0000,0,1,463,1128,426,0
28771251,16,-0.0430,0.0054,1.0210,0.0610,0.1831,-0.3052,5.0000,38.0000,66.0000,0,1,462,1121,414,0
28776249,17,-0.0439,0.0049,1.0210,-0.0610,0.1831,-0.2441,5.0000,38.0000,66.0000,0,1,462,1166,434,0
28781253,18,-0.0435,0.0039,1.0195,-0.0610,0.3662,-0.2441,5.0000,38.0000,66.0000,0,1,463,1073,409,0
28786249,19,-0.0430,0.0034,1.0186,0.1221,0.3052,-0.2441,5.0000,38.0000,66.0000,0,1,463,1160,410,0
28791270,20,-0.0425,0.0049,1.0195,0.0610,0.1831,-0.1831,5.0000,38.0000,66.0000,0,1,463,1134,396,0
28796253,21,-0.0420,0.0059,1.0200,-0.0610,0.2441,-0.2441,5.0000,38.0000,66.0000,0,1,462,1176,398,0
28801253,22,-0.0420,0.0068,1.0195,-0.1831,0.2441,-0.2441,5.0000,38.0000,66.0000,0,1,466,1268,396,0
28806272,23,-0.0430,0.0054,1.0195,-0.1221,0.2441,-0.2441,5.0000,38.0000,66.0000,0,1,464,1195,396,0
28811256,24,-0.0430,0.0039,1.0210,0.0000,0.2441,-0.2441,5.0000,38.0000,66.0000,0,1,491,1188,396,0
28816250,25,-0.0430,0.0044,1.0220,0.0000,0.3052,-0.1831,5.0000,38.0000,66.0000,0,1,483,1133,396,0
28821253,26,-0.0425,0.0049,1.0215,0.0000,0.3052,-0.3052,5.0000,38.0000,66.0000,0,1,499,1127,396,0
28826255,27,-0.0420,0.0049,1.0215,-0.0610,0.2441,-0.2441,5.0000,38.0000,66.0000,0,1,484,1121,396,0
28831254,28,-0.0425,0.0049,1.0210,-0.1221,0.3052,-0.1221,5.0000,38.0000,66.0000,0,1,488,1179,397,0
28836250,29,-0.0430,0.0049,1.0195,-0.0610,0.2441,-0.2441,5.0000,38.0000,66.0000,0,1,492,1164,396,0
28841250,30,-0.0420,0.0049,1.0186,0.0000,0.1221,-0.1831,6.0000,40.0000,64.0000,1,1,479,1179,397,0
28846253,31,-0.0415,0.0054,1.0190,0.0000,0.2441,-0.1831,6.0000,40.0000,64.0000,0,1,495,1072,764,0
28851255,32,-0.0430,0.0054,1.0205,0.0000,0.3052,-0.1831,6.0000,40.0000,64.0000,0,1,472,1108,422,0
28856255,33,-0.0435,0.0044,1.0200,-0.0610,0.3052,-0.2441,6.0000,40.0000,64.0000,0,1,479,1099,411,0
28861254,34,-0.0444,0.0044,1.0195,-0.1221,0.2441,-0.2441,6.0000,40.0000,64.0000,0,1,463,1144,438,0
28866256,35,-0.0439,0.0049,1.0210,-0.1221,0.3052,-0.1831,6.0000,40.0000,64.0000,0,1,463,1152,424,0
28871254,36,-0.0430,0.0054,1.0229,-0.0610,0.2441,-0.1831,6.0000,40.0000,64.0000,0,1,463,1143,439,0
28876254,37,-0.0430,0.0049,1.0244,0.0610,0.1831,-0.2441,6.0000,40.0000,64.0000,0,1,462,1152,423,0
28881254,38,-0.0430,0.0044,1.0229,-0.0610,0.3662,-0.1831,6.0000,40.0000,64.0000,0,1,463,1056,413,0
28886254,39,-0.0435,0.0044,1.0195,-0.0610,0.3052,-0.2441,6.0000,40.0000,64.0000,0,1,462,1114,396,0
28891258,40,-0.0430,0.0049,1.0166,0.0610,0.2441,-0.2441,6.0000,40.0000,64.0000,0,1,463,1138,412,0
28896254,41,-0.0420,0.0049,1.0176,-0.0610,0.2441,-0.2441,6.0000,40.0000,64.0000,0,1,463,1190,398,0
28901254,42,-0.0425,0.0034,1.0190,-0.0610,0.2441,-0.2441,6.0000,40.0000,64.0000,0,1,489,1207,413,0
28906269,43,-0.0430,0.0039,1.0195,0.0610,0.2441,-0.2441,6.0000,40.0000,64.0000,0,1,465,1172,396,0
28911256,44,-0.0430,0.0044,1.0195,0.0000,0.3052,-0.1831,6.0000,40.0000,64.0000,0,1,491,1172,397,0
28916256,45,-0.0430,0.0039,1.0200,0.0000,0.3052,-0.1831,6.0000,40.0000,64.0000,0,1,481,1103,396,0
28921256,46,-0.0420,0.0044,1.0205,0.0000,0.3052,-0.1221,6.0000,40.0000,64.0000,0,1,492,1102,396,0
28926254,47,-0.0420,0.0049,1.0210,-0.0610,0.3662,-0.0610,6.0000,40.0000,64.0000,0,1,484,1096,397,0
28931248,48,-0.0425,0.0049,1.0215,0.0000,0.1831,-0.1221,6.0000,40.0000,64.0000,0,1,480,1146,396,0
28936254,49,-0.0430,0.0049,1.0205,0.1221,0.1221,-0.0610,6.0000,40.0000,64.0000,0,1,500,1100,396,0
28941250,50,-0.0430,0.0049,1.0190,0.1221,0.1221,-0.2441,6.0000,37.0000,60.0000,1,1,496,1140,397,0
28946255,51,-0.0425,0.0054,1.0190,0.1831,0.3052,-0.2441,6.0000,37.0000,60.0000,0,1,470,1135,791,0
28951248,52,-0.0430,0.0054,1.0190,0.0000,0.3052,-0.2441,6.0000,37.0000,60.0000,0,1,471,1150,399,0
28956252,53,-0.0435,0.0054,1.0205,0.0610,0.1221,-0.2441,6.0000,37.0000,60.0000,0,1,462,1101,421,0
28961251,54,-0.0425,0.0044,1.0220,0.0610,0.0610,-0.1831,6.0000,37.0000,60.0000,0,1,463,1146,418,0
28966253,55,-0.0425,0.0039,1.0225,-0.0610,0.1831,-0.2441,6.0000,37.0000,60.0000,0,1,463,1147,439,0
28971248,56,-0.0430,0.0044,1.0225,-0.0610,0.3052,-0.3662,6.0000,37.0000,60.0000,0,1,463,1153,407,0
28976249,57,-0.0430,0.0049,1.0225,0.0610,0.3662,-0.2441,6.0000,37.0000,60.0000,0,1,463,1038,439,0
28981250,58,-0.0430,0.0054,1.0225,0.0000,0.2441,-0.2441,6.0000,37.0000,60.0000,0,1,462,1111,425,0
28986249,59,-0.0430,0.0054,1.0210,0.0000,0.3052,-0.3052,6.0000,37.0000,60.0000,0,1,463,1133,412,0
28991250,60,-0.0420,0.0039,1.0200,0.0000,0.2441,-0.1831,6.0000,37.0000,60.0000,0,1,462,1084,396,0
28996251,61,-0.0410,0.0029,1.0205,0.0000,0.3052,-0.1831,6.0000,37.0000,60.0000,0,1,490,1097,413,0
29001254,62,-0.0400,0.0034,1.0205,0.0000,0.2441,-0.1831,6.0000,37.0000,60.0000,0,1,465,1092,396,0
29006256,63,-0.0410,0.0034,1.0205,-0.0610,0.2441,-0.1831,6.0000,37.0000,60.0000,0,1,483,1082,397,0
29011252,64,-0.0435,0.0034,1.0195,0.0000,0.2441,-0.1831,6.0000,37.0000,60.0000,0,1,507,1144,397,0
29016253,65,-0.0454,0.0039,1.0195,0.0000,0.2441,-0.1831,6.0000,37.0000,60.0000,0,1,492,1113,396,0
29021248,66,-0.0444,0.0049,1.0205,-0.0610,0.1831,-0.1831,6.0000,37.0000,60.0000,0,1,502,1116,397,0
29026255,67,-0.0425,0.0059,1.0210,0.0610,0.3662,-0.2441,6.0000,37.0000,60.0000,0,1,472,1155,397,0
29031251,68,-0.0420,0.0059,1.0205,0.0610,0.3052,-0.2441,6.0000,37.0000,60.0000,0,1,480,1147,396,0
29036249,69,-0.0420,0.0049,1.0215,-0.1221,0.3052,-0.2441,6.0000,37.0000,60.0000,0,1,492,1146,396,0
29041254,70,-0.0415,0.0044,1.0210,-0.0610,0.3662,-0.2441,6.0000,40.0000,61.0000,1,1,492,1146,395,0
29046255,71,-0.0415,0.0044,1.0195,0.0610,0.3052,-0.2441,6.0000,40.0000,61.0000,0,1,467,1144,791,0
29051257,72,-0.0415,0.0044,1.0186,0.0000,0.3052,-0.2441,6.0000,40.0000,61.0000,0,1,480,1153,397,0
29056255,73,-0.0410,0.0044,1.0181,0.0000,0.1831,-0.2441,6.0000,40.0000,61.0000,0,1,463,1105,439,0
29061248,74,-0.0410,0.0034,1.0171,-0.0610,0.2441,-0.1221,6.0000,40.0000,61.0000,0,1,463,1108,422,0
29066250,75,-0.0415,0.0029,1.0186,-0.0610,0.1831,-0.2441,6.0000,40.0000,61.0000,0,1,462,1152,415,0
29071248,76,-0.0425,0.0039,1.0205,0.0000,0.2441,-0.3052,6.0000,40.0000,61.0000,0,1,463,1157,415,0
29076256,77,-0.0435,0.0049,1.0210,0.0000,0.3662,-0.3052,6.0000,40.0000,61.0000,0,1,463,1020,438,0
29081250,78,-0.0430,0.0054,1.0200,-0.0610,0.3662,-0.2441,6.0000,40.0000,61.0000,0,1,462,1036,420,0
29086257,79,-0.0420,0.0054,1.0195,-0.1221,0.2441,-0.2441,6.0000,40.0000,61.0000,0,1,462,1112,413,0
29091251,80,-0.0430,0.0039,1.0200,0.0000,0.1831,-0.2441,6.0000,40.0000,61.0000,0,1,463,1182,395,0
29096256,81,-0.0439,0.0029,1.0205,0.0000,0.3052,-0.1831,6.0000,40.0000,61.0000,0,1,489,1100,414,0
29101255,82,-0.0439,0.0039,1.0205,0.0000,0.1831,-0.1221,6.0000,40.0000,61.0000,0,1,466,1126,397,0
29106256,83,-0.0435,0.0044,1.0215,0.0610,0.2441,-0.1221,6.0000,40.0000,61.0000,0,1,491,1083,396,0
29111249,84,-0.0430,0.0044,1.0210,0.0610,0.2441,-0.2441,6.0000,40.0000,61.0000,0,1,508,1138,396,0
29116255,85,-0.0420,0.0044,1.0190,-0.0610,0.3662,-0.2441,6.0000,40.0000,61.0000,0,1,493,1154,396,0
29121248,86,-0.0420,0.0039,1.0190,0.0000,0.2441,-0.1831,6.0000,40.0000,61.0000,0,1,497,1156,396,0
29126250,87,-0.0425,0.0039,1.0215,0.1221,0.1831,-0.1831,6.0000,40.0000,61.0000,0,1,491,1114,396,0
29131254,88,-0.0430,0.0054,1.0225,0.0610,0.2441,-0.2441,6.0000,40.0000,61.0000,0,1,480,1155,396,0
29136252,89,-0.0430,0.0068,1.0220,0.0000,0.2441,-0.1831,6.0000,40.0000,61.0000,0,1,484,1155,397,0
29141248,90,-0.0439,0.0078,1.0210,-0.0610,0.3052,-0.1221,6.0000,37.0000,65.0000,1,1,505,1112,397,0
29146251,91,-0.0439,0.0068,1.0190,-0.0610,0.2441,-0.2441,6.0000,37.0000,65.0000,0,1,468,1119,791,0
29151252,92,-0.0420,0.0054,1.0186,0.0610,0.1831,-0.2441,6.0000,37.0000,65.0000,0,1,479,1160,399,0
29156249,93,-0.0415,0.0049,1.0200,0.0610,0.2441,-0.1831,6.0000,37.0000,65.0000,0,1,462,1151,439,0
29161252,94,-0.0420,0.0049,1.0200,0.0000,0.2441,-0.1831,6.0000,37.0000,65.0000,0,1,463,1153,424,0
29166252,95,-0.0430,0.0039,1.0195,0.0000,0.3052,-0.3662,6.0000,37.0000,65.0000,0,1,463,1107,439,0
29171251,96,-0.0439,0.0034,1.0195,0.1221,0.1831,-0.2441,6.0000,37.0000,65.0000,0,1,463,1004,408,0
29176255,97,-0.0430,0.0044,1.0200,0.0610,0.1831,-0.1221,6.0000,37.0000,65.0000,0,1,462,1158,439,0
29181256,98,-0.0420,0.0054,1.0205,0.0000,0.2441,-0.1831,6.0000,37.0000,65.0000,0,1,463,1119,419,0
29186256,99,-0.0430,0.0054,1.0200,0.0000,0.1831,-0.1831,6.0000,37.0000,65.0000,0,1,463,1105,412,0
29191249,100,-0.0435,0.0059,1.0210,0.0000,0.1221,-0.3052,6.0000,37.0000,65.0000,0,1,463,1097,395,0
29196248,101,-0.0430,0.0063,1.0210,0.0610,0.2441,-0.2441,6.0000,37.0000,65.0000,0,1,463,1085,414,0
29201256,102,-0.0430,0.0049,1.0205,0.0000,0.1831,-0.1221,6.0000,37.0000,65.0000,0,1,466,1164,397,0
29206252,103,-0.0425,0.0044,1.0205,-0.0610,0.2441,-0.3052,6.0000,37.0000,65.0000,0,1,491,1078,397,0
29211251,104,-0.0420,0.0039,1.0205,0.0000,0.3052,-0.3052,6.0000,37.0000,65.0000,0,1,508,1138,396,0
29216254,105,-0.0425,0.0039,1.0200,0.0000,0.3052,-0.3052,6.0000,37.0000,65.0000,0,1,485,1103,396,0
29221257,106,-0.0425,0.0044,1.0195,0.0610,0.3052,-0.1831,6.0000,37.0000,65.0000,0,1,496,1101,396,0
29226252,107,-0.0425,0.0054,1.0200,-0.0610,0.3052,-0.1221,6.0000,37.0000,65.0000,0,1,503,1151,397,0
29231251,108,-0.0430,0.0054,1.0210,0.0610,0.1831,-0.3052,6.0000,37.0000,65.0000,0,1,477,1144,397,0
29236253,109,-0.0425,0.0044,1.0205,0.0610,0.1221,-0.2441,6.0000,37.0000,65.0000,0,1,487,1147,396,0
29241251,110,-0.0420,0.0039,1.0190,-0.0610,0.3052,-0.2441,6.0000,41.0000,65.0000,1,1,490,1149,395,0
29246255,111,-0.0425,0.0044,1.0186,-0.1221,0.2441,-0.1831,6.0000,41.0000,65.0000,0,1,469,1145,792,0
29251251,112,-0.0435,0.0034,1.0205,-0.0610,0.3052,-0.2441,6.0000,41.0000,65.0000,0,1,480,1156,396,0
29256250,113,-0.0435,0.0034,1.0210,0.0000,0.3052,-0.1831,6.0000,41.0000,65.0000,0,1,463,1154,439,0
29261253,114,-0.0420,0.0039,1.0205,0.0000,0.3662,-0.2441,6.0000,41.0000,65.0000,0,1,463,1107,423,0
29266251,115,-0.0410,0.0049,1.0210,0.0000,0.2441,-0.3052,6.0000,41.0000,65.0000,0,1,463,1115,439,0
29271250,116,-0.0415,0.0054,1.0200,0.0000,0.2441,-0.3052,6.0000,41.0000,65.0000,0,1,462,1002,410,0
29276252,117,-0.0425,0.0059,1.0190,-0.0610,0.3052,-0.3052,6.0000,41.0000,65.0000,0,1,463,1004,438,0
29281255,118,-0.0435,0.0059,1.0200,0.0000,0.2441,-0.1831,6.0000,41.0000,65.0000,0,1,462,1106,415,0
29286256,119,-0.0439,0.0054,1.0220,-0.0610,0.3052,-0.1221,6.0000,41.0000,65.0000,0,1,462,1079,413,0
29291274,120,-0.0439,0.0034,1.0210,0.0610,0.2441,-0.1831,6.0000,41.0000,65.0000,0,1,463,1177,396,0
29296249,121,-0.0430,0.0034,1.0195,0.0610,0.2441,-0.3052,6.0000,41.0000,65.0000,0,1,463,1187,408,0
29301249,122,-0.0430,0.0039,1.0195,0.0000,0.2441,-0.1831,6.0000,41.0000,65.0000,0,1,465,1166,396,0
29306255,123,-0.0425,0.0044,1.0200,0.0000,0.1831,-0.1831,6.0000,41.0000,65.0000,0,1,490,1134,397,0
29311254,124,-0.0425,0.0039,1.0200,0.0000,0.2441,-0.3052,6.0000,41.0000,65.0000,0,1,490,1084,397,0
29316252,125,-0.0430,0.0039,1.0195,0.0610,0.2441,-0.1831,6.0000,41.0000,65.0000,0,1,480,1110,397,0
29321256,126,-0.0430,0.0029,1.0200,-0.0610,0.2441,-0.1831,6.0000,41.0000,65.0000,0,1,492,1162,397,0
29326251,127,-0.0430,0.0024,1.0205,-0.1221,0.2441,-0.3052,6.0000,41.0000,65.0000,0,1,475,1159,398,0
29331256,128,-0.0430,0.0029,1.0200,-0.0610,0.3662,-0.3052,6.0000,41.0000,65.0000,0,1,490,1155,397,0
29336252,129,-0.0420,0.0039,1.0200,-0.0610,0.1831,-0.1221,6.0000,41.0000,65.0000,0,1,474,1153,397,0
29341250,130,-0.0420,0.0044,1.0200,-0.0610,0.0610,-0.1831,6.0000,41.0000,65.0000,0,1,476,1154,396,0
29346251,131,-0.0420,0.0044,1.0205,0.0000,0.1831,-0.1831,4.0000,40.0000,65.0000,1,1,508,1153,395,0
29351249,132,-0.0425,0.0049,1.0215,0.1221,0.3052,-0.1831,4.0000,40.0000,65.0000,0,1,463,1100,792,0
29356248,133,-0.0435,0.0049,1.0215,0.0000,0.2441,-0.1831,4.0000,40.0000,65.0000,0,1,480,1135,413,0
29361248,134,-0.0430,0.0039,1.0215,0.0610,0.1831,-0.1831,4.0000,40.0000,65.0000,0,1,463,1096,412,0
29366250,135,-0.0425,0.0039,1.0205,0.0000,0.3662,-0.2441,4.0000,40.0000,65.0000,0,1,462,1143,424,0
29371256,136,-0.0435,0.0039,1.0195,0.0000,0.3052,-0.1831,4.0000,40.0000,65.0000,0,1,462,1100,414,0
29376253,137,-0.0430,0.0029,1.0205,-0.0610,0.2441,-0.2441,4.0000,40.0000,65.0000,0,1,463,992,417,0
29381255,138,-0.0410,0.0015,1.0210,-0.1221,0.1831,-0.2441,4.0000,40.0000,65.0000,0,1,462,1041,439,0
29386253,139,-0.0396,0.0010,1.0210,0.0000,0.3052,-0.1831,4.0000,40.0000,65.0000,0,1,463,1101,424,0
29391251,140,-0.0405,0.0024,1.0195,0.1221,0.4272,-0.1221,4.0000,40.0000,65.0000,0,1,463,1141,412,0
29396257,141,-0.0430,0.0044,1.0181,0.0610,0.3052,-0.1831,4.0000,40.0000,65.0000,0,1,463,1199,408,0
29401250,142,-0.0439,0.0049,1.0186,0.0000,0.1831,-0.2441,4.0000,40.0000,65.0000,0,1,489,1146,414,0
29406248,143,-0.0425,0.0039,1.0205,-0.1221,0.1831,-0.2441,4.0000,40.0000,65.0000,0,1,475,1090,397,0
29411256,144,-0.0410,0.0034,1.0210,-0.0610,0.2441,-0.1831,4.0000,40.0000,65.0000,0,1,485,1163,397,0
29416255,145,-0.0410,0.0039,1.0200,0.0000,0.3052,-0.2441,4.0000,40.0000,65.0000,0,1,464,1146,397,0
29421248,146,-0.0420,0.0034,1.0190,0.0000,0.1831,-0.1831,4.0000,40.0000,65.0000,0,1,500,1097,396,0
29426251,147,-0.0425,0.0020,1.0190,0.0000,0.1831,-0.1831,4.0000,40.0000,65.0000,0,1,475,1103,396,0
29431253,148,-0.0430,0.0020,1.0195,0.0000,0.2441,-0.1831,4.0000,40.0000,65.0000,0,1,486,1099,396,0
29436253,149,-0.0430,0.0029,1.0200,-0.0610,0.1831,-0.1831,4.0000,40.0000,65.0000,0,1,475,1100,397,0
29441251,150,-0.0430,0.0039,1.0215,0.0610,0.2441,-0.3052,4.0000,40.0000,65.0000,0,1,503,1145,397,0
29446249,151,-0.0425,0.0049,1.0220,0.1221,0.2441,-0.1831,5.0000,40.0000,62.0000,1,1,491,1140,395,0
29451254,152,-0.0420,0.0054,1.0220,0.0000,0.1831,-0.1831,5.0000,40.0000,62.0000,0,1,464,1152,765,0
29456253,153,-0.0425,0.0054,1.0220,0.1221,0.2441,-0.1831,5.0000,40.0000,62.0000,0,1,480,1107,411,0
29461249,154,-0.0425,0.0054,1.0210,0.0000,0.3662,-0.2441,5.0000,40.0000,62.0000,0,1,463,1151,438,0
29466248,155,-0.0435,0.0054,1.0205,0.0000,0.4272,-0.1831,5.0000,40.0000,62.0000,0,1,463,1106,429,0
29471250,156,-0.0444,0.0044,1.0215,-0.0610,0.3662,-0.3052,5.0000,40.0000,62.0000,0,1,463,1107,413,0
29476248,157,-0.0439,0.0049,1.0225,0.0000,0.2441,-0.3052,5.0000,40.0000,62.0000,0,1,463,1149,422,0
29481255,158,-0.0430,0.0054,1.0215,-0.0610,0.1831,-0.2441,5.0000,40.0000,62.0000,0,1,463,1076,439,0
29486253,159,-0.0435,0.0044,1.0205,-0.0610,0.2441,-0.1831,5.0000,40.0000,62.0000,0,1,463,1124,429,0
29491252,160,-0.0439,0.0039,1.0195,0.0000,0.3052,-0.1831,5.0000,40.0000,62.0000,0,1,463,1114,412,0
29496256,161,-0.0435,0.0054,1.0195,0.0000,0.3052,-0.2441,5.0000,40.0000,62.0000,0,1,462,1120,409,0
29501253,162,-0.0435,0.0059,1.0200,-0.0610,0.1221,-0.3052,5.0000,40.0000,62.0000,0,1,490,1094,413,0
29506265,163,-0.0430,0.0059,1.0205,0.0000,0.1831,-0.2441,5.0000,40.0000,62.0000,0,1,465,1159,396,0
29511254,164,-0.0435,0.0059,1.0200,0.0000,0.3662,-0.0610,5.0000,40.0000,62.0000,0,1,474,1125,398,0
29516252,165,-0.0444,0.0044,1.0200,0.0000,0.3662,-0.1831,5.0000,40.0000,62.0000,0,1,507,1103,396,0
29521254,166,-0.0439,0.0039,1.0210,0.0000,0.3662,-0.2441,5.0000,40.0000,62.0000,0,1,493,1111,397,0
29526253,167,-0.0435,0.0049,1.0210,0.0000,0.3052,-0.2441,5.0000,40.0000,62.0000,0,1,479,1114,396,0
29531254,168,-0.0430,0.0054,1.0215,-0.1221,0.2441,-0.1831,5.0000,40.0000,62.0000,0,1,493,1102,396,0
29536250,169,-0.0420,0.0054,1.0229,-0.1221,0.0610,-0.1831,5.0000,40.0000,62.0000,0,1,504,1152,396,0
29541252,170,-0.0415,0.0049,1.0229,-0.0610,0.3052,-0.1831,5.0000,40.0000,62.0000,0,1,490,1153,398,0
29546253,171,-0.0420,0.0034,1.0200,0.0610,0.3052,-0.2441,7.0000,40.0000,64.0000,1,1,499,1153,395,0
29551250,172,-0.0430,0.0034,1.0186,0.0000,0.1831,-0.1831,7.0000,40.0000,64.0000,0,1,479,1138,791,0
29556251,173,-0.0425,0.0044,1.0186,0.1221,0.4272,-0.1221,7.0000,40.0000,64.0000,0,1,480,1108,403,0
29561250,174,-0.0420,0.0044,1.0181,0.0000,0.3052,-0.1831,7.0000,40.0000,64.0000,0,1,462,1144,439,0
29566249,175,-0.0425,0.0044,1.0190,-0.0610,0.1221,-0.3052,7.0000,40.0000,64.0000,0,1,463,1100,426,0
29571248,176,-0.0430,0.0054,1.0210,-0.0610,0.3052,-0.1221,7.0000,40.0000,64.0000,0,1,463,1143,412,0
29576255,177,-0.0430,0.0063,1.0225,0.0610,0.3052,-0.1221,7.0000,40.0000,64.0000,0,1,463,1139,414,0
29581256,178,-0.0430,0.0059,1.0225,0.0610,0.2441,-0.1831,7.0000,40.0000,64.0000,0,1,462,1037,438,0
29586250,179,-0.0420,0.0054,1.0220,0.0000,0.2441,-0.2441,7.0000,40.0000,64.0000,0,1,463,1122,418,0
29591249,180,-0.0415,0.0049,1.0200,-0.0610,0.2441,-0.3052,7.0000,40.0000,64.0000,0,1,463,1133,412,0
29596251,181,-0.0415,0.0039,1.0195,-0.1221,0.1831,-0.3662,7.0000,40.0000,64.0000,0,1,463,1189,405,0
29601250,182,-0.0425,0.0039,1.0205,0.0000,0.1831,-0.2441,7.0000,40.0000,64.0000,0,1,463,1198,413,0
29606261,183,-0.0430,0.0049,1.0210,0.1221,0.3052,-0.1831,7.0000,40.0000,64.0000,0,1,465,1100,397,0
29611255,184,-0.0435,0.0049,1.0215,0.0610,0.1831,-0.3052,7.0000,40.0000,64.0000,0,1,491,1161,396,0
29616252,185,-0.0430,0.0054,1.0215,-0.0610,0.2441,-0.2441,7.0000,40.0000,64.0000,0,1,507,1119,397,0
29621254,186,-0.0420,0.0054,1.0205,0.0000,0.2441,-0.2441,7.0000,40.0000,64.0000,0,1,489,1154,396,0
29626248,187,-0.0415,0.0034,1.0195,-0.0610,0.1221,-0.2441,7.0000,40.0000,64.0000,0,1,476,1110,397,0
29631253,188,-0.0420,0.0029,1.0190,-0.1221,0.1831,-0.1831,7.0000,40.0000,64.0000,0,1,498,1157,396,0
29636251,189,-0.0425,0.0039,1.0195,0.0610,0.2441,-0.2441,7.0000,40.0000,64.0000,0,1,485,1154,396,0
29641254,190,-0.0435,0.0039,1.0210,0.1221,0.3052,-0.2441,7.0000,40.0000,64.0000,0,1,495,1158,396,0
29646255,191,-0.0435,0.0034,1.0215,0.0610,0.3052,-0.1831,6.0000,42.0000,59.0000,1,1,506,1146,395,0
29651250,192,-0.0425,0.0034,1.0200,0.0610,0.1831,-0.3052,6.0000,42.0000,59.0000,0,1,464,1134,792,0
29656252,193,-0.0425,0.0039,1.0200,0.0000,0.2441,-0.3052,6.0000,42.0000,59.0000,0,1,480,1160,409,0
29661249,194,-0.0425,0.0049,1.0205,0.0610,0.1831,-0.3052,6.0000,42.0000,59.0000,0,1,463,1115,439,0
29666254,195,-0.0425,0.0054,1.0210,-0.0610,0.1831,-0.2441,6.0000,42.0000,59.0000,0,1,463,1157,431,0
29671252,196,-0.0420,0.0059,1.0215,0.0000,0.2441,-0.1831,6.0000,42.0000,59.0000,0,1,463,1162,411,0
29676253,197,-0.0415,0.0049,1.0215,0.0000,0.1831,-0.1831,6.0000,42.0000,59.0000,0,1,462,1006,417,0
29681248,198,-0.0420,0.0029,1.0229,0.0000,0.3662,-0.1831,6.0000,42.0000,59.0000,0,1,463,1016,438,0
29686257,199,-0.0425,0.0024,1.0220,-0.0610,0.2441,-0.2441,6.0000,42.0000,59.0000,0,1,462,1037,429,0
29691250,200,-0.0420,0.0039,1.0205,-0.1221,0.1221,-0.3052,6.0000,42.0000,59.0000,0,1,463,1155,412,0
29696253,201,-0.0415,0.0049,1.0210,0.0000,0.1831,-0.3052,6.0000,42.0000,59.0000,0,1,463,1194,410,0
29701252,202,-0.0410,0.0054,1.0210,0.0000,0.4272,-0.1831,6.0000,42.0000,59.0000,0,1,489,1131,397,0
29706270,203,-0.0410,0.0049,1.0215,-0.0610,0.3052,-0.3662,6.0000,42.0000,59.0000,0,1,465,1106,396,0
29711252,204,-0.0420,0.0049,1.0210,0.0610,0.1831,-0.2441,6.0000,42.0000,59.0000,0,1,491,1178,396,0
29716250,205,-0.0430,0.0049,1.0190,0.0610,0.1831,-0.1831,6.0000,42.0000,59.0000,0,1,466,1163,396,0
29721253,206,-0.0439,0.0049,1.0186,-0.0610,0.3052,-0.1831,6.0000,42.0000,59.0000,0,1,497,1165,397,0
29726254,207,-0.0444,0.0039,1.0195,-0.1221,0.2441,-0.1831,6.0000,42.0000,59.0000,0,1,481,1160,397,0
29731249,208,-0.0435,0.0029,1.0210,-0.0610,0.1831,-0.2441,6.0000,42.0000,59.0000,0,1,492,1171,397,0
29736251,209,-0.0425,0.0029,1.0210,0.0610,0.3052,-0.2441,6.0000,42.0000,59.0000,0,1,488,1164,397,0
29741254,210,-0.0425,0.0034,1.0200,0.0610,0.3052,-0.1831,6.0000,42.0000,59.0000,0,1,495,1159,397,0
29746249,211,-0.0430,0.0044,1.0186,0.0610,0.3052,-0.1831,6.0000,39.0000,63.0000,1,1,505,1161,395,0
29751249,212,-0.0435,0.0054,1.0186,0.0000,0.3052,-0.1831,6.0000,39.0000,63.0000,0,1,468,1134,791,0
29756256,213,-0.0435,0.0049,1.0200,0.0000,0.0610,-0.1831,6.0000,39.0000,63.0000,0,1,479,1116,411,0
29761248,214,-0.0420,0.0049,1.0210,0.1221,0.1221,-0.3052,6.0000,39.0000,63.0000,0,1,462,1117,438,0
29766250,215,-0.0415,0.0054,1.0200,0.0610,0.3052,-0.3052,6.0000,39.0000,63.0000,0,1,463,1153,442,0
29771254,216,-0.0425,0.0063,1.0200,0.0000,0.2441,-0.2441,6.0000,39.0000,63.0000,0,1,463,1157,403,0
29776249,217,-0.0425,0.0059,1.0210,0.0000,0.1831,-0.1831,6.0000,39.0000,63.0000,0,1,463,1035,425,0
29781249,218,-0.0435,0.0054,1.0210,0.0610,0.3052,-0.2441,6.0000,39.0000,63.0000,0,1,462,1032,398,0
29786256,219,-0.0444,0.0049,1.0205,0.0610,0.2441,-0.2441,6.0000,39.0000,63.0000,0,1,463,1132,439,0
29791265,220,-0.0435,0.0044,1.0215,0.0610,0.0610,-0.1221,6.0000,39.0000,63.0000,0,1,462,1168,396,0
29796256,221,-0.0425,0.0039,1.0215,0.0000,0.1831,-0.1831,6.0000,39.0000,63.0000,0,1,463,1198,413,0
29801255,222,-0.0415,0.0039,1.0215,-0.0610,0.2441,-0.2441,6.0000,39.0000,63.0000,0,1,490,1131,396,0
29806255,223,-0.0410,0.0049,1.0225,-0.0610,0.2441,-0.1831,6.0000,39.0000,63.0000,0,1,485,1182,396,0
29811253,224,-0.0420,0.0054,1.0205,0.0610,0.4272,-0.2441,6.0000,39.0000,63.0000,0,1,507,1185,396,0
29816253,225,-0.0439,0.0049,1.0190,0.0610,0.3662,-0.1831,6.0000,39.0000,63.0000,0,1,481,1169,397,0
29821249,226,-0.0439,0.0044,1.0205,-0.0610,0.2441,-0.1831,6.0000,39.0000,63.0000,0,1,492,1172,397,0
29826256,227,-0.0430,0.0034,1.0215,0.0000,0.3662,-0.2441,6.0000,39.0000,63.0000,0,1,485,1172,397,0
29831249,228,-0.0425,0.0029,1.0210,0.0000,0.2441,-0.3052,6.0000,39.0000,63.0000,0,1,489,1126,397,0
29836250,229,-0.0435,0.0029,1.0215,0.0000,0.1831,-0.1831,6.0000,39.0000,63.0000,0,1,486,1117,397,0
29841254,230,-0.0435,0.0029,1.0220,0.0610,0.3052,-0.1831,6.0000,39.0000,63.0000,0,1,503,1124,395,0
29846251,231,-0.0439,0.0034,1.0200,0.0000,0.3662,-0.1831,6.0000,39.0000,63.0000,1,1,505,1163,395,0
29851256,232,-0.0444,0.0039,1.0186,-0.0610,0.1221,-0.1221,6.0000,39.0000,63.0000,0,1,480,1129,791,0
29856251,233,-0.0435,0.0044,1.0200,0.0610,0.1831,-0.2441,6.0000,39.0000,63.0000,0,1,462,1163,418,0
29861250,234,-0.0425,0.0049,1.0205,0.0610,0.3052,-0.3052,6.0000,39.0000,63.0000,0,1,463,1166,398,0
29866252,235,-0.0420,0.0039,1.0205,0.0610,0.2441,-0.2441,6.0000,39.0000,63.0000,0,1,463,1157,439,0
29871255,236,-0.0415,0.0049,1.0205,0.0610,0.1831,-0.2441,6.0000,39.0000,63.0000,0,1,463,1171,415,0
29876251,237,-0.0415,0.0054,1.0195,0.0610,0.3052,-0.2441,6.0000,39.0000,63.0000,0,1,462,1169,439,0
29881253,238,-0.0425,0.0049,1.0195,-0.0610,0.3052,-0.3662,6.0000,39.0000,63.0000,0,1,463,1137,402,0
29886254,239,-0.0435,0.0039,1.0210,0.0610,0.3052,-0.1221,6.0000,39.0000,63.0000,0,1,462,1136,439,0
29891259,240,-0.0439,0.0034,1.0215,0.0000,0.3052,-0.1831,6.0000,39.0000,63.0000,0,1,462,1183,396,0
29896248,241,-0.0439,0.0044,1.0210,-0.0610,0.2441,-0.2441,6.0000,39.0000,63.0000,0,1,463,1113,413,0
29901254,242,-0.0430,0.0059,1.0210,-0.0610,0.1221,-0.1831,6.0000,39.0000,63.0000,0,1,490,1258,396,0
29906249,243,-0.0420,0.0063,1.0205,0.0000,0.2441,-0.2441,6.0000,39.0000,63.0000,0,1,474,1178,397,0
29911253,244,-0.0420,0.0063,1.0195,0.1831,0.3052,-0.0610,6.0000,39.0000,63.0000,0,1,508,1098,396,0
29916248,245,-0.0430,0.0059,1.0200,0.0610,0.3052,-0.2441,6.0000,39.0000,63.0000,0,1,467,1168,397,0
29921254,246,-0.0420,0.0049,1.0200,0.0000,0.3052,-0.2441,6.0000,39.0000,63.0000,0,1,503,1161,397,0
29926253,247,-0.0420,0.0049,1.0205,-0.1221,0.2441,-0.1831,6.0000,39.0000,63.0000,0,1,484,1118,397,0
29931252,248,-0.0425,0.0054,1.0205,0.0000,0.1221,-0.1221,6.0000,39.0000,63.0000,0,1,470,1169,396,0
29936255,249,-0.0430,0.0044,1.0205,0.0610,0.2441,-0.2441,6.0000,39.0000,63.0000,0,1,483,1114,396,0
29941250,250,-0.0435,0.0034,1.0210,-0.0610,0.2441,-0.2441,6.0000,39.0000,63.0000,0,1,485,1170,396,0
29946256,251,-0.0435,0.0039,1.0220,0.0610,0.2441,-0.1831,4.0000,40.0000,64.0000,1,1,507,1169,395,0
29951253,252,-0.0430,0.0054,1.0229,0.1221,0.3052,-0.1831,4.0000,40.0000,64.0000,0,1,464,1127,791,0
29956249,253,-0.0430,0.0054,1.0225,0.0610,0.3662,-0.1831,4.0000,40.0000,64.0000,0,1,479,1146,397,0
29961255,254,-0.0430,0.0044,1.0210,0.0000,0.1831,-0.3052,4.0000,40.0000,64.0000,0,1,462,1150,439,0
29966254,255,-0.0430,0.0049,1.0200,0.0610,0.3052,-0.2441,4.0000,40.0000,64.0000,0,1,463,1100,417,0
29971254,256,-0.0425,0.0054,1.0195,0.0000,0.1831,-0.1831,4.0000,40.0000,64.0000,0,1,462,1145,439,0
29976250,257,-0.0430,0.0054,1.0195,0.0000,0.1831,-0.1831,4.0000,40.0000,64.0000,0,1,463,1108,425,0
29981252,258,-0.0430,0.0044,1.0210,0.0000,0.2441,-0.1831,4.0000,40.0000,64.0000,0,1,463,1005,437,0
29986255,259,-0.0425,0.0044,1.0229,-0.1221,0.4272,-0.3052,4.0000,40.0000,64.0000,0,1,463,1075,400,0
29991249,260,-0.0420,0.0049,1.0220,0.0000,0.3052,-0.3052,4.0000,40.0000,64.0000,0,1,462,1109,440,0
29996257,261,-0.0425,0.0049,1.0195,0.0610,0.1831,-0.2441,4.0000,40.0000,64.0000,0,1,463,1085,395,0
30001248,262,-0.0425,0.0054,1.0186,-0.0610,0.1831,-0.2441,4.0000,40.0000,64.0000,0,1,463,1207,413,0
30006248,263,-0.0425,0.0059,1.0190,0.1221,0.1831,-0.1831,4.0000,40.0000,64.0000,0,1,490,1159,396,0
30011256,264,-0.0430,0.0049,1.0205,0.1221,0.1831,-0.2441,4.0000,40.0000,64.0000,0,1,478,1168,397,0
30016250,265,-0.0425,0.0049,1.0205,0.0000,0.2441,-0.3052,4.0000,40.0000,64.0000,0,1,474,1141,397,0
30021254,266,-0.0420,0.0049,1.0205,0.0610,0.2441,-0.1221,4.0000,40.0000,64.0000,0,1,467,1103,396,0
30026256,267,-0.0425,0.0039,1.0210,0.1221,0.3052,-0.1221,4.0000,40.0000,64.0000,0,1,493,1149,396,0
30031257,268,-0.0435,0.0039,1.0210,0.1221,0.3052,-0.1221,4.0000,40.0000,64.0000,0,1,480,1142,397,0
30036254,269,-0.0435,0.0054,1.0210,0.1221,0.2441,-0.1221,4.0000,40.0000,64.0000,0,1,486,1142,397,0
30041254,270,-0.0425,0.0054,1.0215,0.0000,0.3052,-0.1831,4.0000,40.0000,64.0000,0,1,496,1145,396,0
30046249,271,-0.0425,0.0039,1.0215,-0.0610,0.3052,-0.2441,5.0000,41.0000,64.0000,1,1,477,1101,396,0
30051255,272,-0.0425,0.0034,1.0215,0.1831,0.2441,-0.1831,5.0000,41.0000,64.0000,0,1,498,1175,764,0
30056250,273,-0.0430,0.0049,1.0220,0.0610,0.3052,-0.1221,5.0000,41.0000,64.0000,0,1,473,1174,395,0
30061256,274,-0.0430,0.0054,1.0215,0.1221,0.3662,-0.1221,5.0000,41.0000,64.0000,0,1,480,1157,397,0
30066255,275,-0.0430,0.0049,1.0205,0.0000,0.3052,-0.1831,5.0000,41.0000,64.0000,0,1,463,1161,441,0
30071252,276,-0.0430,0.0054,1.0205,-0.0610,0.1831,-0.1831,5.0000,41.0000,64.0000,0,1,463,1118,407,0
30076256,277,-0.0420,0.0059,1.0210,0.0000,0.2441,-0.1831,5.0000,41.0000,64.0000,0,1,462,1168,439,0
30081249,278,-0.0415,0.0044,1.0210,0.0000,0.2441,-0.3662,5.0000,41.0000,64.0000,0,1,463,1046,397,0
30086248,279,-0.0410,0.0034,1.0225,-0.0610,0.3052,-0.2441,5.0000,41.0000,64.0000,0,1,463,1022,437,0
30091250,280,-0.0430,0.0034,1.0229,0.0000,0.3662,-0.2441,5.0000,41.0000,64.0000,0,1,463,1137,401,0
30096252,281,-0.0439,0.0039,1.0210,0.0000,0.3052,-0.3052,5.0000,41.0000,64.0000,0,1,463,1090,440,0
30101255,282,-0.0425,0.0044,1.0200,0.0610,0.2441,-0.3052,5.0000,41.0000,64.0000,0,1,462,1181,395,0
30106249,283,-0.0415,0.0044,1.0205,0.0000,0.2441,-0.2441,5.0000,41.0000,64.0000,0,1,463,1201,413,0
30111251,284,-0.0420,0.0049,1.0210,-0.0610,0.3662,-0.3052,5.0000,41.0000,64.0000,0,1,489,1134,396,0
30116250,285,-0.0435,0.0049,1.0210,-0.0610,0.3052,-0.2441,5.0000,41.0000,64.0000,0,1,475,1180,398,0
30121252,286,-0.0439,0.0049,1.0220,0.1221,0.3052,-0.1221,5.0000,41.0000,64.0000,0,1,500,1179,397,0
30126249,287,-0.0435,0.0049,1.0225,0.1831,0.2441,-0.2441,5.0000,41.0000,64.0000,0,1,467,1160,397,0
30131256,288,-0.0425,0.0039,1.0220,0.1221,0.2441,-0.3052,5.0000,41.0000,64.0000,0,1,503,1172,397,0
30136254,289,-0.0420,0.0034,1.0210,0.1221,0.0610,-0.2441,5.0000,41.0000,64.0000,0,1,484,1164,397,0
30141252,290,-0.0415,0.0034,1.0205,0.0610,0.2441,-0.1831,5.0000,41.0000,64.0000,0,1,471,1166,396,0
30146251,291,-0.0415,0.0034,1.0205,0.0610,0.3662,-0.2441,5.0000,41.0000,64.0000,0,1,485,1174,396,0
30151252,292,-0.0425,0.0039,1.0215,0.0000,0.3052,-0.1831,6.0000,38.0000,59.0000,1,1,485,1176,397,0
30156248,293,-0.0435,0.0044,1.0205,0.1221,0.1831,-0.1831,6.0000,38.0000,59.0000,0,1,505,1110,764,0
30161255,294,-0.0435,0.0049,1.0205,0.1221,0.2441,-0.2441,6.0000,38.0000,59.0000,0,1,463,1168,423,0
30166252,295,-0.0430,0.0049,1.0210,0.1221,0.2441,-0.1831,6.0000,38.0000,59.0000,0,1,480,1168,395,0
30171253,296,-0.0430,0.0054,1.0225,0.0610,0.2441,-0.1831,6.0000,38.0000,59.0000,0,1,462,1164,438,0
30176248,297,-0.0425,0.0054,1.0225,0.0610,0.3052,-0.1831,6.0000,38.0000,59.0000,0,1,463,1168,420,0
30181255,298,-0.0425,0.0039,1.0215,0.1831,0.2441,-0.2441,6.0000,38.0000,59.0000,0,1,463,1161,439,0
30186254,299,-0.0430,0.0024,1.0200,0.1221,0.1221,-0.2441,6.0000,38.0000,59.0000,0,1,463,1174,399,0
30191253,300,-0.0430,0.0029,1.0200,0.1221,0.3662,-0.3052,6.0000,38.0000,59.0000,0,1,463,1164,438,0
30196251,301,-0.0430,0.0044,1.0205,0.0000,0.3052,-0.1831,6.0000,38.0000,59.0000,0,1,462,1134,409,0
30201252,302,-0.0430,0.0039,1.0215,0.0000,0.2441,-0.1831,6.0000,38.0000,59.0000,0,1,463,1088,412,0
30206279,303,-0.0425,0.0034,1.0220,0.0610,0.3052,-0.2441,6.0000,38.0000,59.0000,0,1,463,1195,397,0
30211255,304,-0.0430,0.0044,1.0210,0.0000,0.4883,-0.1831,6.0000,38.0000,59.0000,0,1,462,1192,413,0
30216254,305,-0.0439,0.0054,1.0210,-0.0610,0.2441,-0.1221,6.0000,38.0000,59.0000,0,1,490,1130,397,0
30221253,306,-0.0444,0.0054,1.0215,-0.0610,0.1831,-0.1831,6.0000,38.0000,59.0000,0,1,465,1183,396,0
30226254,307,-0.0439,0.0049,1.0210,0.0000,0.2441,-0.3052,6.0000,38.0000,59.0000,0,1,508,1188,396,0
30231250,308,-0.0435,0.0049,1.0200,0.0610,0.2441,-0.2441,6.0000,38.0000,59.0000,0,1,486,1121,397,0
30236250,309,-0.0425,0.0054,1.0210,0.0000,0.3052,-0.1831,6.0000,38.0000,59.0000,0,1,499,1169,397,0
30241250,310,-0.0415,0.0049,1.0229,0.0610,0.3662,-0.3662,6.0000,38.0000,59.0000,0,1,486,1117,396,0
30246257,311,-0.0415,0.0034,1.0239,0.0000,0.3052,-0.3052,6.0000,38.0000,59.0000,0,1,474,1174,397,0
30251248,312,-0.0415,0.0024,1.0229,0.0000,0.2441,-0.1831,6.0000,40.0000,57.0000,1,1,492,1121,396,0
30256256,313,-0.0420,0.0029,1.0200,0.0000,0.2441,-0.2441,6.0000,40.0000,57.0000,0,1,484,1133,765,0
30261249,314,-0.0435,0.0049,1.0195,0.0610,0.3052,-0.1831,6.0000,40.0000,57.0000,0,1,499,1108,395,0
30266248,315,-0.0439,0.0073,1.0205,0.0610,0.1831,-0.1831,6.0000,40.0000,57.0000,0,1,476,1147,422,0
30271251,316,-0.0444,0.0068,1.0210,0.0610,0.1831,-0.1831,6.0000,40.0000,57.0000,0,1,480,1157,413,0
30276249,317,-0.0439,0.0059,1.0210,0.0000,0.1831,-0.0610,6.0000,40.0000,57.0000,0,1,463,1153,439,0
30281256,318,-0.0430,0.0049,1.0220,0.1221,0.1831,-0.2441,6.0000,40.0000,57.0000,0,1,463,1101,404,0
30286250,319,-0.0425,0.0034,1.0210,0.0610,0.2441,-0.3052,6.0000,40.0000,57.0000,0,1,463,1150,438,0
30291249,320,-0.0420,0.0024,1.0200,0.0610,0.2441,-0.2441,6.0000,40.0000,57.0000,0,1,462,1146,408,0
30296248,321,-0.0420,0.0024,1.0200,0.0610,0.1831,-0.1831,6.0000,40.0000,57.0000,0,1,462,1154,439,0
30301253,322,-0.0425,0.0039,1.0205,0.0000,0.1831,-0.3052,6.0000,40.0000,57.0000,0,1,462,1125,416,0
30306249,323,-0.0425,0.0059,1.0205,0.0000,0.2441,-0.1831,6.0000,40.0000,57.0000,0,1,463,1102,413,0
30311274,324,-0.0425,0.0059,1.0210,0.1221,0.1831,-0.3052,6.0000,40.0000,57.0000,0,1,463,1116,398,0
30316254,325,-0.0430,0.0049,1.0215,0.0610,0.2441,-0.1831,6.0000,40.0000,57.0000,0,1,463,1206,413,0
30321258,326,-0.0435,0.0049,1.0220,0.0610,0.2441,-0.2441,6.0000,40.0000,57.0000,0,1,489,1182,396,0
30326253,327,-0.0430,0.0059,1.0215,0.0000,0.1831,-0.1831,6.0000,40.0000,57.0000,0,1,465,1170,396,0
30331254,328,-0.0415,0.0059,1.0210,0.0000,0.1831,-0.2441,6.0000,40.0000,57.0000,0,1,508,1105,396,0
30336254,329,-0.0405,0.0044,1.0210,0.0610,0.1831,-0.2441,6.0000,40.0000,57.0000,0,1,487,1107,396,0
30341251,330,-0.0415,0.0034,1.0220,0.0000,0.3052,-0.2441,6.0000,40.0000,57.0000,0,1,495,1153,397,0
30346248,331,-0.0430,0.0029,1.0234,-0.0610,0.3052,-0.2441,6.0000,40.0000,57.0000,0,1,482,1108,397,0
30351254,332,-0.0435,0.0034,1.0225,0.0610,0.3662,-0.2441,8.0000,40.0000,63.0000,1,1,505,1151,397,0
30356253,333,-0.0435,0.0044,1.0210,0.1831,0.2441,-0.2441,8.0000,40.0000,63.0000,0,1,486,1216,765,0
30361254,334,-0.0435,0.0054,1.0200,0.1831,0.3662,-0.3052,8.0000,40.0000,63.0000,0,1,472,1160,396,0
30366249,335,-0.0430,0.0054,1.0200,0.1221,0.2441,-0.2441,8.0000,40.0000,63.0000,0,1,491,1156,395,0
30371250,336,-0.0430,0.0044,1.0210,-0.0610,0.2441,-0.1831,8.0000,40.0000,63.0000,0,1,468,1157,422,0
30376250,337,-0.0435,0.0039,1.0225,-0.1221,0.3662,-0.2441,8.0000,40.0000,63.0000,0,1,480,1158,409,0
30381253,338,-0.0435,0.0039,1.0225,0.0610,0.3052,-0.2441,8.0000,40.0000,63.0000,0,1,463,1158,439,0
30386252,339,-0.0430,0.0039,1.0210,0.0610,0.2441,-0.1831,8.0000,40.0000,63.0000,0,1,462,1154,400,0
30391257,340,-0.0425,0.0044,1.0205,0.0610,0.2441,-0.2441,8.0000,40.0000,63.0000,0,1,463,1159,439,0
30396251,341,-0.0430,0.0049,1.0200,0.0610,0.1831,-0.1831,8.0000,40.0000,63.0000,0,1,463,1159,410,0
30401254,342,-0.0439,0.0049,1.0200,0.0610,0.2441,-0.1221,8.0000,40.0000,63.0000,0,1,462,1157,439,0
30406251,343,-0.0439,0.0044,1.0210,0.0610,0.3052,-0.2441,8.0000,40.0000,63.0000,0,1,463,1042,424,0
30411254,344,-0.0430,0.0039,1.0225,0.0610,0.3662,-0.2441,8.0000,40.0000,63.0000,0,1,463,1096,412,0
30416262,345,-0.0425,0.0044,1.0220,0.1221,0.2441,-0.1831,8.0000,40.0000,63.0000,0,1,463,1186,405,0
30421256,346,-0.0415,0.0049,1.0210,0.1221,0.1831,-0.2441,8.0000,40.0000,63.0000,0,1,463,1247,396,0
30426264,347,-0.0420,0.0049,1.0210,0.1221,0.3052,-0.3662,8.0000,40.0000,63.0000,0,1,490,1195,396,0
30431250,348,-0.0420,0.0049,1.0215,0.0610,0.2441,-0.2441,8.0000,40.0000,63.0000,0,1,465,1139,397,0
30436249,349,-0.0420,0.0049,1.0220,0.0610,0.2441,-0.1831,8.0000,40.0000,63.0000,0,1,508,1130,396,0
30441254,350,-0.0425,0.0044,1.0220,0.0000,0.3052,-0.3052,8.0000,40.0000,63.0000,0,1,505,1159,397,0
30446254,351,-0.0420,0.0044,1.0215,0.0000,0.1831,-0.3052,8.0000,40.0000,63.0000,0,1,489,1104,396,0
30451256,352,-0.0420,0.0049,1.0210,-0.0610,0.3052,-0.2441,6.0000,39.0000,59.0000,1,1,477,1109,396,0
30456254,353,-0.0415,0.0044,1.0210,0.0610,0.1831,-0.1831,6.0000,39.0000,59.0000,0,1,473,1183,783,0
30461251,354,-0.0410,0.0044,1.0210,0.0610,0.1221,-0.1831,6.0000,39.0000,59.0000,0,1,484,1163,397,0
30466256,355,-0.0415,0.0049,1.0205,-0.0610,0.2441,-0.2441,6.0000,39.0000,59.0000,0,1,489,1156,397,0
30471248,356,-0.0430,0.0049,1.0205,0.0610,0.3052,-0.1831,6.0000,39.0000,59.0000,0,1,504,1167,395,0
30476255,357,-0.0444,0.0039,1.0210,0.0610,0.3662,-0.1831,6.0000,39.0000,59.0000,0,1,480,1156,399,0
30481253,358,-0.0454,0.0039,1.0215,0.0610,0.3052,-0.2441,6.0000,39.0000,59.0000,0,1,462,1165,417,0
30486252,359,-0.0454,0.0044,1.0220,0.0610,0.3052,-0.2441,6.0000,39.0000,59.0000,0,1,463,1160,423,0
30491254,360,-0.0439,0.0039,1.0229,0.0000,0.3052,-0.3662,6.0000,39.0000,59.0000,0,1,462,1158,419,0
30496254,361,-0.0425,0.0029,1.0220,-0.0610,0.2441,-0.3662,6.0000,39.0000,59.0000,0,1,462,1118,398,0
30501251,362,-0.0415,0.0029,1.0205,0.0610,0.2441,-0.2441,6.0000,39.0000,59.0000,0,1,463,1163,428,0
30506250,363,-0.0420,0.0044,1.0195,0.0610,0.2441,-0.1831,6.0000,39.0000,59.0000,0,1,463,1081,398,0
30511254,364,-0.0420,0.0063,1.0186,0.0610,0.1221,-0.2441,6.0000,39.0000,59.0000,0,1,462,1050,441,0
30516251,365,-0.0425,0.0059,1.0181,0.1221,0.1831,-0.3052,6.0000,39.0000,59.0000,0,1,463,1156,396,0
30521275,366,-0.0430,0.0054,1.0190,0.0610,0.1831,-0.2441,6.0000,39.0000,59.0000,0,1,462,1203,414,0
30526249,367,-0.0435,0.0059,1.0210,0.0000,0.3052,-0.2441,6.0000,39.0000,59.0000,0,1,463,1246,396,0
30531272,368,-0.0430,0.0054,1.0220,0.1221,0.3662,-0.2441,6.0000,39.0000,59.0000,0,1,490,1126,396,0
30536251,369,-0.0425,0.0034,1.0220,0.1221,0.3052,-0.1831,6.0000,39.0000,59.0000,0,1,469,1177,397,0
30541254,370,-0.0430,0.0024,1.0215,0.0610,0.1831,-0.2441,6.0000,39.0000,59.0000,0,1,465,1159,396,0
30546249,371,-0.0430,0.0034,1.0210,0.0610,0.2441,-0.2441,6.0000,39.0000,59.0000,0,1,507,1166,397,0
30551252,372,-0.0425,0.0044,1.0210,0.0000,0.2441,-0.3052,5.0000,40.0000,61.0000,1,1,478,1164,397,0
30556251,373,-0.0415,0.0039,1.0210,0.0000,0.2441,-0.3052,5.0000,40.0000,61.0000,0,1,499,1103,771,0
30561254,374,-0.0410,0.0029,1.0200,0.0000,0.3052,-0.3052,5.0000,40.0000,61.0000,0,1,485,1111,397,0
30566249,375,-0.0415,0.0029,1.0195,0.0610,0.2441,-0.2441,5.0000,40.0000,61.0000,0,1,496,1102,397,0
30571257,376,-0.0425,0.0049,1.0210,0.0000,0.2441,-0.2441,5.0000,40.0000,61.0000,0,1,496,1162,395,0
30576254,377,-0.0430,0.0059,1.0205,0.1221,0.2441,-0.1221,5.0000,40.0000,61.0000,0,1,463,1110,422,0
30581253,378,-0.0435,0.0059,1.0200,0.0000,0.3052,-0.1221,5.0000,40.0000,61.0000,0,1,480,1149,398,0
30586254,379,-0.0444,0.0049,1.0210,0.0610,0.2441,-0.1831,5.0000,40.0000,61.0000,0,1,463,1098,421,0
30591253,380,-0.0444,0.0054,1.0210,0.1831,0.1221,-0.2441,5.0000,40.0000,61.0000,0,1,463,1156,397,0
30596256,381,-0.0430,0.0063,1.0215,0.0000,0.2441,-0.2441,5.0000,40.0000,61.0000,0,1,463,1154,433,0
30601256,382,-0.0410,0.0059,1.0220,0.0000,0.2441,-0.2441,5.0000,40.0000,61.0000,0,1,463,1024,397,0
30606254,383,-0.0415,0.0044,1.0210,0.1221,0.2441,-0.2441,5.0000,40.0000,61.0000,0,1,463,1007,443,0
30611250,384,-0.0425,0.0039,1.0200,0.0000,0.3662,-0.1831,5.0000,40.0000,61.0000,0,1,463,1042,404,0
30616255,385,-0.0430,0.0039,1.0205,0.1221,0.2441,-0.1221,5.0000,40.0000,61.0000,0,1,463,1113,430,0
30621257,386,-0.0430,0.0049,1.0220,0.1221,0.1831,-0.3052,5.0000,40.0000,61.0000,0,1,462,1180,395,0
30626249,387,-0.0425,0.0059,1.0220,0.0610,0.2441,-0.2441,5.0000,40.0000,61.0000,0,1,463,1209,413,0
30631252,388,-0.0415,0.0059,1.0210,0.0000,0.2441,-0.1831,5.0000,40.0000,61.0000,0,1,463,1162,397,0
30636256,389,-0.0420,0.0044,1.0205,0.1221,0.2441,-0.2441,5.0000,40.0000,61.0000,0,1,465,1083,396,0
30641251,390,-0.0425,0.0039,1.0205,0.1831,0.2441,-0.1831,5.0000,40.0000,61.0000,0,1,480,1174,397,0
30646256,391,-0.0425,0.0044,1.0210,0.0000,0.1831,-0.3052,5.0000,40.0000,61.0000,0,1,471,1165,396,0
30651250,392,-0.0420,0.0049,1.0220,-0.0610,0.1831,-0.3052,5.0000,39.0000,62.0000,1,1,501,1106,396,0
30656254,393,-0.0420,0.0049,1.0215,0.1221,0.1831,-0.2441,5.0000,39.0000,62.0000,0,1,483,1130,802,0
30661250,394,-0.0420,0.0044,1.0200,0.1221,0.3052,-0.2441,5.0000,39.0000,62.0000,0,1,490,1164,397,0
30666252,395,-0.0425,0.0044,1.0200,0.0610,0.1831,-0.2441,5.0000,39.0000,62.0000,0,1,485,1159,396,0
30671249,396,-0.0435,0.0044,1.0210,0.0610,0.2441,-0.1831,5.0000,39.0000,62.0000,0,1,492,1164,397,0
30676251,397,-0.0444,0.0054,1.0200,0.0610,0.3052,-0.1831,5.0000,39.0000,62.0000,0,1,492,1162,395,0
30681250,398,-0.0444,0.0054,1.0190,0.1221,0.3052,-0.2441,5.0000,39.0000,62.0000,0,1,463,1159,422,0
30686249,399,-0.0439,0.0049,1.0205,0.1831,0.2441,-0.1831,5.0000,39.0000,62.0000,0,1,480,1160,396,0
30691253,400,-0.0435,0.0054,1.0210,0.1221,0.3662,-0.2441,5.0000,39.0000,62.0000,0,1,463,1170,437,0
30696255,401,-0.0430,0.0054,1.0210,0.0610,0.3052,-0.2441,5.0000,39.0000,62.0000,0,1,463,1159,398,0
30701256,402,-0.0425,0.0049,1.0215,0.0000,0.3052,-0.3662,5.0000,39.0000,62.0000,0,1,463,1156,439,0
30706251,403,-0.0420,0.0039,1.0210,0.0610,0.1831,-0.2441,5.0000,39.0000,62.0000,0,1,463,1006,402,0
30711251,404,-0.0420,0.0034,1.0200,0.1831,0.2441,-0.1221,5.0000,39.0000,62.0000,0,1,462,1163,439,0
30716255,405,-0.0420,0.0044,1.0205,0.0000,0.3052,-0.2441,5.0000,39.0000,62.0000,0,1,463,1079,403,0
30721251,406,-0.0415,0.0049,1.0210,0.1221,0.3052,-0.1831,5.0000,39.0000,62.0000,0,1,463,1113,438,0
30726257,407,-0.0425,0.0049,1.0210,0.0610,0.1831,-0.1831,5.0000,39.0000,62.0000,0,1,463,1184,407,0
30731254,408,-0.0435,0.0049,1.0215,0.0610,0.3052,-0.2441,5.0000,39.0000,62.0000,0,1,463,1249,396,0
30736261,409,-0.0439,0.0049,1.0225,0.0000,0.4272,-0.3052,5.0000,39.0000,62.0000,0,1,489,1194,397,0
30741252,410,-0.0435,0.0044,1.0225,0.0000,0.1831,-0.3662,5.0000,39.0000,62.0000,0,1,466,1134,397,0
30746248,411,-0.0430,0.0039,1.0234,0.0610,0.1221,-0.2441,5.0000,39.0000,62.0000,0,1,508,1120,396,0
30751250,412,-0.0430,0.0039,1.0234,-0.0610,0.2441,-0.2441,7.0000,37.0000,67.0000,1,1,505,1166,397,0
30756251,413,-0.0425,0.0039,1.0215,0.0000,0.3052,-0.2441,7.0000,37.0000,67.0000,0,1,485,1067,803,0
30761252,414,-0.0420,0.0044,1.0195,0.0000,0.1831,-0.1221,7.0000,37.0000,67.0000,0,1,494,1119,396,0
30766253,415,-0.0415,0.0044,1.0195,-0.0610,0.3052,-0.1831,7.0000,37.0000,67.0000,0,1,483,1119,397,0
30771255,416,-0.0430,0.0044,1.0195,0.1221,0.3052,-0.2441,7.0000,37.0000,67.0000,0,1,495,1166,397,0
30776250,417,-0.0439,0.0059,1.0205,0.0610,0.3052,-0.1831,7.0000,37.0000,67.0000,0,1,495,1161,395,0
30781256,418,-0.0439,0.0049,1.0220,0.0610,0.0610,-0.2441,7.0000,37.0000,67.0000,0,1,478,1161,395,0
30786257,419,-0.0439,0.0034,1.0229,0.0610,0.1221,-0.2441,7.0000,37.0000,67.0000,0,1,479,1163,423,0
30791252,420,-0.0444,0.0034,1.0225,0.0000,0.2441,-0.3052,7.0000,37.0000,67.0000,0,1,463,1168,420,0
30796254,421,-0.0454,0.0044,1.0200,0.0610,0.2441,-0.0610,7.0000,37.0000,67.0000,0,1,462,1122,398,0
30801251,422,-0.0454,0.0044,1.0186,0.1221,0.3052,-0.2441,7.0000,37.0000,67.0000,0,1,463,1164,437,0
30806256,423,-0.0439,0.0039,1.0195,0.0610,0.4272,-0.2441,7.0000,37.0000,67.0000,0,1,462,1161,400,0
30811255,424,-0.0420,0.0044,1.0215,0.0000,0.1221,-0.1831,7.0000,37.0000,67.0000,0,1,463,1172,439,0
30816257,425,-0.0425,0.0044,1.0215,-0.0610,0.2441,-0.2441,7.0000,37.0000,67.0000,0,1,463,1030,412,0
30821256,426,-0.0435,0.0039,1.0205,0.0610,0.3052,-0.2441,7.0000,37.0000,67.0000,0,1,463,1138,436,0
30826256,427,-0.0435,0.0039,1.0205,0.0610,0.3052,-0.2441,7.0000,37.0000,67.0000,0,1,462,1189,403,0
30831252,428,-0.0430,0.0044,1.0200,0.1221,0.2441,-0.2441,7.0000,37.0000,67.0000,0,1,462,1256,397,0
30836248,429,-0.0425,0.0049,1.0200,0.0000,0.3052,-0.2441,7.0000,37.0000,67.0000,0,1,490,1201,396,0
30841248,430,-0.0425,0.0044,1.0210,-0.0610,0.3052,-0.2441,7.0000,37.0000,67.0000,0,1,471,1133,396,0
30846252,431,-0.0425,0.0034,1.0210,0.0000,0.2441,-0.0610,7.0000,37.0000,67.0000,0,1,466,1160,397,0
30851248,432,-0.0430,0.0024,1.0215,0.0610,0.2441,-0.1221,7.0000,37.0000,67.0000,0,1,507,1121,397,0
30856251,433,-0.0415,0.0029,1.0215,0.0610,0.3662,-0.3052,9.0000,37.0000,64.0000,1,1,487,1165,397,0
30861248,434,-0.0420,0.0029,1.0210,0.0000,0.3662,-0.2441,9.0000,37.0000,64.0000,0,1,496,1077,805,0
30866255,435,-0.0435,0.0034,1.0200,0.0000,0.3052,-0.3052,9.0000,37.0000,64.0000,0,1,488,1122,396,0
30871255,436,-0.0435,0.0034,1.0200,0.0610,0.2441,-0.2441,9.0000,37.0000,64.0000,0,1,492,1112,396,0
30876249,437,-0.0430,0.0034,1.0205,0.0000,0.2441,-0.3052,9.0000,37.0000,64.0000,0,1,494,1168,397,0
30881252,438,-0.0430,0.0044,1.0220,0.0000,0.2441,-0.1831,9.0000,37.0000,64.0000,0,1,480,1118,395,0
30886249,439,-0.0425,0.0039,1.0229,0.1221,0.1221,-0.1831,9.0000,37.0000,64.0000,0,1,480,1120,397,0
30891255,440,-0.0430,0.0034,1.0225,0.0610,0.3052,-0.1831,9.0000,37.0000,64.0000,0,1,463,1163,426,0
30896249,441,-0.0425,0.0039,1.0215,0.0610,0.3052,-0.2441,9.0000,37.0000,64.0000,0,1,463,1161,398,0
30901251,442,-0.0415,0.0044,1.0195,0.0610,0.2441,-0.2441,9.0000,37.0000,64.0000,0,1,462,1161,434,0
30906252,443,-0.0415,0.0049,1.0200,-0.0610,0.3052,-0.2441,9.0000,37.0000,64.0000,0,1,463,1169,396,0
30911248,444,-0.0425,0.0044,1.0220,0.0000,0.1831,-0.2441,9.0000,37.0000,64.0000,0,1,463,1162,437,0
30916249,445,-0.0430,0.0044,1.0225,0.1221,0.3662,-0.2441,9.0000,37.0000,64.0000,0,1,462,1034,397,0
30921249,446,-0.0439,0.0054,1.0220,0.0610,0.2441,-0.1831,9.0000,37.0000,64.0000,0,1,463,1077,419,0
30926256,447,-0.0444,0.0059,1.0215,0.0000,0.2441,-0.3662,9.0000,37.0000,64.0000,0,1,463,1166,396,0
30931283,448,-0.0430,0.0049,1.0205,0.0610,0.1831,-0.3052,9.0000,37.0000,64.0000,0,1,463,1131,413,0
30936251,449,-0.0415,0.0039,1.0215,0.0000,0.1221,-0.0610,9.0000,37.0000,64.0000,0,1,463,1248,396,0
30941251,450,-0.0415,0.0039,1.0234,0.1221,0.2441,-0.2441,9.0000,37.0000,64.0000,0,1,464,1090,397,0
30946254,451,-0.0425,0.0049,1.0239,0.0000,0.2441,-0.2441,9.0000,37.0000,64.0000,0,1,499,1217,396,0
30951251,452,-0.0435,0.0054,1.0220,0.0000,0.3052,-0.1831,9.0000,37.0000,64.0000,0,1,465,1125,397,0
30956255,453,-0.0439,0.0059,1.0210,0.1831,0.1831,-0.2441,7.0000,40.0000,62.0000,1,1,500,1116,396,0
30961250,454,-0.0430,0.0054,1.0215,0.1221,0.2441,-0.1221,7.0000,40.0000,62.0000,0,1,473,1127,807,0
30966257,455,-0.0425,0.0039,1.0229,0.0000,0.2441,-0.2441,7.0000,40.0000,62.0000,0,1,491,1147,396,0
30971252,456,-0.0430,0.0039,1.0239,0.0610,0.3662,-0.2441,7.0000,40.0000,62.0000,0,1,493,1114,397,0
30976257,457,-0.0430,0.0039,1.0225,0.1221,0.3052,-0.2441,7.0000,40.0000,62.0000,0,1,488,1158,396,0
30981248,458,-0.0435,0.0039,1.0205,0.1221,0.3662,-0.3052,7.0000,40.0000,62.0000,0,1,504,1149,395,0
30986257,459,-0.0435,0.0049,1.0195,0.1221,0.2441,-0.3052,7.0000,40.0000,62.0000,0,1,467,1148,422,0
30991251,460,-0.0435,0.0059,1.0195,0.0610,0.1831,-0.2441,7.0000,40.0000,62.0000,0,1,480,1148,423,0
30996257,461,-0.0430,0.0063,1.0205,-0.0610,0.3052,-0.2441,7.0000,40.0000,62.0000,0,1,463,1152,437,0
31001256,462,-0.0420,0.0059,1.0215,0.0000,0.3052,-0.2441,7.0000,40.0000,62.0000,0,1,463,1150,395,0
31006249,463,-0.0415,0.0054,1.0215,0.1221,0.1221,-0.3052,7.0000,40.0000,62.0000,0,1,463,1101,438,0
31011253,464,-0.0420,0.0044,1.0210,0.1221,0.1831,-0.2441,7.0000,40.0000,62.0000,0,1,463,1142,417,0
31016257,465,-0.0435,0.0044,1.0205,0.0610,0.3052,-0.1221,7.0000,40.0000,62.0000,0,1,463,1148,439,0
31021254,466,-0.0439,0.0044,1.0200,0.0610,0.3662,-0.1831,7.0000,40.0000,62.0000,0,1,463,1059,407,0
31026255,467,-0.0435,0.0049,1.0195,0.0610,0.1831,-0.1221,7.0000,40.0000,62.0000,0,1,463,1122,396,0
31031266,468,-0.0435,0.0049,1.0200,0.0000,0.1831,-0.1831,7.0000,40.0000,62.0000,0,1,463,1204,410,0
31036250,469,-0.0430,0.0049,1.0200,0.0000,0.2441,-0.2441,7.0000,40.0000,62.0000,0,1,462,1142,396,0
31041272,470,-0.0430,0.0049,1.0205,0.1221,0.2441,-0.2441,7.0000,40.0000,62.0000,0,1,490,1124,396,0
31046249,471,-0.0435,0.0049,1.0215,0.0610,0.2441,-0.3052,7.0000,40.0000,62.0000,0,1,465,1141,396,0
31051252,472,-0.0435,0.0054,1.0215,-0.0610,0.3662,-0.2441,7.0000,40.0000,62.0000,0,1,467,1149,396,0
31056248,473,-0.0430,0.0054,1.0210,0.0610,0.3052,-0.2441,6.0000,39.0000,63.0000,1,1,501,1154,397,0
31061253,474,-0.0425,0.0049,1.0205,0.1221,0.1221,-0.1831,6.0000,39.0000,63.0000,0,1,481,1056,803,0
31066251,475,-0.0415,0.0049,1.0205,0.1221,0.1831,-0.2441,6.0000,39.0000,63.0000,0,1,485,1162,397,0
31071248,476,-0.0420,0.0049,1.0200,0.0610,0.3052,-0.2441,6.0000,39.0000,63.0000,0,1,496,1170,397,0
31076256,477,-0.0439,0.0044,1.0186,0.0610,0.1831,-0.2441,6.0000,39.0000,63.0000,0,1,485,1163,397,0
31081256,478,-0.0439,0.0039,1.0181,0.1221,0.2441,-0.3052,6.0000,39.0000,63.0000,0,1,480,1170,397,0
31086249,479,-0.0435,0.0044,1.0181,0.0610,0.3662,-0.2441,6.0000,39.0000,63.0000,0,1,500,1163,395,0
31091257,480,-0.0430,0.0054,1.0186,0.0000,0.3052,-0.2441,6.0000,39.0000,63.0000,0,1,476,1165,395,0
31096248,481,-0.0425,0.0059,1.0205,0.0000,0.1831,-0.3052,6.0000,39.0000,63.0000,0,1,480,1116,423,0
31101249,482,-0.0420,0.0059,1.0229,0.0610,0.1831,-0.2441,6.0000,39.0000,63.0000,0,1,463,1116,441,0
31106255,483,-0.0420,0.0054,1.0249,0.0000,0.3052,-0.3662,6.0000,39.0000,63.0000,0,1,463,1167,405,0
31111249,484,-0.0415,0.0044,1.0249,0.0610,0.1221,-0.2441,6.0000,39.0000,63.0000,0,1,462,1120,439,0
31116251,485,-0.0420,0.0049,1.0220,0.1221,0.1831,-0.1831,6.0000,39.0000,63.0000,0,1,463,1168,408,0
31121251,486,-0.0420,0.0039,1.0195,0.0000,0.2441,-0.2441,6.0000,39.0000,63.0000,0,1,463,1165,428,0
31126248,487,-0.0410,0.0024,1.0190,-0.0610,0.2441,-0.1831,6.0000,39.0000,63.0000,0,1,463,1089,398,0
31131255,488,-0.0410,0.0024,1.0195,0.0000,0.2441,-0.1221,6.0000,39.0000,63.0000,0,1,463,1087,436,0
31136252,489,-0.0415,0.0034,1.0200,-0.0610,0.2441,-0.1221,6.0000,39.0000,63.0000,0,1,463,1186,396,0
31141253,490,-0.0425,0.0034,1.0205,0.0000,0.3052,-0.1831,6.0000,39.0000,63.0000,0,1,463,1207,396,0
31146253,491,-0.0430,0.0034,1.0205,0.0000,0.3052,-0.1831,6.0000,39.0000,63.0000,0,1,463,1150,396,0
31151255,492,-0.0430,0.0039,1.0205,0.1831,0.3662,-0.2441,6.0000,39.0000,63.0000,0,1,463,1093,396,0
31156253,493,-0.0430,0.0044,1.0215,-0.0610,0.2441,-0.3052,6.0000,39.0000,63.0000,1,1,502,1218,397,0
31161254,494,-0.0435,0.0044,1.0220,0.0610,0.2441,-0.3052,6.0000,39.0000,63.0000,0,1,492,1162,797,0
31166256,495,-0.0430,0.0049,1.0220,0.0610,0.3662,-0.4272,6.0000,39.0000,63.0000,0,1,490,1163,396,0
31171248,496,-0.0425,0.0059,1.0215,0.1221,0.2441,-0.2441,6.0000,39.0000,63.0000,0,1,476,1166,396,0
31176252,497,-0.0420,0.0059,1.0220,0.1831,0.2441,-0.1221,6.0000,39.0000,63.0000,0,1,489,1166,397,0
31181250,498,-0.0420,0.0044,1.0210,0.2441,0.2441,-0.2441,6.0000,39.0000,63.0000,0,1,491,1165,397,0
31186251,499,-0.0425,0.0039,1.0195,0.0000,0.1831,-0.3052,6.0000,39.0000,63.0000,0,1,480,1171,397,0
31191253,500,-0.0435,0.0039,1.0210,0.0610,0.1831,-0.1221,6.0000,39.0000,63.0000,0,1,474,1121,397,0
31196250,501,-0.0435,0.0039,1.0229,0.1221,0.2441,-0.1831,6.0000,39.0000,63.0000,0,1,495,1163,395,0
31201256,502,-0.0430,0.0044,1.0239,0.0610,0.1831,-0.1831,6.0000,39.0000,63.0000,0,1,480,1170,422,0
31206256,503,-0.0420,0.0049,1.0225,0.0610,0.3052,-0.1831,6.0000,39.0000,63.0000,0,1,462,1169,397,0
31211248,504,-0.0415,0.0054,1.0200,0.1221,0.3662,-0.3662,6.0000,39.0000,63.0000,0,1,463,1162,425,0
31216252,505,-0.0415,0.0054,1.0186,0.1221,0.3662,-0.2441,6.0000,39.0000,63.0000,0,1,462,1167,430,0
31221249,506,-0.0430,0.0049,1.0186,0.0610,0.1831,-0.1831,6.0000,39.0000,63.0000,0,1,463,1167,423,0
31226254,507,-0.0439,0.0044,1.0195,0.0610,0.0610,-0.1831,6.0000,39.0000,63.0000,0,1,462,1165,415,0
31231253,508,-0.0430,0.0044,1.0210,0.1831,0.3052,-0.3052,6.0000,39.0000,63.0000,0,1,463,1168,425,0
31236248,509,-0.0415,0.0039,1.0205,0.3052,0.3662,-0.2441,6.0000,39.0000,63.0000,0,1,462,1071,419,0
31241257,510,-0.0415,0.0039,1.0195,0.0610,0.2441,-0.2441,6.0000,39.0000,63.0000,0,1,463,1169,395,0
31246278,511,-0.0415,0.0049,1.0190,0.0000,0.1831,-0.3052,6.0000,39.0000,63.0000,0,1,463,1201,413,0
31251248,512,-0.0425,0.0054,1.0200,0.0000,0.1831,-0.3662,6.0000,39.0000,63.0000,0,1,463,1128,396,0
31256250,513,-0.0435,0.0054,1.0210,0.1221,0.2441,-0.1831,5.0000,38.0000,62.0000,1,1,464,1093,396,0
31261253,514,-0.0430,0.0049,1.0215,0.1221,0.2441,-0.2441,5.0000,38.0000,62.0000,0,1,465,1167,775,0
31266254,515,-0.0425,0.0049,1.0220,0.0610,0.3662,-0.2441,5.0000,38.0000,62.0000,0,1,491,1186,396,0
31271255,516,-0.0425,0.0063,1.0234,0.1221,0.3052,-0.1831,5.0000,38.0000,62.0000,0,1,489,1172,398,0
31276248,517,-0.0435,0.0068,1.0229,0.1221,0.2441,-0.2441,5.0000,38.0000,62.0000,0,1,473,1170,396,0
31281253,518,-0.0449,0.0063,1.0195,0.1221,0.4272,-0.3052,5.0000,38.0000,62.0000,0,1,489,1176,397,0
31286248,519,-0.0449,0.0049,1.0181,0.0000,0.2441,-0.2441,5.0000,38.0000,62.0000,0,1,473,1172,397,0
31291253,520,-0.0425,0.0044,1.0181,0.0610,0.1831,-0.1831,5.0000,38.0000,62.0000,0,1,481,1126,396,0
31296256,521,-0.0405,0.0049,1.0200,-0.0610,0.3052,-0.2441,5.0000,38.0000,62.0000,0,1,484,1168,397,0
31301250,522,-0.0415,0.0059,1.0215,0.0000,0.3052,-0.1831,5.0000,38.0000,62.0000,0,1,507,1167,395,0
31306254,523,-0.0425,0.0059,1.0210,0.0000,0.3662,-0.3052,5.0000,38.0000,62.0000,0,1,480,1120,423,0
31311250,524,-0.0430,0.0068,1.0200,0.0000,0.3052,-0.2441,5.0000,38.0000,62.0000,0,1,462,1116,436,0
31316250,525,-0.0430,0.0063,1.0205,0.0610,0.2441,-0.1831,5.0000,38.0000,62.0000,0,1,462,1121,397,0
31321251,526,-0.0425,0.0049,1.0215,0.1221,0.1221,-0.2441,5.0000,38.0000,62.0000,0,1,462,1174,439,0
31326255,527,-0.0415,0.0039,1.0220,-0.0610,0.2441,-0.1221,5.0000,38.0000,62.0000,0,1,463,1164,396,0
31331250,528,-0.0420,0.0039,1.0229,-0.0610,0.1831,-0.1221,5.0000,38.0000,62.0000,0,1,463,1170,428,0
31336257,529,-0.0430,0.0044,1.0225,0.1221,0.2441,-0.1831,5.0000,38.0000,62.0000,0,1,462,1066,400,0
31341249,530,-0.0425,0.0049,1.0200,0.0000,0.2441,-0.2441,5.0000,38.0000,62.0000,0,1,463,1140,436,0
31346256,531,-0.0420,0.0034,1.0190,0.0610,0.1221,-0.3052,5.0000,38.0000,62.0000,0,1,463,1195,405,0
31351251,532,-0.0415,0.0034,1.0200,0.1221,0.1831,-0.1831,5.0000,38.0000,62.0000,0,1,463,1248,396,0
31356257,533,-0.0410,0.0039,1.0205,0.1831,0.2441,-0.1221,5.0000,39.0000,64.0000,1,1,489,1183,397,0
31361256,534,-0.0415,0.0039,1.0205,0.0610,0.1831,-0.2441,5.0000,39.0000,64.0000,0,1,490,1164,784,0
31366248,535,-0.0420,0.0044,1.0210,0.0000,0.1831,-0.2441,5.0000,39.0000,64.0000,0,1,491,1157,397,0
31371255,536,-0.0425,0.0054,1.0210,0.0000,0.3052,-0.1831,5.0000,39.0000,64.0000,0,1,473,1118,396,0
31376250,537,-0.0425,0.0054,1.0205,0.0610,0.2441,-0.2441,5.0000,39.0000,64.0000,0,1,495,1112,397,0
31381251,538,-0.0425,0.0044,1.0205,0.0610,0.1831,-0.2441,5.0000,39.0000,64.0000,0,1,487,1165,397,0
31386251,539,-0.0420,0.0034,1.0200,0.0000,0.1831,-0.1221,5.0000,39.0000,64.0000,0,1,475,1164,397,0
31391250,540,-0.0415,0.0029,1.0200,-0.0610,0.2441,-0.1831,5.0000,39.0000,64.0000,0,1,485,1117,397,0
31396250,541,-0.0425,0.0029,1.0205,0.0000,0.2441,-0.2441,5.0000,39.0000,64.0000,0,1,483,1167,397,0
31401252,542,-0.0420,0.0039,1.0205,0.0610,0.2441,-0.1831,5.0000,39.0000,64.0000,0,1,505,1121,395,0
31406250,543,-0.0415,0.0044,1.0195,0.2441,0.1221,-0.2441,5.0000,39.0000,64.0000,0,1,475,1166,422,0
31411257,544,-0.0420,0.0049,1.0195,0.1831,0.1831,-0.2441,5.0000,39.0000,64.0000,0,1,480,1166,397,0
31416254,545,-0.0420,0.0049,1.0205,0.1221,0.1831,-0.1831,5.0000,39.0000,64.0000,0,1,463,1169,440,0
31421256,546,-0.0425,0.0059,1.0220,-0.1221,0.2441,-0.3052,5.0000,39.0000,64.0000,0,1,463,1162,405,0
31426249,547,-0.0435,0.0059,1.0220,-0.1221,0.3052,-0.3052,5.0000,39.0000,64.0000,0,1,462,1153,423,0
31431256,548,-0.0439,0.0044,1.0215,0.0000,0.2441,-0.2441,5.0000,39.0000,64.0000,0,1,463,1149,405,0
31436249,549,-0.0435,0.0039,1.0205,0.1221,0.3662,-0.2441,5.0000,39.0000,64.0000,0,1,462,1015,427,0
31441249,550,-0.0425,0.0039,1.0195,0.1221,0.1221,-0.1831,5.0000,39.0000,64.0000,0,1,462,1078,400,0
31446256,551,-0.0425,0.0044,1.0195,0.0610,0.2441,-0.1221,5.0000,39.0000,64.0000,0,1,463,1133,440,0
31451255,552,-0.0430,0.0044,1.0200,0.0000,0.3052,-0.3052,5.0000,39.0000,64.0000,0,1,463,1187,395,0
31456252,553,-0.0420,0.0044,1.0200,0.0000,0.3052,-0.2441,5.0000,39.0000,63.0000,1,1,462,1118,396,0
31461252,554,-0.0410,0.0034,1.0200,0.0610,0.3052,-0.1831,5.0000,39.0000,63.0000,0,1,489,1119,796,0
31466255,555,-0.0400,0.0020,1.0205,0.0000,0.3052,-0.1831,5.0000,39.0000,63.0000,0,1,490,1197,397,0
31471256,556,-0.0410,0.0024,1.0200,0.0000,0.3662,-0.2441,5.0000,39.0000,63.0000,0,1,483,1120,397,0
31476256,557,-0.0430,0.0039,1.0195,0.0610,0.2441,-0.1831,5.0000,39.0000,63.0000,0,1,493,1130,396,0
31481248,558,-0.0435,0.0049,1.0210,0.1221,0.1831,-0.2441,5.0000,39.0000,63.0000,0,1,496,1175,396,0
31486252,559,-0.0430,0.0054,1.0210,0.1831,0.1831,-0.2441,5.0000,39.0000,63.0000,0,1,487,1167,397,0
31491253,560,-0.0430,0.0049,1.0205,0.1831,0.3052,-0.2441,5.0000,39.0000,63.0000,0,1,490,1171,396,0
31496250,561,-0.0430,0.0039,1.0210,0.1831,0.3052,-0.1831,5.0000,39.0000,63.0000,0,1,507,1169,397,0
31501255,562,-0.0430,0.0034,1.0210,0.0000,0.3662,-0.1831,5.0000,39.0000,63.0000,0,1,476,1168,397,0
31506254,563,-0.0435,0.0034,1.0200,-0.0610,0.3052,-0.3052,5.0000,39.0000,63.0000,0,1,476,1125,397,0
31511251,564,-0.0444,0.0044,1.0195,0.0000,0.2441,-0.2441,5.0000,39.0000,63.0000,0,1,497,1161,395,0
31516256,565,-0.0439,0.0049,1.0195,0.0000,0.2441,-0.2441,5.0000,39.0000,63.0000,0,1,479,1130,423,0
31521249,566,-0.0430,0.0049,1.0210,0.0000,0.3052,-0.2441,5.0000,39.0000,63.0000,0,1,463,1130,402,0
31526254,567,-0.0439,0.0049,1.0229,0.0000,0.2441,-0.2441,5.0000,39.0000,63.0000,0,1,463,1117,424,0
31531251,568,-0.0444,0.0049,1.0225,0.0000,0.2441,-0.3052,5.0000,39.0000,63.0000,0,1,463,1130,413,0
31536249,569,-0.0444,0.0054,1.0210,0.0610,0.2441,-0.2441,5.0000,39.0000,63.0000,0,1,463,1121,423,0
31541250,570,-0.0439,0.0039,1.0210,0.1221,0.1221,-0.3052,5.0000,39.0000,63.0000,0,1,463,1170,415,0
31546251,571,-0.0420,0.0029,1.0210,0.0000,0.2441,-0.3052,5.0000,39.0000,63.0000,0,1,462,1160,425,0
31551257,572,-0.0420,0.0034,1.0205,0.0610,0.3052,-0.3052,5.0000,39.0000,63.0000,0,1,463,1099,415,0
31556249,573,-0.0430,0.0039,1.0200,0.0610,0.2441,-0.2441,5.0000,40.0000,63.0000,1,1,463,1133,424,0
31561257,574,-0.0430,0.0044,1.0205,0.1221,0.3052,-0.1221,5.0000,40.0000,63.0000,0,1,462,1160,780,0
31566282,575,-0.0425,0.0044,1.0195,0.1221,0.3052,-0.1831,5.0000,40.0000,63.0000,0,1,463,1175,396,0
31571254,576,-0.0420,0.0044,1.0186,0.0000,0.3052,-0.2441,5.0000,40.0000,63.0000,0,1,462,1185,397,0
31576253,577,-0.0415,0.0054,1.0205,0.0610,0.3052,-0.2441,5.0000,40.0000,63.0000,0,1,464,1110,396,0
31581254,578,-0.0405,0.0054,1.0234,0.0610,0.3052,-0.1831,5.0000,40.0000,63.0000,0,1,495,1144,397,0
31586254,579,-0.0415,0.0054,1.0229,0.0610,0.2441,-0.3052,5.0000,40.0000,63.0000,0,1,464,1156,396,0
31591251,580,-0.0425,0.0054,1.0215,0.0610,0.4272,-0.3052,5.0000,40.0000,63.0000,0,1,507,1159,397,0
31596255,581,-0.0430,0.0044,1.0215,0.0000,0.2441,-0.2441,5.0000,40.0000,63.0000,0,1,491,1154,396,0
31601248,582,-0.0430,0.0039,1.0195,0.0610,0.3052,-0.2441,5.0000,40.0000,63.0000,0,1,490,1115,397,0
31606251,583,-0.0425,0.0044,1.0181,0.0000,0.2441,-0.1831,5.0000,40.0000,63.0000,0,1,486,1158,396,0
31611251,584,-0.0415,0.0044,1.0190,0.0000,0.2441,-0.0610,5.0000,40.0000,63.0000,0,1,492,1112,397,0
31616256,585,-0.0405,0.0034,1.0200,0.0610,0.2441,-0.1831,5.0000,40.0000,63.0000,0,1,493,1115,397,0
31621248,586,-0.0405,0.0039,1.0205,0.0610,0.2441,-0.2441,5.0000,40.0000,63.0000,0,1,500,1162,395,0
31626256,587,-0.0410,0.0054,1.0215,0.1221,0.1831,-0.2441,5.0000,40.0000,63.0000,0,1,480,1161,423,0
31631252,588,-0.0420,0.0034,1.0225,0.0000,0.3052,-0.2441,5.0000,40.0000,63.0000,0,1,463,1156,397,0
31636250,589,-0.0420,0.0029,1.0225,0.1221,0.3052,-0.2441,5.0000,40.0000,63.0000,0,1,463,1111,425,0
31641249,590,-0.0420,0.0049,1.0225,0.0610,0.1831,-0.2441,5.0000,40.0000,63.0000,0,1,462,1151,412,0
31646256,591,-0.0415,0.0044,1.0220,0.0000,0.2441,-0.3662,5.0000,40.0000,63.0000,0,1,463,1158,423,0
31651256,592,-0.0410,0.0039,1.0200,0.1221,0.1831,-0.1831,5.0000,40.0000,63.0000,0,1,463,1115,412,0
31656252,593,-0.0410,0.0039,1.0186,0.1221,0.2441,-0.1831,5.0000,40.0000,63.0000,0,1,463,1159,421,0
31661250,594,-0.0420,0.0034,1.0190,0.0610,0.2441,-0.1831,5.0000,43.0000,61.0000,1,1,463,1055,411,0
31666250,595,-0.0420,0.0029,1.0200,0.0610,0.2441,-0.2441,5.0000,43.0000,61.0000,0,1,463,1177,793,0
31671249,596,-0.0415,0.0029,1.0210,0.0000,0.1831,-0.1831,5.0000,43.0000,61.0000,0,1,463,1203,408,0
31676251,597,-0.0430,0.0044,1.0220,-0.0610,0.2441,-0.1221,5.0000,43.0000,61.0000,0,1,462,1159,397,0
31681262,598,-0.0449,0.0049,1.0234,0.0000,0.3052,-0.1831,5.0000,43.0000,61.0000,0,1,489,1179,397,0
31686256,599,-0.0444,0.0054,1.0234,0.1221,0.2441,-0.2441,5.0000,43.0000,61.0000,0,1,466,1102,397,0
31691255,600,-0.0430,0.0063,1.0220,0.1221,0.3052,-0.3052,5.0000,43.0000,61.0000,0,1,507,1223,397,0
31696250,601,-0.0415,0.0073,1.0205,0.1221,0.3662,-0.2441,5.0000,43.0000,61.0000,0,1,471,1165,397,0
31701251,602,-0.0415,0.0063,1.0200,0.0610,0.2441,-0.1831,5.0000,43.0000,61.0000,0,1,490,1180,397,0
31706256,603,-0.0420,0.0044,1.0195,-0.0610,0.1831,-0.1221,5.0000,43.0000,61.0000,0,1,477,1179,396,0
31711252,604,-0.0425,0.0039,1.0195,0.0000,0.3052,-0.1221,5.0000,43.0000,61.0000,0,1,483,1173,396,0
31716252,605,-0.0425,0.0039,1.0186,0.1221,0.3662,-0.1831,5.0000,43.0000,61.0000,0,1,498,1124,397,0
31721251,606,-0.0430,0.0044,1.0190,0.1221,0.3662,-0.1831,5.0000,43.0000,61.0000,0,1,483,1175,396,0
31726249,607,-0.0439,0.0049,1.0205,0.0610,0.2441,-0.1831,5.0000,43.0000,61.0000,0,1,496,1173,395,0
31731254,608,-0.0444,0.0044,1.0205,0.0610,0.3052,-0.2441,5.0000,43.0000,61.0000,0,1,479,1177,395,0
31736255,609,-0.0444,0.0054,1.0205,0.1221,0.1831,-0.1221,5.0000,43.0000,61.0000,0,1,463,1172,413,0
31741256,610,-0.0430,0.0054,1.0200,0.1831,0.3052,-0.1831,5.0000,43.0000,61.0000,0,1,463,1170,424,0
31746257,611,-0.0420,0.0049,1.0200,0.1221,0.2441,-0.1831,5.0000,43.0000,61.0000,0,1,462,1170,415,0
31751248,612,-0.0420,0.0049,1.0200,0.1221,0.1831,-0.1831,5.0000,43.0000,61.0000,0,1,463,1171,423,0
31756256,613,-0.0425,0.0049,1.0200,0.1221,0.2441,-0.3052,5.0000,43.0000,61.0000,0,1,462,1173,427,0
31761253,614,-0.0430,0.0039,1.0210,0.1221,0.3052,-0.3052,6.0000,38.0000,60.0000,1,1,463,1166,424,0
31766255,615,-0.0430,0.0039,1.0205,0.1221,0.1831,-0.1831,6.0000,38.0000,60.0000,0,1,463,1145,782,0
31771252,616,-0.0425,0.0049,1.0195,0.1831,0.1831,-0.1221,6.0000,38.0000,60.0000,0,1,462,1156,396,0
31776265,617,-0.0425,0.0054,1.0229,-0.0610,0.0610,-0.1831,6.0000,38.0000,60.0000,0,1,463,1212,413,0
31781255,618,-0.0425,0.0049,1.0249,0.0610,0.3052,-0.1831,6.0000,38.0000,60.0000,0,1,463,1167,396,0
31786254,619,-0.0420,0.0039,1.0205,0.0610,0.4272,-0.3052,6.0000,38.0000,60.0000,0,1,490,1184,396,0
31791250,620,-0.0430,0.0029,1.0171,0.0000,0.2441,-0.3052,6.0000,38.0000,60.0000,0,1,465,1143,396,0
31796255,621,-0.0444,0.0015,1.0171,0.1831,0.2441,-0.3052,6.0000,38.0000,60.0000,0,1,491,1107,396,0
31801250,622,-0.0430,0.0029,1.0220,-0.0610,-0.0610,-0.3052,6.0000,38.0000,60.0000,0,1,482,1154,396,0
31806255,623,-0.0405,0.0049,1.0234,-0.2441,0.1221,-0.1221,6.0000,38.0000,60.0000,0,1,485,1151,397,0
31811249,624,-0.0410,0.0054,1.0181,0.1831,0.6714,-0.3052,6.0000,38.0000,60.0000,0,1,489,1155,397,0
31816249,625,-0.0435,0.0054,1.0176,0.0000,-0.1221,-0.2441,6.0000,38.0000,60.0000,0,1,482,1150,396,0
31821254,626,-0.0435,0.0059,1.0205,0.1221,0.0610,-0.2441,6.0000,38.0000,60.0000,0,1,490,1108,396,0
31826256,627,-0.0430,0.0068,1.0195,0.3052,0.6104,-0.1831,6.0000,38.0000,60.0000,0,1,492,1151,396,0
31831251,628,-0.0435,0.0049,1.0200,-0.3662,0.0000,-0.1831,6.0000,38.0000,60.0000,0,1,501,1155,395,0
31836256,629,-0.0430,0.0024,1.0239,0.0610,0.0610,-0.2441,6.0000,38.0000,60.0000,0,1,480,1112,422,0
31841256,630,-0.0430,0.0020,1.0249,0.2441,0.4272,-0.2441,6.0000,38.0000,60.0000,0,1,463,1159,415,0
31846248,631,-0.0420,0.0010,1.0234,-0.1221,0.0610,-0.2441,6.0000,38.0000,60.0000,0,1,463,1161,424,0
31851257,632,-0.0415,0.0010,1.0205,0.2441,0.3662,-0.4272,6.0000,38.0000,60.0000,0,1,462,1151,432,0
31856249,633,-0.0435,0.0034,1.0146,0.1831,0.4272,-0.3052,6.0000,38.0000,60.0000,0,1,463,1160,397,0
31861248,634,-0.0439,0.0054,1.0142,0.0000,0.1831,-0.1831,5.0000,39.0000,64.0000,1,1,462,1159,415,0
31866249,635,-0.0430,0.0059,1.0220,0.0610,-0.0610,-0.1221,5.0000,39.0000,64.0000,0,1,462,1120,795,0
31871253,636,-0.0415,0.0059,1.0234,0.0610,0.4272,-0.3052,5.0000,39.0000,64.0000,0,1,463,1124,426,0
31876256,637,-0.0425,0.0054,1.0186,0.1221,0.5493,-0.3662,5.0000,39.0000,64.0000,0,1,462,1187,400,0
31881252,638,-0.0425,0.0049,1.0200,0.2441,0.0610,-0.1831,5.0000,39.0000,64.0000,0,1,463,1248,396,0
31886265,639,-0.0415,0.0044,1.0249,0.1221,0.3052,-0.2441,5.0000,39.0000,64.0000,0,1,463,1172,396,0
31891249,640,-0.0420,0.0049,1.0254,0.0000,0.3052,-0.2441,5.0000,39.0000,64.0000,0,1,463,1206,396,0
31896250,641,-0.0435,0.0054,1.0234,-0.0610,0.2441,-0.1221,5.0000,39.0000,64.0000,0,1,508,1115,396,0
31901256,642,-0.0444,0.0059,1.0205,0.1831,0.3662,-0.3662,5.0000,39.0000,64.0000,0,1,475,1162,397,0
31906249,643,-0.0439,0.0073,1.0195,-0.0610,0.1221,-0.3662,5.0000,39.0000,64.0000,0,1,483,1170,396,0
31911254,644,-0.0420,0.0078,1.0205,0.0000,0.1831,-0.1831,5.0000,39.0000,64.0000,0,1,478,1167,397,0
31916248,645,-0.0415,0.0068,1.0190,0.0610,0.4272,-0.3052,5.0000,39.0000,64.0000,0,1,484,1122,397,0
31921249,646,-0.0430,0.0059,1.0186,0.0000,0.2441,-0.3052,5.0000,39.0000,64.0000,0,1,478,1163,396,0
31926251,647,-0.0430,0.0054,1.0210,0.0000,0.1221,-0.1831,5.0000,39.0000,64.0000,0,1,485,1111,397,0
31931253,648,-0.0420,0.0054,1.0229,0.2441,0.1831,-0.2441,5.0000,39.0000,64.0000,0,1,495,1111,395,0
31936250,649,-0.0420,0.0049,1.0225,-0.0610,0.3052,-0.2441,5.0000,39.0000,64.0000,0,1,480,1169,395,0
31941255,650,-0.0420,0.0039,1.0215,-0.0610,0.3052,-0.3052,5.0000,39.0000,64.0000,0,1,463,1158,413,0
31946251,651,-0.0425,0.0039,1.0215,0.0000,0.1831,-0.1831,5.0000,39.0000,64.0000,0,1,463,1155,424,0
31951248,652,-0.0430,0.0049,1.0205,0.1221,0.1831,-0.1831,5.0000,39.0000,64.0000,0,1,463,1120,414,0
31956249,653,-0.0430,0.0054,1.0190,0.1221,0.2441,-0.2441,5.0000,39.0000,64.0000,0,1,462,1161,423,0
31961251,654,-0.0425,0.0049,1.0200,0.0000,0.2441,-0.3052,6.0000,39.0000,63.0000,1,1,463,1162,414,0
31966257,655,-0.0425,0.0044,1.0210,0.0610,0.1831,-0.3052,6.0000,39.0000,63.0000,0,1,463,1116,794,0
31971248,656,-0.0420,0.0039,1.0210,0.1221,0.1831,-0.2441,6.0000,39.0000,63.0000,0,1,463,1065,415,0
31976252,657,-0.0425,0.0029,1.0205,0.0000,0.1221,-0.2441,6.0000,39.0000,63.0000,0,1,462,1164,396,0
31981266,658,-0.0435,0.0020,1.0200,0.1221,0.1831,-0.2441,6.0000,39.0000,63.0000,0,1,462,1109,414,0
31986255,659,-0.0435,0.0020,1.0200,0.1221,0.2441,-0.3052,6.0000,39.0000,63.0000,0,1,463,1175,396,0
31991251,660,-0.0425,0.0029,1.0210,0.0610,0.1221,-0.2441,6.0000,39.0000,63.0000,0,1,490,1191,397,0
31996256,661,-0.0415,0.0039,1.0215,0.0610,0.1831,-0.1831,6.0000,39.0000,63.0000,0,1,481,1151,397,0
32001250,662,-0.0415,0.0044,1.0215,0.0000,0.3662,-0.2441,6.0000,39.0000,63.0000,0,1,492,1189,397,0
32006255,663,-0.0425,0.0034,1.0215,-0.0610,0.1831,-0.3052,6.0000,39.0000,63.0000,0,1,482,1126,396,0
32011252,664,-0.0425,0.0034,1.0215,0.0610,0.1831,-0.1221,6.0000,39.0000,63.0000,0,1,482,1166,396,0
32016250,665,-0.0430,0.0039,1.0210,0.1831,0.3052,-0.0610,6.0000,39.0000,63.0000,0,1,472,1167,397,0
32021256,666,-0.0439,0.0039,1.0210,0.1221,0.1221,-0.3052,6.0000,39.0000,63.0000,0,1,484,1162,397,0
32026253,667,-0.0439,0.0039,1.0205,-0.0610,0.3052,-0.2441,6.0000,39.0000,63.0000,0,1,487,1160,396,0
32031249,668,-0.0435,0.0034,1.0215,-0.0610,0.1831,-0.3052,6.0000,39.0000,63.0000,0,1,487,1169,396,0
32036251,669,-0.0420,0.0034,1.0225,0.0000,0.3052,-0.3662,6.0000,39.0000,63.0000,0,1,507,1165,395,0
32041254,670,-0.0420,0.0034,1.0215,0.1221,0.3662,-0.2441,6.0000,39.0000,63.0000,0,1,479,1119,422,0
32046253,671,-0.0425,0.0049,1.0190,0.1221,0.2441,-0.1831,6.0000,39.0000,63.0000,0,1,462,1168,415,0
32051251,672,-0.0425,0.0054,1.0186,0.0610,0.1831,-0.1221,6.0000,39.0000,63.0000,0,1,462,1167,424,0
32056248,673,-0.0430,0.0049,1.0205,0.0610,0.1221,-0.2441,6.0000,39.0000,63.0000,0,1,463,1161,420,0
32061249,674,-0.0430,0.0054,1.0220,0.0000,0.3052,-0.1831,5.0000,38.0000,65.0000,1,1,462,1163,422,0
32066256,675,-0.0430,0.0054,1.0215,0.0610,0.4272,-0.2441,5.0000,38.0000,65.0000,0,1,463,1110,782,0
32071253,676,-0.0425,0.0049,1.0225,0.1221,0.1221,-0.1831,5.0000,38.0000,65.0000,0,1,463,1158,422,0
32076256,677,-0.0425,0.0044,1.0229,0.1221,0.1221,-0.1221,5.0000,38.0000,65.0000,0,1,463,1068,412,0
32081256,678,-0.0425,0.0039,1.0225,0.0000,0.2441,-0.1831,5.0000,38.0000,65.0000,0,1,463,1178,396,0
32086258,679,-0.0420,0.0039,1.0210,-0.0610,0.1831,-0.1831,5.0000,38.0000,65.0000,0,1,463,1107,413,0
32091254,680,-0.0415,0.0034,1.0195,0.0610,0.2441,-0.1221,5.0000,38.0000,65.0000,0,1,463,1173,396,0
32096251,681,-0.0410,0.0044,1.0205,0.0610,0.2441,-0.1221,5.0000,38.0000,65.0000,0,1,490,1173,396,0
32101248,682,-0.0425,0.0049,1.0225,0.0610,0.1831,-0.1221,5.0000,38.0000,65.0000,0,1,490,1175,397,0
32106254,683,-0.0439,0.0044,1.0229,0.0000,0.1831,-0.1831,5.0000,38.0000,65.0000,0,1,491,1156,397,0
32111254,684,-0.0439,0.0044,1.0215,0.0000,0.2441,-0.3052,5.0000,38.0000,65.0000,0,1,480,1123,396,0
32116257,685,-0.0430,0.0049,1.0200,0.0610,0.1831,-0.3052,5.0000,38.0000,65.0000,0,1,472,1113,397,0
32121252,686,-0.0420,0.0059,1.0210,0.0610,0.1831,-0.3052,5.0000,38.0000,65.0000,0,1,481,1155,397,0
32126251,687,-0.0415,0.0049,1.0229,0.1221,0.1221,-0.3052,5.0000,38.0000,65.0000,0,1,495,1153,397,0
32131251,688,-0.0415,0.0034,1.0220,0.0000,0.1831,-0.2441,5.0000,38.0000,65.0000,0,1,477,1155,397,0
32136249,689,-0.0420,0.0020,1.0200,0.0000,0.3052,-0.1831,5.0000,38.0000,65.0000,0,1,488,1122,397,0
32141251,690,-0.0425,0.0029,1.0195,0.0610,0.3052,-0.2441,5.0000,38.0000,65.0000,0,1,507,1109,395,0
32146256,691,-0.0435,0.0044,1.0200,0.1221,0.3052,-0.2441,5.0000,38.0000,65.0000,0,1,480,1158,422,0
32151248,692,-0.0435,0.0049,1.0210,0.0000,0.3662,-0.1831,5.0000,38.0000,65.0000,0,1,463,1153,414,0
32156248,693,-0.0435,0.0049,1.0215,-0.0610,0.3052,-0.2441,5.0000,38.0000,65.0000,0,1,462,1112,397,0
32161250,694,-0.0435,0.0044,1.0215,-0.0610,0.3052,-0.3052,6.0000,40.0000,63.0000,1,1,462,1154,414,0
32166252,695,-0.0435,0.0044,1.0215,0.0000,0.3662,-0.3052,6.0000,40.0000,63.0000,0,1,463,1147,796,0
32171252,696,-0.0439,0.0044,1.0215,0.0610,0.3052,-0.1831,6.0000,40.0000,63.0000,0,1,463,992,420,0
32176255,697,-0.0430,0.0039,1.0210,0.1831,0.2441,-0.1831,6.0000,40.0000,63.0000,0,1,463,1039,433,0
32181253,698,-0.0425,0.0044,1.0205,0.0610,0.1831,-0.2441,6.0000,40.0000,63.0000,0,1,462,1132,432,0
32186252,699,-0.0430,0.0049,1.0210,0.1221,0.2441,-0.1221,6.0000,40.0000,63.0000,0,1,463,1184,408,0
32191250,700,-0.0430,0.0049,1.0210,0.1221,0.3662,-0.1831,6.0000,40.0000,63.0000,0,1,463,1156,396,0
32196248,701,-0.0435,0.0039,1.0215,0.0610,0.3052,-0.2441,6.0000,40.0000,63.0000,0,1,489,1183,397,0
32201249,702,-0.0435,0.0039,1.0215,0.0610,0.1831,-0.1831,6.0000,40.0000,63.0000,0,1,490,1198,396,0
32206250,703,-0.0435,0.0029,1.0210,0.0000,0.3052,-0.1831,6.0000,40.0000,63.0000,0,1,491,1177,396,0
32211253,704,-0.0425,0.0024,1.0200,0.0610,0.3662,-0.3052,6.0000,40.0000,63.0000,0,1,481,1106,396,0
32216253,705,-0.0415,0.0029,1.0186,0.0610,0.1831,-0.2441,6.0000,40.0000,63.0000,0,1,476,1155,398,0
32221252,706,-0.0420,0.0039,1.0181,0.0000,0.2441,-0.1831,6.0000,40.0000,63.0000,0,1,489,1160,396,0
32226249,707,-0.0425,0.0044,1.0200,-0.0610,0.3052,-0.2441,6.0000,40.0000,63.0000,0,1,479,1112,396,0
32231256,708,-0.0430,0.0054,1.0210,0.0610,0.2441,-0.2441,6.0000,40.0000,63.0000,0,1,487,1152,396,0
32236255,709,-0.0425,0.0049,1.0210,0.1221,0.2441,-0.1831,6.0000,40.0000,63.0000,0,1,493,1155,397,0
32241248,710,-0.0420,0.0029,1.0229,0.0610,0.3052,-0.1831,6.0000,40.0000,63.0000,0,1,491,1154,395,0
32246249,711,-0.0425,0.0020,1.0249,0.0610,0.3052,-0.2441,6.0000,40.0000,63.0000,0,1,480,1155,422,0
32251254,712,-0.0425,0.0029,1.0239,0.0610,0.3662,-0.2441,6.0000,40.0000,63.0000,0,1,463,1153,427,0
32256256,713,-0.0425,0.0049,1.0215,0.0610,0.1831,-0.1221,6.0000,40.0000,63.0000,0,1,463,1159,398,0
32261256,714,-0.0425,0.0054,1.0215,0.0610,0.1221,-0.1831,4.0000,39.0000,64.0000,1,1,463,1151,433,0
32266257,715,-0.0425,0.0054,1.0220,-0.0610,0.3662,-0.2441,4.0000,39.0000,64.0000,0,1,463,1158,795,0
32271250,716,-0.0430,0.0049,1.0205,0.0610,0.4883,-0.3662,4.0000,39.0000,64.0000,0,1,463,1162,415,0
32276248,717,-0.0430,0.0034,1.0195,0.1221,0.3052,-0.3052,4.0000,39.0000,64.0000,0,1,463,1046,431,0
32281249,718,-0.0420,0.0029,1.0200,0.0000,0.2441,-0.2441,4.0000,39.0000,64.0000,0,1,462,1126,430,0
32286257,719,-0.0415,0.0044,1.0220,0.0000,0.2441,-0.2441,4.0000,39.0000,64.0000,0,1,463,1195,406,0
32291281,720,-0.0425,0.0054,1.0234,0.0000,0.3052,-0.1831,4.0000,39.0000,64.0000,0,1,463,1127,396,0
32296254,721,-0.0425,0.0059,1.0225,0.1221,0.3052,-0.1221,4.0000,39.0000,64.0000,0,1,463,1132,397,0
32301252,722,-0.0430,0.0059,1.0210,0.0610,0.3662,-0.3052,4.0000,39.0000,64.0000,0,1,490,1194,396,0
32306256,723,-0.0435,0.0054,1.0195,0.0000,0.3662,-0.3662,4.0000,39.0000,64.0000,0,1,482,1171,397,0
32311248,724,-0.0439,0.0049,1.0205,0.0000,0.3052,-0.2441,4.0000,39.0000,64.0000,0,1,492,1122,396,0
32316254,725,-0.0430,0.0059,1.0215,0.0610,0.1221,-0.2441,4.0000,39.0000,64.0000,0,1,482,1117,397,0
32321250,726,-0.0420,0.0059,1.0205,-0.0610,0.2441,-0.2441,4.0000,39.0000,64.0000,0,1,508,1158,396,0
32326250,727,-0.0415,0.0054,1.0210,0.0610,0.3052,-0.1831,4.0000,39.0000,64.0000,0,1,478,1163,396,0
32331257,728,-0.0425,0.0049,1.0220,0.1221,0.3052,-0.2441,4.0000,39.0000,64.0000,0,1,489,1158,397,0
32336248,729,-0.0435,0.0049,1.0210,0.0610,0.2441,-0.1221,4.0000,39.0000,64.0000,0,1,484,1158,396,0
32341250,730,-0.0430,0.0044,1.0200,-0.0610,0.1831,-0.1221,4.0000,39.0000,64.0000,0,1,496,1156,397,0
32346254,731,-0.0415,0.0034,1.0205,-0.0610,0.1831,-0.1831,4.0000,39.0000,64.0000,0,1,508,1157,395,0
32351252,732,-0.0410,0.0039,1.0210,0.0000,0.1831,-0.1831,4.0000,39.0000,64.0000,0,1,463,1170,424,0
32356249,733,-0.0420,0.0059,1.0225,-0.0610,0.2441,-0.3052,4.0000,39.0000,64.0000,0,1,463,1118,425,0
32361253,734,-0.0420,0.0063,1.0210,0.1221,0.1831,-0.1221,4.0000,39.0000,64.0000,0,1,462,1156,412,0
32366255,735,-0.0420,0.0059,1.0190,0.1831,0.3052,-0.1831,6.0000,39.0000,63.0000,1,1,463,1157,420,0
32371249,736,-0.0415,0.0059,1.0195,0.1221,0.2441,-0.2441,6.0000,39.0000,63.0000,0,1,462,1165,809,0
32376248,737,-0.0410,0.0054,1.0215,0.0610,0.2441,-0.3052,6.0000,39.0000,63.0000,0,1,463,1168,424,0
32381252,738,-0.0410,0.0044,1.0225,-0.0610,0.2441,-0.2441,6.0000,39.0000,63.0000,0,1,463,1079,414,0
32386249,739,-0.0420,0.0044,1.0215,0.0610,0.2441,-0.1831,6.0000,39.0000,63.0000,0,1,462,1194,395,0
32391263,740,-0.0425,0.0034,1.0215,0.0610,0.2441,-0.2441,6.0000,39.0000,63.0000,0,1,462,1238,397,0
32396256,741,-0.0430,0.0024,1.0225,0.0000,0.2441,-0.1831,6.0000,39.0000,63.0000,0,1,463,1179,396,0
32401250,742,-0.0435,0.0029,1.0210,0.0000,0.3052,-0.2441,6.0000,39.0000,63.0000,0,1,490,1171,396,0
32406252,743,-0.0435,0.0034,1.0195,0.0610,0.3052,-0.3662,6.0000,39.0000,63.0000,0,1,507,1089,397,0
32411252,744,-0.0425,0.0044,1.0186,0.0610,0.1221,-0.3052,6.0000,39.0000,63.0000,0,1,492,1184,396,0
32416249,745,-0.0410,0.0054,1.0181,0.1221,0.3662,-0.3052,6.0000,39.0000,63.0000,0,1,480,1157,397,0
32421255,746,-0.0425,0.0054,1.0195,0.1221,0.1831,-0.1831,6.0000,39.0000,63.0000,0,1,477,1160,397,0
32426254,747,-0.0439,0.0054,1.0215,0.0610,0.3052,-0.1831,6.0000,39.0000,63.0000,0,1,500,1168,397,0
32431248,748,-0.0449,0.0044,1.0210,0.0000,0.3662,-0.1831,6.0000,39.0000,63.0000,0,1,489,1165,397,0
32436250,749,-0.0454,0.0034,1.0205,0.0610,0.3662,-0.1831,6.0000,39.0000,63.0000,0,1,471,1123,397,0
32441252,750,-0.0444,0.0039,1.0220,0.0610,0.2441,-0.2441,6.0000,39.0000,63.0000,0,1,476,1175,397,0
32446255,751,-0.0430,0.0049,1.0225,-0.0610,0.3052,-0.3662,6.0000,39.0000,63.0000,0,1,492,1172,395,0
32451250,752,-0.0425,0.0049,1.0225,-0.1221,0.3052,-0.1831,6.0000,39.0000,63.0000,0,1,504,1161,395,0
32456248,753,-0.0425,0.0039,1.0220,0.0000,0.3662,-0.1831,6.0000,39.0000,63.0000,0,1,463,1160,396,0
32461250,754,-0.0430,0.0039,1.0200,0.0610,0.3052,-0.2441,6.0000,39.0000,63.0000,0,1,463,1124,423,0
32466249,755,-0.0435,0.0039,1.0190,0.0610,0.2441,-0.2441,7.0000,42.0000,60.0000,1,1,463,1162,439,0
32471249,756,-0.0435,0.0039,1.0195,0.0610,0.1831,-0.3662,7.0000,42.0000,60.0000,0,1,463,1157,786,0
32476248,757,-0.0425,0.0044,1.0205,0.0610,0.2441,-0.2441,7.0000,42.0000,60.0000,0,1,462,1157,434,0
32481252,758,-0.0420,0.0049,1.0210,-0.1221,0.3052,-0.0610,7.0000,42.0000,60.0000,0,1,463,1153,425,0
32486253,759,-0.0410,0.0039,1.0220,0.0000,0.2441,-0.2441,7.0000,42.0000,60.0000,0,1,463,1028,433,0
32491250,760,-0.0430,0.0049,1.0229,0.1221,0.4272,-0.2441,7.0000,42.0000,60.0000,0,1,463,1120,433,0
32496255,761,-0.0444,0.0059,1.0220,0.0000,0.3052,-0.2441,7.0000,42.0000,60.0000,0,1,462,1152,408,0
32501260,762,-0.0444,0.0059,1.0205,0.0000,0.1831,-0.3052,7.0000,42.0000,60.0000,0,1,463,1146,396,0
32506260,763,-0.0439,0.0044,1.0200,-0.0610,0.3052,-0.3052,7.0000,42.0000,60.0000,0,1,463,1093,396,0
32511256,764,-0.0430,0.0034,1.0200,0.0610,0.2441,-0.2441,7.0000,42.0000,60.0000,0,1,489,1163,396,0
32516254,765,-0.0420,0.0039,1.0205,0.0000,0.2441,-0.2441,7.0000,42.0000,60.0000,0,1,482,1128,397,0
32521255,766,-0.0425,0.0044,1.0205,0.0610,0.2441,-0.1831,7.0000,42.0000,60.0000,0,1,491,1113,397,0
32526254,767,-0.0430,0.0039,1.0195,0.0610,0.3052,-0.1831,7.0000,42.0000,60.0000,0,1,486,1154,396,0
32531256,768,-0.0425,0.0034,1.0190,0.0610,0.3052,-0.3662,7.0000,42.0000,60.0000,0,1,491,1152,397,0
32536255,769,-0.0420,0.0034,1.0195,0.0000,0.2441,-0.2441,7.0000,42.0000,60.0000,0,1,505,1152,397,0
32541257,770,-0.0420,0.0029,1.0200,0.0610,0.2441,-0.1221,7.0000,42.0000,60.0000,0,1,490,1114,397,0
32546251,771,-0.0425,0.0034,1.0200,0.1221,0.2441,-0.1831,7.0000,42.0000,60.0000,0,1,494,1150,398,0
32551249,772,-0.0425,0.0044,1.0205,0.0610,0.1831,-0.1221,7.0000,42.0000,60.0000,0,1,484,1154,397,0
32556251,773,-0.0420,0.0044,1.0210,0.0610,0.2441,-0.3052,7.0000,42.0000,60.0000,0,1,495,1149,395,0
32561253,774,-0.0415,0.0039,1.0210,0.1221,0.2441,-0.2441,7.0000,42.0000,60.0000,0,1,481,1146,395,0
32566254,775,-0.0420,0.0044,1.0215,0.0000,0.3052,-0.1831,5.0000,38.0000,58.0000,1,1,462,1155,422,0
32571252,776,-0.0430,0.0039,1.0210,0.1221,0.3662,-0.1831,5.0000,38.0000,58.0000,0,1,462,1128,784,0
32576253,777,-0.0430,0.0034,1.0190,0.0610,0.3662,-0.1831,5.0000,38.0000,58.0000,0,1,463,1174,439,0
32581248,778,-0.0435,0.0029,1.0190,0.1221,0.3052,-0.3052,5.0000,38.0000,58.0000,0,1,463,1179,419,0
32586254,779,-0.0430,0.0034,1.0200,0.1221,0.2441,-0.2441,5.0000,38.0000,58.0000,0,1,463,1164,435,0
32591251,780,-0.0430,0.0044,1.0200,-0.0610,0.3052,-0.2441,5.0000,38.0000,58.0000,0,1,462,1178,422,0
32596251,781,-0.0425,0.0049,1.0205,0.0610,0.2441,-0.2441,5.0000,38.0000,58.0000,0,1,463,1058,402,0
32601250,782,-0.0415,0.0049,1.0210,0.0610,0.2441,-0.2441,5.0000,38.0000,58.0000,0,1,462,1063,415,0
32606257,783,-0.0410,0.0049,1.0210,-0.0610,0.3662,-0.1221,5.0000,38.0000,58.0000,0,1,462,1157,397,0
32611258,784,-0.0420,0.0054,1.0215,-0.0610,0.2441,-0.2441,5.0000,38.0000,58.0000,0,1,463,1210,396,0
32616249,785,-0.0430,0.0054,1.0220,0.1221,0.1221,-0.3052,5.0000,38.0000,58.0000,0,1,462,1186,397,0
32621249,786,-0.0439,0.0049,1.0210,0.1221,0.2441,-0.2441,5.0000,38.0000,58.0000,0,1,489,1194,396,0
32626248,787,-0.0435,0.0044,1.0210,0.0000,0.1831,-0.2441,5.0000,38.0000,58.0000,0,1,481,1165,397,0
32631249,788,-0.0425,0.0044,1.0225,0.0610,0.3052,-0.3052,5.0000,38.0000,58.0000,0,1,492,1131,396,0
32636254,789,-0.0415,0.0049,1.0234,0.0610,0.3662,-0.1831,5.0000,38.0000,58.0000,0,1,480,1166,396,0
32641255,790,-0.0420,0.0044,1.0229,0.0610,0.3662,-0.2441,5.0000,38.0000,58.0000,0,1,489,1181,397,0
32646249,791,-0.0425,0.0039,1.0229,0.0000,0.2441,-0.3052,5.0000,38.0000,58.0000,0,1,475,1179,396,0
32651250,792,-0.0430,0.0044,1.0220,0.0610,0.2441,-0.2441,5.0000,38.0000,58.0000,0,1,492,1131,397,0
32656249,793,-0.0444,0.0044,1.0215,0.0610,0.1831,-0.1831,5.0000,38.0000,58.0000,0,1,502,1176,396,0
32661248,794,-0.0449,0.0034,1.0210,0.1221,0.1831,-0.1831,5.0000,38.0000,58.0000,0,1,487,1179,397,0
32666252,795,-0.0435,0.0034,1.0200,0.1221,0.2441,-0.2441,8.0000,39.0000,68.0000,1,1,497,1178,395,0
32671252,796,-0.0430,0.0039,1.0195,0.1221,0.2441,-0.3052,8.0000,39.0000,68.0000,0,1,480,1171,791,0
32676249,797,-0.0430,0.0034,1.0200,0.0000,0.2441,-0.2441,8.0000,39.0000,68.0000,0,1,463,1167,415,0
32681252,798,-0.0430,0.0034,1.0200,0.0610,0.2441,-0.1831,8.0000,39.0000,68.0000,0,1,462,1126,432,0
32686251,799,-0.0435,0.0044,1.0195,0.1831,0.2441,-0.2441,8.0000,39.0000,68.0000,0,1,463,1171,421,0
32691248,800,-0.0430,0.0044,1.0200,0.0610,0.2441,-0.1831,8.0000,39.0000,68.0000,0,1,463,1174,435,0
32696256,801,-0.0420,0.0044,1.0215,0.0610,0.3052,-0.1831,8.0000,39.0000,68.0000,0,1,463,1169,423,0
32701248,802,-0.0415,0.0054,1.0220,0.0000,0.3052,-0.1831,8.0000,39.0000,68.0000,0,1,462,1154,432,0
32706250,803,-0.0420,0.0054,1.0215,0.0610,0.1831,-0.1831,8.0000,39.0000,68.0000,0,1,463,1132,415,0
32711252,804,-0.0420,0.0049,1.0210,0.1221,0.3662,-0.1831,8.0000,39.0000,68.0000,0,1,462,1195,410,0
32716276,805,-0.0425,0.0044,1.0200,0.0610,0.3052,-0.2441,8.0000,39.0000,68.0000,0,1,463,1259,396,0
32721264,806,-0.0439,0.0044,1.0195,0.0000,0.1831,-0.2441,8.0000,39.0000,68.0000,0,1,463,1174,396,0
32726253,807,-0.0435,0.0044,1.0210,0.1221,0.2441,-0.1221,8.0000,39.0000,68.0000,0,1,490,1119,396,0
32731252,808,-0.0425,0.0044,1.0220,0.0000,0.3052,-0.1221,8.0000,39.0000,68.0000,0,1,495,1134,396,0
32736250,809,-0.0420,0.0054,1.0220,0.0610,0.1831,-0.3052,8.0000,39.0000,68.0000,0,1,504,1115,396,0
32741255,810,-0.0415,0.0054,1.0205,0.1831,0.2441,-0.1831,8.0000,39.0000,68.0000,0,1,490,1164,398,0
32746254,811,-0.0420,0.0049,1.0190,0.1221,0.3662,-0.1831,8.0000,39.0000,68.0000,0,1,471,1177,397,0
32751257,812,-0.0420,0.0049,1.0190,0.0610,0.2441,-0.1831,8.0000,39.0000,68.0000,0,1,482,1170,397,0
32756256,813,-0.0420,0.0049,1.0210,0.0000,0.2441,-0.1831,8.0000,39.0000,68.0000,0,1,487,1171,397,0
32761255,814,-0.0430,0.0049,1.0215,0.1221,0.2441,-0.1221,8.0000,39.0000,68.0000,0,1,497,1125,396,0
32766251,815,-0.0420,0.0049,1.0210,0.0610,0.1221,-0.1221,7.0000,40.0000,59.0000,1,1,502,1163,397,0
32771250,816,-0.0415,0.0039,1.0215,0.1221,0.3052,-0.2441,7.0000,40.0000,59.0000,0,1,506,1144,764,0
32776256,817,-0.0420,0.0039,1.0210,0.1221,0.4272,-0.3052,7.0000,40.0000,59.0000,0,1,463,1150,423,0
32781257,818,-0.0435,0.0044,1.0205,0.1221,0.1831,-0.2441,7.0000,40.0000,59.0000,0,1,462,1145,420,0
32786253,819,-0.0435,0.0044,1.0210,-0.0610,0.2441,-0.2441,7.0000,40.0000,59.0000,0,1,463,1152,439,0
32791253,820,-0.0415,0.0034,1.0210,0.0000,0.3662,-0.3052,7.0000,40.0000,59.0000,0,1,463,1152,422,0
32796254,821,-0.0415,0.0034,1.0205,0.0610,0.2441,-0.2441,7.0000,40.0000,59.0000,0,1,462,1106,441,0
32801250,822,-0.0430,0.0039,1.0210,0.0610,0.2441,-0.2441,7.0000,40.0000,59.0000,0,1,463,1157,413,0
32806256,823,-0.0430,0.0044,1.0220,0.1221,0.3052,-0.1831,7.0000,40.0000,59.0000,0,1,463,1036,439,0
32811254,824,-0.0425,0.0044,1.0215,0.0610,0.3052,-0.2441,7.0000,40.0000,59.0000,0,1,463,1155,418,0
32816253,825,-0.0420,0.0039,1.0195,0.0610,0.2441,-0.3052,7.0000,40.0000,59.0000,0,1,462,1199,412,0
32821284,826,-0.0415,0.0044,1.0195,0.0000,0.2441,-0.1221,7.0000,40.0000,59.0000,0,1,463,1162,396,0
32826270,827,-0.0415,0.0049,1.0195,0.0610,0.3662,-0.2441,7.0000,40.0000,59.0000,0,1,463,1126,396,0
32831250,828,-0.0425,0.0049,1.0195,0.0000,0.1831,-0.1831,7.0000,40.0000,59.0000,0,1,490,1203,397,0
32836251,829,-0.0439,0.0049,1.0200,0.1221,0.2441,-0.2441,7.0000,40.0000,59.0000,0,1,492,1112,397,0
32841254,830,-0.0444,0.0049,1.0190,0.1221,0.2441,-0.1831,7.0000,40.0000,59.0000,0,1,508,1154,396,0
32846248,831,-0.0435,0.0049,1.0200,0.0610,0.3052,-0.1221,7.0000,40.0000,59.0000,0,1,488,1156,397,0
32851252,832,-0.0425,0.0044,1.0215,0.0000,0.2441,-0.2441,7.0000,40.0000,59.0000,0,1,482,1143,397,0
32856255,833,-0.0420,0.0039,1.0225,0.1221,0.3662,-0.1831,7.0000,40.0000,59.0000,0,1,488,1108,397,0
32861249,834,-0.0420,0.0039,1.0229,0.0610,0.3052,-0.2441,7.0000,40.0000,59.0000,0,1,490,1155,397,0
32866249,835,-0.0425,0.0044,1.0220,0.1221,0.1831,-0.2441,5.0000,38.0000,63.0000,1,1,507,1153,397,0
32871255,836,-0.0425,0.0044,1.0210,0.1831,0.3662,-0.3052,5.0000,38.0000,63.0000,0,1,478,1221,766,0
32876251,837,-0.0425,0.0054,1.0205,0.1221,0.3052,-0.3052,5.0000,38.0000,63.0000,0,1,504,1172,396,0
32881251,838,-0.0439,0.0063,1.0205,0.0000,0.2441,-0.2441,5.0000,38.0000,63.0000,0,1,480,1163,423,0
32886253,839,-0.0444,0.0063,1.0210,0.0000,0.2441,-0.1831,5.0000,38.0000,63.0000,0,1,462,1137,420,0
32891253,840,-0.0439,0.0059,1.0200,0.1221,0.4272,-0.1831,5.0000,38.0000,63.0000,0,1,462,1136,439,0
32896250,841,-0.0430,0.0059,1.0190,0.1221,0.3052,-0.2441,5.0000,38.0000,63.0000,0,1,463,1175,425,0
32901253,842,-0.0420,0.0063,1.0205,0.1221,0.1221,-0.1831,5.0000,38.0000,63.0000,0,1,462,1166,439,0
32906249,843,-0.0420,0.0063,1.0215,0.1831,0.2441,-0.2441,5.0000,38.0000,63.0000,0,1,463,1172,407,0
32911249,844,-0.0420,0.0054,1.0205,0.1221,0.1831,-0.2441,5.0000,38.0000,63.0000,0,1,463,1182,440,0
32916251,845,-0.0415,0.0049,1.0205,-0.0610,0.1221,-0.1831,5.0000,38.0000,63.0000,0,1,463,1090,419,0
32921248,846,-0.0420,0.0049,1.0215,-0.0610,0.2441,-0.1831,5.0000,38.0000,63.0000,0,1,463,1210,408,0
32926273,847,-0.0430,0.0044,1.0220,-0.0610,0.3662,-0.2441,5.0000,38.0000,63.0000,0,1,463,1260,396,0
32931262,848,-0.0435,0.0039,1.0215,0.0610,0.2441,-0.3662,5.0000,38.0000,63.0000,0,1,462,1184,397,0
32936257,849,-0.0430,0.0039,1.0205,0.1221,0.1221,-0.2441,5.0000,38.0000,63.0000,0,1,490,1189,396,0
32941252,850,-0.0425,0.0044,1.0205,0.0610,0.2441,-0.2441,5.0000,38.0000,63.0000,0,1,480,1145,397,0
32946250,851,-0.0425,0.0049,1.0200,0.0000,0.1831,-0.1831,5.0000,38.0000,63.0000,0,1,499,1178,396,0
32951255,852,-0.0425,0.0054,1.0210,0.0000,0.1221,-0.1831,5.0000,38.0000,63.0000,0,1,486,1131,397,0
32956249,853,-0.0425,0.0049,1.0220,0.0610,0.1831,-0.1221,5.0000,38.0000,63.0000,0,1,491,1125,397,0
32961254,854,-0.0425,0.0049,1.0215,0.1221,0.3052,-0.2441,5.0000,38.0000,63.0000,0,1,483,1172,396,0
32966255,855,-0.0420,0.0044,1.0195,0.0000,0.4272,-0.1831,5.0000,39.0000,62.0000,1,1,489,1171,397,0
32971254,856,-0.0420,0.0044,1.0186,-0.0610,0.3052,-0.1831,5.0000,39.0000,62.0000,0,1,488,1139,766,0
32976248,857,-0.0430,0.0054,1.0190,0.0610,0.2441,-0.2441,5.0000,39.0000,62.0000,0,1,495,1158,397,0
32981248,858,-0.0430,0.0073,1.0205,0.1221,0.2441,-0.1831,5.0000,39.0000,62.0000,0,1,506,1165,395,0
32986250,859,-0.0415,0.0073,1.0220,0.0000,0.3052,-0.2441,5.0000,39.0000,62.0000,0,1,463,1164,423,0
32991257,860,-0.0410,0.0049,1.0210,0.0000,0.2441,-0.1831,5.0000,39.0000,62.0000,0,1,463,1118,425,0
32996251,861,-0.0420,0.0024,1.0190,0.0000,0.3662,-0.2441,5.0000,39.0000,62.0000,0,1,463,1117,433,0
33001252,862,-0.0430,0.0024,1.0186,0.0000,0.3052,-0.2441,5.0000,39.0000,62.0000,0,1,462,1124,405,0
33006252,863,-0.0439,0.0039,1.0190,0.0610,0.3052,-0.2441,5.0000,39.0000,62.0000,0,1,463,1116,438,0
33011256,864,-0.0435,0.0054,1.0200,0.0610,0.2441,-0.2441,5.0000,39.0000,62.0000,0,1,463,1163,415,0
33016254,865,-0.0430,0.0049,1.0210,0.1221,0.2441,-0.2441,5.0000,39.0000,62.0000,0,1,463,1152,439,0
33021248,866,-0.0420,0.0034,1.0210,0.0610,0.2441,-0.1831,5.0000,39.0000,62.0000,0,1,463,1140,419,0
33026249,867,-0.0415,0.0024,1.0210,0.0000,0.2441,-0.1831,5.0000,39.0000,62.0000,0,1,463,1200,413,0
33031277,868,-0.0420,0.0034,1.0210,0.1221,0.1831,-0.2441,5.0000,39.0000,62.0000,0,1,462,1130,397,0
33036263,869,-0.0435,0.0044,1.0200,0.1831,0.1221,-0.2441,5.0000,39.0000,62.0000,0,1,463,1172,396,0
33041250,870,-0.0435,0.0034,1.0200,0.0610,0.2441,-0.2441,5.0000,39.0000,62.0000,0,1,463,1201,396,0
33046249,871,-0.0425,0.0034,1.0215,0.0610,0.1221,-0.2441,5.0000,39.0000,62.0000,0,1,480,1139,397,0
33051256,872,-0.0430,0.0044,1.0225,0.0000,0.2441,-0.3052,5.0000,39.0000,62.0000,0,1,495,1162,397,0
33056249,873,-0.0435,0.0039,1.0239,0.0610,0.1221,-0.1831,5.0000,39.0000,62.0000,0,1,482,1114,396,0
33061257,874,-0.0430,0.0039,1.0234,0.1221,0.1221,-0.2441,5.0000,39.0000,62.0000,0,1,484,1164,397,0
33066253,875,-0.0425,0.0049,1.0215,0.1831,0.2441,-0.1221,6.0000,39.0000,66.0000,1,1,482,1164,396,0
33071256,876,-0.0425,0.0059,1.0220,0.1221,0.2441,-0.3052,6.0000,39.0000,66.0000,0,1,484,1204,783,0
33076252,877,-0.0420,0.0059,1.0220,0.0610,0.2441,-0.3052,6.0000,39.0000,66.0000,0,1,488,1159,396,0
33081255,878,-0.0415,0.0059,1.0205,-0.0610,0.1831,-0.2441,6.0000,39.0000,66.0000,0,1,501,1161,397,0
33086255,879,-0.0420,0.0059,1.0200,0.0000,0.3052,-0.2441,6.0000,39.0000,66.0000,0,1,499,1169,397,0
33091254,880,-0.0430,0.0054,1.0205,0.1831,0.1831,-0.2441,6.0000,39.0000,66.0000,0,1,508,1114,395,0
33096253,881,-0.0439,0.0044,1.0205,0.1221,0.2441,-0.1221,6.0000,39.0000,66.0000,0,1,463,1171,440,0
33101248,882,-0.0435,0.0039,1.0205,0.0000,0.2441,-0.1831,6.0000,39.0000,66.0000,0,1,463,1164,424,0
33106250,883,-0.0430,0.0039,1.0210,0.0610,0.1831,-0.3052,6.0000,39.0000,66.0000,0,1,463,1126,441,0
33111250,884,-0.0430,0.0044,1.0210,0.0610,0.3052,-0.1831,6.0000,39.0000,66.0000,0,1,463,1161,423,0
33116248,885,-0.0435,0.0044,1.0220,0.0000,0.3662,-0.1831,6.0000,39.0000,66.0000,0,1,463,1160,440,0
33121249,886,-0.0435,0.0044,1.0225,0.0610,0.2441,-0.1831,6.0000,39.0000,66.0000,0,1,463,1009,424,0
33126249,887,-0.0430,0.0049,1.0215,0.1221,0.2441,-0.3052,6.0000,39.0000,66.0000,0,1,463,1056,413,0
33131249,888,-0.0435,0.0049,1.0205,0.0610,0.3052,-0.3662,6.0000,39.0000,66.0000,0,1,463,1074,395,0
33136251,889,-0.0430,0.0039,1.0205,0.0610,0.1831,-0.3052,6.0000,39.0000,66.0000,0,1,463,1173,413,0
33141266,890,-0.0420,0.0029,1.0195,0.0610,0.3052,-0.3052,6.0000,39.0000,66.0000,0,1,463,1174,396,0
33146270,891,-0.0415,0.0020,1.0200,0.0610,0.2441,-0.1221,6.0000,39.0000,66.0000,0,1,463,1191,396,0
33151250,892,-0.0420,0.0020,1.0215,0.0610,0.2441,-0.0610,6.0000,39.0000,66.0000,0,1,489,1204,396,0
33156256,893,-0.0425,0.0029,1.0210,-0.0610,0.3052,-0.1831,6.0000,39.0000,66.0000,0,1,482,1181,396,0
33161248,894,-0.0430,0.0029,1.0200,0.0000,0.2441,-0.2441,6.0000,39.0000,66.0000,0,1,499,1162,396,0
33166255,895,-0.0430,0.0034,1.0205,0.0000,0.2441,-0.2441,6.0000,39.0000,66.0000,0,1,477,1124,396,0
33171250,896,-0.0420,0.0049,1.0210,-0.0610,0.2441,-0.1831,5.0000,41.0000,60.0000,1,1,489,1127,396,0
33176256,897,-0.0420,0.0063,1.0215,0.0000,0.3052,-0.2441,5.0000,41.0000,60.0000,0,1,482,1164,809,0
33181256,898,-0.0420,0.0063,1.0205,0.0000,0.1221,-0.2441,5.0000,41.0000,60.0000,0,1,484,1110,396,0
33186253,899,-0.0430,0.0044,1.0205,0.0610,0.2441,-0.3052,5.0000,41.0000,60.0000,0,1,490,1111,396,0
33191249,900,-0.0439,0.0029,1.0210,0.1221,0.3052,-0.3052,5.0000,41.0000,60.0000,0,1,475,1152,396,0
33196256,901,-0.0444,0.0034,1.0210,0.1221,0.2441,-0.2441,5.0000,41.0000,60.0000,0,1,502,1147,395,0
33201252,902,-0.0435,0.0044,1.0215,0.0610,0.1831,-0.3052,5.0000,41.0000,60.0000,0,1,480,1160,422,0
33206248,903,-0.0430,0.0044,1.0215,0.1221,0.2441,-0.1831,5.0000,41.0000,60.0000,0,1,463,1150,440,0
33211250,904,-0.0420,0.0039,1.0215,-0.0610,0.3052,-0.2441,5.0000,41.0000,60.0000,0,1,462,1154,431,0
33216251,905,-0.0415,0.0034,1.0225,0.0000,0.3052,-0.2441,5.0000,41.0000,60.0000,0,1,463,1152,413,0
33221251,906,-0.0420,0.0034,1.0215,0.0610,0.2441,-0.1831,5.0000,41.0000,60.0000,0,1,463,1111,426,0
33226249,907,-0.0430,0.0039,1.0205,0.1221,0.3662,-0.1831,5.0000,41.0000,60.0000,0,1,462,1159,413,0
33231255,908,-0.0430,0.0054,1.0205,0.0610,0.1831,-0.2441,5.0000,41.0000,60.0000,0,1,463,1148,423,0
33236254,909,-0.0430,0.0059,1.0205,0.0000,0.1831,-0.1831,5.0000,41.0000,60.0000,0,1,463,1047,440,0
33241249,910,-0.0430,0.0054,1.0200,-0.0610,0.2441,-0.2441,5.0000,41.0000,60.0000,0,1,463,1071,423,0
33246249,911,-0.0420,0.0049,1.0215,0.0000,0.3052,-0.2441,5.0000,41.0000,60.0000,0,1,462,1243,397,0
33251251,912,-0.0430,0.0049,1.0229,0.0000,0.3662,-0.2441,5.0000,41.0000,60.0000,0,1,463,1152,396,0
33256254,913,-0.0439,0.0054,1.0225,0.1831,0.3052,-0.1221,5.0000,41.0000,60.0000,0,1,462,1103,396,0
33261254,914,-0.0439,0.0054,1.0210,0.0000,0.3052,-0.3052,5.0000,41.0000,60.0000,0,1,508,1169,396,0
33266256,915,-0.0430,0.0049,1.0205,-0.0610,0.1221,-0.2441,5.0000,41.0000,60.0000,0,1,491,1104,397,0
33271252,916,-0.0430,0.0054,1.0210,0.0610,0.3052,-0.3052,5.0000,38.0000,60.0000,1,1,482,1154,396,0
33276253,917,-0.0425,0.0054,1.0210,-0.0610,0.3052,-0.3662,5.0000,38.0000,60.0000,0,1,478,1059,779,0
33281250,918,-0.0415,0.0059,1.0210,0.0610,0.3662,-0.2441,5.0000,38.0000,60.0000,0,1,485,1152,397,0
33286254,919,-0.0420,0.0054,1.0205,0.1221,0.4272,-0.3052,5.0000,38.0000,60.0000,0,1,495,1158,396,0
33291253,920,-0.0430,0.0039,1.0205,0.0000,0.3662,-0.1831,5.0000,38.0000,60.0000,0,1,497,1153,396,0
33296251,921,-0.0430,0.0024,1.0190,0.0000,0.1831,-0.1831,5.0000,38.0000,60.0000,0,1,484,1117,397,0
33301252,922,-0.0430,0.0034,1.0195,0.1221,0.3052,-0.3052,5.0000,38.0000,60.0000,0,1,506,1117,395,0
33306250,923,-0.0430,0.0039,1.0229,0.0000,0.2441,-0.2441,5.0000,38.0000,60.0000,0,1,508,1151,395,0
33311253,924,-0.0430,0.0039,1.0244,0.1221,0.2441,-0.1831,5.0000,38.0000,60.0000,0,1,463,1120,440,0
33316256,925,-0.0430,0.0049,1.0215,0.0610,0.2441,-0.2441,5.0000,38.0000,60.0000,0,1,463,1162,425,0
33321251,926,-0.0420,0.0054,1.0200,0.1221,0.3052,-0.2441,5.0000,38.0000,60.0000,0,1,463,1158,440,0
33326249,927,-0.0410,0.0049,1.0195,0.0610,0.2441,-0.1831,5.0000,38.0000,60.0000,0,1,463,1151,422,0
33331251,928,-0.0415,0.0034,1.0200,-0.0610,0.3662,-0.2441,5.0000,38.0000,60.0000,0,1,462,1161,415,0
33336254,929,-0.0420,0.0029,1.0200,0.0000,0.3052,-0.2441,5.0000,38.0000,60.0000,0,1,463,1162,414,0
33341248,930,-0.0425,0.0034,1.0205,0.0610,0.1831,-0.3052,5.0000,38.0000,60.0000,0,1,463,1004,440,0
33346252,931,-0.0425,0.0039,1.0215,0.0000,0.1831,-0.3052,5.0000,38.0000,60.0000,0,1,463,1166,423,0
33351255,932,-0.0425,0.0044,1.0220,0.0610,0.1831,-0.2441,5.0000,38.0000,60.0000,0,1,462,1098,397,0
33356282,933,-0.0430,0.0049,1.0220,0.0610,0.1831,-0.3052,5.0000,38.0000,60.0000,0,1,462,1166,397,0
33361250,934,-0.0435,0.0044,1.0215,0.0610,0.1831,-0.3052,5.0000,38.0000,60.0000,0,1,463,1163,396,0
33366252,935,-0.0430,0.0049,1.0205,0.0000,0.2441,-0.3052,5.0000,38.0000,60.0000,0,1,507,1171,396,0
33371252,936,-0.0420,0.0054,1.0195,0.0610,0.3662,-0.1831,6.0000,41.0000,64.0000,1,1,492,1111,397,0
33376250,937,-0.0420,0.0049,1.0186,0.0000,0.3052,-0.3052,6.0000,41.0000,64.0000,0,1,508,1168,782,0
33381251,938,-0.0425,0.0039,1.0195,0.0610,0.3052,-0.2441,6.0000,41.0000,64.0000,0,1,475,1111,397,0
33386256,939,-0.0430,0.0054,1.0210,0.0000,0.3662,-0.2441,6.0000,41.0000,64.0000,0,1,481,1165,397,0
33391252,940,-0.0425,0.0054,1.0229,0.0610,0.2441,-0.3052,6.0000,41.0000,64.0000,0,1,507,1120,397,0
33396251,941,-0.0425,0.0049,1.0239,0.0000,0.2441,-0.2441,6.0000,41.0000,64.0000,0,1,496,1163,396,0
33401250,942,-0.0425,0.0054,1.0220,0.0000,0.3052,-0.2441,6.0000,41.0000,64.0000,0,1,488,1123,397,0
33406248,943,-0.0425,0.0059,1.0205,0.0000,0.3052,-0.2441,6.0000,41.0000,64.0000,0,1,486,1115,397,0
33411255,944,-0.0430,0.0063,1.0210,0.1221,0.3052,-0.3052,6.0000,41.0000,64.0000,0,1,507,1115,396,0
33416255,945,-0.0430,0.0054,1.0210,0.1221,0.2441,-0.2441,6.0000,41.0000,64.0000,0,1,462,1153,440,0
33421248,946,-0.0430,0.0044,1.0195,0.0610,0.2441,-0.1831,6.0000,41.0000,64.0000,0,1,463,1162,425,0
33426256,947,-0.0435,0.0039,1.0195,0.1221,0.1831,-0.1221,6.0000,41.0000,64.0000,0,1,462,1168,414,0
33431256,948,-0.0435,0.0049,1.0205,0.1221,0.1831,-0.1831,6.0000,41.0000,64.0000,0,1,463,1163,421,0
33436249,949,-0.0430,0.0059,1.0215,0.0610,0.3052,-0.2441,6.0000,41.0000,64.0000,0,1,463,1165,440,0
33441254,950,-0.0430,0.0059,1.0215,0.0000,0.1831,-0.1831,6.0000,41.0000,64.0000,0,1,463,1148,422,0
33446256,951,-0.0435,0.0044,1.0210,0.0610,0.2441,-0.2441,6.0000,41.0000,64.0000,0,1,463,1021,440,0
33451257,952,-0.0430,0.0034,1.0195,0.1221,0.3662,-0.2441,6.0000,41.0000,64.0000,0,1,463,1173,422,0
33456252,953,-0.0425,0.0039,1.0190,0.0000,0.2441,-0.2441,6.0000,41.0000,64.0000,0,1,463,1222,396,0
33461248,954,-0.0415,0.0049,1.0215,-0.0610,0.3662,-0.2441,6.0000,41.0000,64.0000,0,1,463,1163,396,0
33466248,955,-0.0420,0.0059,1.0229,0.0610,0.3052,-0.3052,6.0000,41.0000,64.0000,0,1,489,1186,397,0
33471254,956,-0.0425,0.0049,1.0225,0.1221,0.2441,-0.2441,6.0000,38.0000,63.0000,1,1,482,1200,396,0
33476252,957,-0.0435,0.0034,1.0220,0.0610,0.1831,-0.2441,6.0000,38.0000,63.0000,0,1,488,1173,787,0
33481250,958,-0.0435,0.0044,1.0210,0.0000,0.3052,-0.2441,6.0000,38.0000,63.0000,0,1,508,1178,396,0
33486255,959,-0.0425,0.0059,1.0205,0.0000,0.3052,-0.1831,6.0000,38.0000,63.0000,0,1,495,1122,397,0
33491255,960,-0.0420,0.0059,1.0215,0.1221,0.1831,-0.1831,6.0000,38.0000,63.0000,0,1,499,1124,396,0
33496256,961,-0.0420,0.0054,1.0220,0.0000,0.2441,-0.2441,6.0000,38.0000,63.0000,0,1,490,1171,396,0
33501250,962,-0.0425,0.0044,1.0225,0.0610,0.2441,-0.1221,6.0000,38.0000,63.0000,0,1,476,1130,396,0
33506250,963,-0.0430,0.0039,1.0215,0.1221,0.1221,-0.2441,6.0000,38.0000,63.0000,0,1,509,1170,396,0
33511254,964,-0.0430,0.0034,1.0215,0.0610,0.2441,-0.2441,6.0000,38.0000,63.0000,0,1,506,1170,395,0
33516248,965,-0.0425,0.0039,1.0215,0.0610,0.3052,-0.1831,6.0000,38.0000,63.0000,0,1,480,1176,395,0
33521254,966,-0.0430,0.0039,1.0210,0.0000,0.2441,-0.3052,6.0000,38.0000,63.0000,0,1,463,1170,410,0
33526252,967,-0.0439,0.0039,1.0210,0.1221,0.2441,-0.2441,6.0000,38.0000,63.0000,0,1,463,1124,439,0
33531251,968,-0.0435,0.0044,1.0215,0.1221,0.2441,-0.1831,6.0000,38.0000,63.0000,0,1,463,1175,417,0
33536250,969,-0.0430,0.0054,1.0215,0.0000,0.3052,-0.2441,6.0000,38.0000,63.0000,0,1,463,1171,440,0
33541257,970,-0.0425,0.0054,1.0205,0.1221,0.1831,-0.1831,6.0000,38.0000,63.0000,0,1,463,1012,397,0
33546250,971,-0.0435,0.0054,1.0200,0.1831,0.3052,-0.2441,6.0000,38.0000,63.0000,0,1,463,1170,435,0
33551250,972,-0.0439,0.0054,1.0210,0.0610,0.2441,-0.3052,6.0000,38.0000,63.0000,0,1,463,1075,404,0
33556255,973,-0.0435,0.0054,1.0229,0.0000,0.1221,-0.3052,6.0000,38.0000,63.0000,0,1,463,1150,412,0
33561262,974,-0.0425,0.0049,1.0229,0.1221,0.1831,-0.1221,6.0000,38.0000,63.0000,0,1,463,1129,396,0
33566265,975,-0.0425,0.0044,1.0225,0.0000,0.2441,-0.1831,6.0000,38.0000,63.0000,0,1,463,1180,396,0
33571254,976,-0.0425,0.0049,1.0229,-0.0610,0.1831,-0.1831,5.0000,39.0000,66.0000,1,1,490,1118,396,0
33576255,977,-0.0420,0.0049,1.0225,0.0000,0.1831,-0.1831,5.0000,39.0000,66.0000,0,1,507,1170,772,0
33581250,978,-0.0425,0.0039,1.0210,0.0000,0.2441,-0.1221,5.0000,39.0000,66.0000,0,1,501,1126,397,0
33586252,979,-0.0430,0.0034,1.0195,0.0610,0.1831,-0.1221,5.0000,39.0000,66.0000,0,1,475,1121,396,0
33591249,980,-0.0430,0.0024,1.0195,0.0000,0.3052,-0.3052,5.0000,39.0000,66.0000,0,1,485,1170,397,0
33596255,981,-0.0430,0.0029,1.0205,0.0610,0.2441,-0.2441,5.0000,39.0000,66.0000,0,1,498,1121,397,0
33601256,982,-0.0435,0.0044,1.0215,0.0610,0.2441,-0.1831,5.0000,39.0000,66.0000,0,1,498,1172,397,0
33606250,983,-0.0439,0.0049,1.0215,0.0610,0.1831,-0.2441,5.0000,39.0000,66.0000,0,1,486,1169,396,0
33611255,984,-0.0439,0.0034,1.0210,-0.0610,0.1831,-0.3052,5.0000,39.0000,66.0000,0,1,491,1173,397,0
33616249,985,-0.0435,0.0029,1.0205,0.0000,0.1831,-0.1831,5.0000,39.0000,66.0000,0,1,508,1167,395,0
33621249,986,-0.0439,0.0039,1.0200,0.0610,0.3662,-0.3052,5.0000,39.0000,66.0000,0,1,462,1126,423,0
33626248,987,-0.0435,0.0044,1.0205,0.0610,0.3052,-0.3052,5.0000,39.0000,66.0000,0,1,463,1168,415,0
33631254,988,-0.0420,0.0039,1.0210,0.0610,0.1221,-0.2441,5.0000,39.0000,66.0000,0,1,463,1158,441,0
33636255,989,-0.0415,0.0039,1.0210,0.1221,0.3662,-0.1221,5.0000,39.0000,66.0000,0,1,463,1165,420,0
33641249,990,-0.0420,0.0044,1.0210,0.1831,0.3662,-0.1221,5.0000,39.0000,66.0000,0,1,462,1165,442,0
33646252,991,-0.0439,0.0044,1.0205,0.0000,0.0610,-0.1831,5.0000,39.0000,66.0000,0,1,462,1164,404,0
33651251,992,-0.0439,0.0044,1.0210,0.0000,0.1831,-0.2441,5.0000,39.0000,66.0000,0,1,463,1013,437,0
33656254,993,-0.0435,0.0049,1.0220,0.0000,0.3662,-0.2441,5.0000,39.0000,66.0000,0,1,463,1157,412,0
33661253,994,-0.0435,0.0039,1.0229,-0.0610,0.3052,-0.2441,5.0000,39.0000,66.0000,0,1,463,1086,414,0
33666273,995,-0.0439,0.0039,1.0234,0.0610,0.2441,-0.1831,5.0000,39.0000,66.0000,0,1,463,1178,396,0
33671255,996,-0.0435,0.0054,1.0220,0.0610,0.3052,-0.2441,8.0000,37.0000,63.0000,1,1,463,1185,396,0
33676251,997,-0.0439,0.0054,1.0200,0.0000,0.1831,-0.1831,8.0000,37.0000,63.0000,0,1,463,1165,811,0
33681253,998,-0.0430,0.0044,1.0195,0.1221,0.2441,-0.2441,8.0000,37.0000,63.0000,0,1,467,1129,396,0
33686253,999,-0.0415,0.0049,1.0210,0.0610,0.2441,-0.2441,8.0000,37.0000,63.0000,0,1,508,1173,396,0
33691248,1000,-0.0410,0.0049,1.0215,-0.0610,0.1831,-0.3052,8.0000,37.0000,63.0000,0,1,482,1172,396,0
33696252,1001,-0.0420,0.0049,1.0220,-0.0610,0.1831,-0.2441,8.0000,37.0000,63.0000,0,1,496,1169,396,0
33701256,1002,-0.0430,0.0049,1.0215,0.0610,0.3052,-0.2441,8.0000,37.0000,63.0000,0,1,501,1172,397,0
33706256,1003,-0.0425,0.0049,1.0205,0.0610,0.2441,-0.3052,8.0000,37.0000,63.0000,0,1,504,1166,396,0
33711251,1004,-0.0410,0.0044,1.0210,-0.0610,0.1831,-0.2441,8.0000,37.0000,63.0000,0,1,505,1167,396,0
33716255,1005,-0.0405,0.0039,1.0220,-0.0610,0.3052,-0.2441,8.0000,37.0000,63.0000,0,1,493,1171,396,0
33721250,1006,-0.0420,0.0039,1.0210,0.1221,0.3662,-0.3052,8.0000,37.0000,63.0000,0,1,506,1170,395,0
33726250,1007,-0.0444,0.0044,1.0215,0.0000,0.3662,-0.2441,8.0000,37.0000,63.0000,0,1,463,1164,422,0
33731248,1008,-0.0454,0.0049,1.0215,-0.0610,0.2441,-0.2441,8.0000,37.0000,63.0000,0,1,463,1129,416,0
33736250,1009,-0.0435,0.0044,1.0195,0.0000,0.2441,-0.1221,8.0000,37.0000,63.0000,0,1,462,1173,441,0
33741257,1010,-0.0420,0.0049,1.0181,0.0000,0.1221,-0.1831,8.0000,37.0000,63.0000,0,1,463,1124,401,0
33746251,1011,-0.0410,0.0063,1.0195,-0.1831,0.1831,-0.2441,8.0000,37.0000,63.0000,0,1,463,1120,440,0
33751252,1012,-0.0420,0.0063,1.0210,0.0000,0.2441,-0.0610,8.0000,37.0000,63.0000,0,1,463,1181,405,0
33756255,1013,-0.0435,0.0059,1.0220,0.1831,0.2441,-0.1221,8.0000,37.0000,63.0000,0,1,463,1013,441,0
33761252,1014,-0.0439,0.0049,1.0220,0.0000,0.1831,-0.2441,8.0000,37.0000,63.0000,0,1,463,1090,413,0
33766256,1015,-0.0435,0.0034,1.0210,0.0610,0.3052,-0.1831,8.0000,37.0000,63.0000,0,1,462,1117,414,0
33771283,1016,-0.0435,0.0034,1.0200,0.1221,0.3052,-0.2441,5.0000,38.0000,60.0000,1,1,463,1177,396,0
33776253,1017,-0.0425,0.0039,1.0205,0.0610,0.1831,-0.1831,5.0000,38.0000,60.0000,0,1,463,1154,793,0
33781248,1018,-0.0420,0.0054,1.0220,0.0000,0.1221,-0.2441,5.0000,38.0000,60.0000,0,1,463,1202,396,0
33786255,1019,-0.0420,0.0063,1.0220,0.0000,0.1221,-0.3052,5.0000,38.0000,60.0000,0,1,473,1110,396,0
33791248,1020,-0.0420,0.0049,1.0210,0.0610,0.1831,-0.2441,5.0000,38.0000,60.0000,0,1,508,1108,396,0
33796249,1021,-0.0425,0.0034,1.0205,-0.0610,0.3662,-0.1221,5.0000,38.0000,60.0000,0,1,473,1159,396,0
33801250,1022,-0.0425,0.0034,1.0205,-0.0610,0.3662,-0.1221,5.0000,38.0000,60.0000,0,1,502,1159,397,0
33806253,1023,-0.0425,0.0049,1.0195,0.0610,0.3662,-0.1831,5.0000,38.0000,60.0000,0,1,486,1158,397,0
33811255,1024,-0.0435,0.0054,1.0205,0.1831,0.1221,-0.1831,5.0000,38.0000,60.0000,0,1,491,1162,397,0
33816248,1025,-0.0435,0.0049,1.0215,0.1221,0.1831,-0.2441,5.0000,38.0000,60.0000,0,1,494,1159,397,0
33821253,1026,-0.0420,0.0039,1.0220,0.0610,0.3052,-0.2441,5.0000,38.0000,60.0000,0,1,508,1158,397,0
33826255,1027,-0.0415,0.0029,1.0215,0.0610,0.1831,-0.2441,5.0000,38.0000,60.0000,0,1,508,1156,395,0
33831253,1028,-0.0415,0.0034,1.0200,0.0610,0.2441,-0.2441,5.0000,38.0000,60.0000,0,1,463,1163,439,0
33836248,1029,-0.0425,0.0039,1.0186,0.1221,0.3052,-0.2441,5.0000,38.0000,60.0000,0,1,463,1164,425,0
33841248,1030,-0.0425,0.0034,1.0200,0.0610,0.1831,-0.2441,5.0000,38.0000,60.0000,0,1,463,1153,440,0
33846248,1031,-0.0430,0.0034,1.0215,0.0610,0.2441,-0.1221,5.0000,38.0000,60.0000,0,1,463,1161,415,0
33851251,1032,-0.0430,0.0044,1.0220,0.0610,0.3052,-0.2441,5.0000,38.0000,60.0000,0,1,463,1157,440,0
33856251,1033,-0.0430,0.0049,1.0210,0.0000,0.3662,-0.2441,5.0000,38.0000,60.0000,0,1,463,1144,422,0
33861248,1034,-0.0435,0.0039,1.0200,0.1221,0.2441,-0.1831,5.0000,38.0000,60.0000,0,1,463,1026,440,0
33866253,1035,-0.0449,0.0034,1.0205,0.0610,0.1831,-0.3662,5.0000,38.0000,60.0000,0,1,463,1156,424,0
33871256,1036,-0.0444,0.0034,1.0200,0.0000,0.2441,-0.3052,6.0000,39.0000,65.0000,1,1,463,1193,396,0
33876268,1037,-0.0425,0.0044,1.0200,0.0610,0.3052,-0.1221,6.0000,39.0000,65.0000,0,1,463,1106,783,0
33881251,1038,-0.0420,0.0044,1.0215,0.0610,0.2441,-0.2441,6.0000,39.0000,65.0000,0,1,462,1159,397,0
33886250,1039,-0.0430,0.0044,1.0220,0.0610,0.2441,-0.3052,6.0000,39.0000,65.0000,0,1,505,1141,397,0
33891256,1040,-0.0430,0.0039,1.0215,0.1831,0.0610,-0.1831,6.0000,39.0000,65.0000,0,1,480,1148,396,0
33896250,1041,-0.0415,0.0039,1.0205,0.1221,0.1221,-0.1831,6.0000,39.0000,65.0000,0,1,508,1154,397,0
33901249,1042,-0.0415,0.0029,1.0205,-0.0610,0.0610,-0.1831,6.0000,39.0000,65.0000,0,1,480,1151,397,0
33906252,1043,-0.0425,0.0029,1.0205,0.0610,0.3052,-0.1221,6.0000,39.0000,65.0000,0,1,489,1154,397,0
33911248,1044,-0.0425,0.0044,1.0210,0.0610,0.3052,-0.1831,6.0000,39.0000,65.0000,0,1,494,1143,396,0
33916254,1045,-0.0425,0.0059,1.0225,-0.0610,0.2441,-0.1831,6.0000,39.0000,65.0000,0,1,500,1146,397,0
33921251,1046,-0.0425,0.0063,1.0220,0.0610,0.3052,-0.1221,6.0000,39.0000,65.0000,0,1,497,1150,397,0
33926254,1047,-0.0430,0.0044,1.0210,0.1221,0.2441,-0.1831,6.0000,39.0000,65.0000,0,1,481,1144,396,0
33931249,1048,-0.0435,0.0039,1.0205,0.0000,0.3052,-0.1221,6.0000,39.0000,65.0000,0,1,507,1149,395,0
33936252,1049,-0.0425,0.0049,1.0215,0.0610,0.3052,-0.1831,6.0000,39.0000,65.0000,0,1,462,1100,440,0
33941252,1050,-0.0410,0.0059,1.0225,0.0610,0.2441,-0.1831,6.0000,39.0000,65.0000,0,1,463,1145,411,0
33946248,1051,-0.0405,0.0059,1.0215,0.0000,0.1831,-0.1831,6.0000,39.0000,65.0000,0,1,463,1149,440,0
33951251,1052,-0.0410,0.0039,1.0200,0.0000,0.2441,-0.1831,6.0000,39.0000,65.0000,0,1,462,1106,415,0
33956254,1053,-0.0425,0.0024,1.0195,0.0610,0.2441,-0.2441,6.0000,39.0000,65.0000,0,1,463,1110,440,0
33961248,1054,-0.0435,0.0024,1.0200,0.1221,0.3052,-0.3052,6.0000,39.0000,65.0000,0,1,463,1156,413,0
33966256,1055,-0.0435,0.0044,1.0205,-0.0610,0.3052,-0.1831,6.0000,39.0000,65.0000,0,1,463,1133,441,0
33971249,1056,-0.0425,0.0054,1.0220,-0.0610,0.1831,-0.2441,6.0000,39.0000,65.0000,0,1,463,1145,413,0
33976250,1057,-0.0425,0.0044,1.0225,-0.0610,0.1831,-0.2441,6.0000,36.0000,59.0000,1,1,463,1163,441,0
33981248,1058,-0.0430,0.0034,1.0220,0.1221,0.3662,-0.1221,6.0000,36.0000,59.0000,0,1,463,1164,768,0
33986294,1059,-0.0425,0.0034,1.0205,0.0610,0.3662,-0.1221,6.0000,36.0000,59.0000,0,1,463,1177,396,0
33991251,1060,-0.0420,0.0034,1.0190,0.0610,0.2441,-0.3662,6.0000,36.0000,59.0000,0,1,463,1180,396,0
33996256,1061,-0.0420,0.0029,1.0186,0.1221,0.3052,-0.3662,6.0000,36.0000,59.0000,0,1,507,1156,396,0
34001256,1062,-0.0425,0.0034,1.0195,0.0000,0.1831,-0.2441,6.0000,36.0000,59.0000,0,1,492,1159,396,0
34006249,1063,-0.0435,0.0044,1.0205,0.0610,0.3662,-0.1221,6.0000,36.0000,59.0000,0,1,481,1126,396,0
34011252,1064,-0.0435,0.0049,1.0215,0.0000,0.2441,-0.1831,6.0000,36.0000,59.0000,0,1,503,1160,397,0
34016248,1065,-0.0444,0.0044,1.0215,0.0000,0.2441,-0.1831,6.0000,36.0000,59.0000,0,1,499,1118,397,0
34021255,1066,-0.0454,0.0044,1.0210,0.0610,0.2441,-0.2441,6.0000,36.0000,59.0000,0,1,506,1123,397,0
34026253,1067,-0.0444,0.0049,1.0210,0.0610,0.2441,-0.1831,6.0000,36.0000,59.0000,0,1,500,1166,397,0
34031255,1068,-0.0430,0.0054,1.0215,0.1221,0.0610,-0.2441,6.0000,36.0000,59.0000,0,1,488,1166,397,0
34036251,1069,-0.0420,0.0049,1.0215,0.0000,0.2441,-0.2441,6.0000,36.0000,59.0000,0,1,487,1158,396,0
34041253,1070,-0.0415,0.0049,1.0210,0.0000,0.3662,-0.1831,6.0000,36.0000,59.0000,0,1,508,1118,395,0
34046255,1071,-0.0425,0.0049,1.0210,0.0610,0.3052,-0.3052,6.0000,36.0000,59.0000,0,1,463,1118,440,0
34051253,1072,-0.0439,0.0044,1.0210,0.0610,0.2441,-0.3662,6.0000,36.0000,59.0000,0,1,463,1150,404,0
34056255,1073,-0.0444,0.0049,1.0215,0.0610,0.2441,-0.2441,6.0000,36.0000,59.0000,0,1,462,1164,441,0
34061248,1074,-0.0435,0.0044,1.0215,0.0610,0.2441,-0.2441,6.0000,36.0000,59.0000,0,1,463,1165,403,0
34066248,1075,-0.0430,0.0034,1.0210,0.1221,0.1831,-0.2441,6.0000,36.0000,59.0000,0,1,463,1164,440,0
34071249,1076,-0.0425,0.0029,1.0210,0.0610,0.1831,-0.1831,6.0000,36.0000,59.0000,0,1,462,1162,414,0
34076255,1077,-0.0425,0.0020,1.0210,0.0610,0.1831,-0.1831,3.0000,39.0000,65.0000,1,1,463,1152,439,0
34081256,1078,-0.0430,0.0029,1.0200,0.1831,0.3052,-0.1831,3.0000,39.0000,65.0000,0,1,463,1149,766,0
34086249,1079,-0.0435,0.0049,1.0190,0.1831,0.2441,-0.2441,3.0000,39.0000,65.0000,0,1,463,1161,436,0
34091253,1080,-0.0430,0.0054,1.0181,0.0610,0.2441,-0.1831,3.0000,39.0000,65.0000,0,1,463,1164,396,0
34096288,1081,-0.0420,0.0044,1.0186,0.1221,0.2441,-0.2441,3.0000,39.0000,65.0000,0,1,463,1167,396,0
34101254,1082,-0.0415,0.0039,1.0186,0.1221,0.4272,-0.2441,3.0000,39.0000,65.0000,0,1,463,1170,396,0
34106248,1083,-0.0420,0.0034,1.0200,0.1221,0.2441,-0.1831,3.0000,39.0000,65.0000,0,1,507,1144,396,0
34111256,1084,-0.0420,0.0039,1.0220,0.0610,0.1221,-0.1831,3.0000,39.0000,65.0000,0,1,495,1154,396,0
34116254,1085,-0.0420,0.0039,1.0220,0.0000,0.2441,-0.1831,3.0000,39.0000,65.0000,0,1,508,1150,397,0
34121250,1086,-0.0425,0.0044,1.0215,0.2441,0.3052,-0.1831,3.0000,39.0000,65.0000,0,1,499,1110,398,0
34126253,1087,-0.0435,0.0049,1.0215,0.0000,0.1831,-0.1831,3.0000,39.0000,65.0000,0,1,503,1152,396,0
34131250,1088,-0.0435,0.0054,1.0220,-0.0610,0.1221,-0.3052,3.0000,39.0000,65.0000,0,1,485,1107,396,0
34136253,1089,-0.0425,0.0063,1.0220,0.0610,0.3052,-0.2441,3.0000,39.0000,65.0000,0,1,492,1143,397,0
34141251,1090,-0.0420,0.0059,1.0205,0.0000,0.3052,-0.1831,3.0000,39.0000,65.0000,0,1,498,1151,397,0
34146254,1091,-0.0425,0.0054,1.0181,0.0610,0.2441,-0.2441,3.0000,39.0000,65.0000,0,1,486,1101,396,0
34151249,1092,-0.0425,0.0054,1.0161,0.1221,0.3052,-0.2441,3.0000,39.0000,65.0000,0,1,507,1150,396,0
34156251,1093,-0.0425,0.0049,1.0190,0.0610,0.1221,-0.2441,3.0000,39.0000,65.0000,0,1,462,1146,440,0
34161252,1094,-0.0425,0.0044,1.0210,0.2441,0.1831,-0.2441,3.0000,39.0000,65.0000,0,1,463,1147,411,0
34166253,1095,-0.0430,0.0049,1.0229,0.1831,0.2441,-0.1221,3.0000,39.0000,65.0000,0,1,463,1153,440,0
34171249,1096,-0.0430,0.0049,1.0229,0.1221,0.3052,-0.1221,3.0000,39.0000,65.0000,0,1,463,1151,410,0
34176256,1097,-0.0435,0.0044,1.0225,0.1221,0.3662,-0.1831,6.0000,40.0000,65.0000,1,1,463,1142,440,0
34181257,1098,-0.0439,0.0044,1.0225,0.1221,0.2441,-0.2441,6.0000,40.0000,65.0000,0,1,463,1140,766,0
34186250,1099,-0.0435,0.0039,1.0215,0.0000,0.1831,-0.2441,6.0000,40.0000,65.0000,0,1,463,1133,435,0
34191253,1100,-0.0425,0.0034,1.0205,0.0000,0.2441,-0.2441,6.0000,40.0000,65.0000,0,1,463,1059,396,0
34196250,1101,-0.0410,0.0044,1.0195,0.0000,0.1831,-0.2441,6.0000,40.0000,65.0000,0,1,462,1061,435,0
34201254,1102,-0.0400,0.0054,1.0200,-0.0610,0.3052,-0.2441,6.0000,40.0000,65.0000,0,1,463,1117,397,0
34206259,1103,-0.0415,0.0054,1.0215,0.0000,0.3052,-0.3662,6.0000,40.0000,65.0000,0,1,463,1173,396,0
34211249,1104,-0.0420,0.0054,1.0210,0.0610,0.3052,-0.3662,6.0000,40.0000,65.0000,0,1,463,1066,396,0
34216249,1105,-0.0425,0.0059,1.0205,0.1221,0.2441,-0.1831,6.0000,40.0000,65.0000,0,1,507,1106,397,0
34221252,1106,-0.0430,0.0059,1.0215,0.0610,0.1221,-0.1831,6.0000,40.0000,65.0000,0,1,485,1139,397,0
34226253,1107,-0.0435,0.0049,1.0225,0.0610,0.1221,-0.2441,6.0000,40.0000,65.0000,0,1,509,1134,396,0
34231249,1108,-0.0435,0.0044,1.0225,0.1221,0.1831,-0.3052,6.0000,40.0000,65.0000,0,1,492,1137,396,0
34236250,1109,-0.0425,0.0054,1.0215,0.0610,0.1831,-0.1831,6.0000,40.0000,65.0000,0,1,478,1135,396,0
34241253,1110,-0.0415,0.0059,1.0195,-0.0610,0.3662,-0.2441,6.0000,40.0000,65.0000,0,1,485,1141,397,0
34246251,1111,-0.0405,0.0054,1.0195,-0.0610,0.3052,-0.3662,6.0000,40.0000,65.0000,0,1,495,1145,397,0
34251248,1112,-0.0405,0.0049,1.0195,0.0610,0.1831,-0.2441,6.0000,40.0000,65.0000,0,1,500,1139,396,0
34256254,1113,-0.0415,0.0049,1.0195,0.1221,0.1831,-0.1831,6.0000,40.0000,65.0000,0,1,503,1145,398,0
34261254,1114,-0.0430,0.0049,1.0210,0.1221,0.2441,-0.1221,6.0000,40.0000,65.0000,0,1,507,1144,395,0
34266250,1115,-0.0439,0.0044,1.0225,0.0610,0.2441,-0.2441,6.0000,40.0000,65.0000,0,1,463,1132,422,0
34271248,1116,-0.0430,0.0039,1.0234,0.0000,0.1221,-0.3052,6.0000,40.0000,65.0000,0,1,463,1142,412,0
34276253,1117,-0.0415,0.0054,1.0225,0.1221,0.1831,-0.0610,7.0000,39.0000,63.0000,1,1,463,1091,442,0
34281251,1118,-0.0410,0.0063,1.0210,0.1221,0.3052,-0.2441,7.0000,39.0000,63.0000,0,1,463,1168,764,0
34286253,1119,-0.0420,0.0059,1.0215,0.0000,0.2441,-0.2441,7.0000,39.0000,63.0000,0,1,463,1164,442,0
34291252,1120,-0.0425,0.0049,1.0220,0.0610,0.0610,-0.2441,7.0000,39.0000,63.0000,0,1,463,1006,397,0
34296256,1121,-0.0420,0.0044,1.0215,0.0000,0.3052,-0.3662,7.0000,39.0000,63.0000,0,1,463,1164,443,0
34301252,1122,-0.0425,0.0044,1.0200,0.0000,0.2441,-0.2441,7.0000,39.0000,63.0000,0,1,462,1129,415,0
34306253,1123,-0.0425,0.0049,1.0181,0.0610,0.2441,-0.1831,7.0000,39.0000,63.0000,0,1,463,1171,434,0
34311252,1124,-0.0420,0.0049,1.0181,0.0610,0.1831,-0.1831,7.0000,39.0000,63.0000,0,1,463,1253,396,0
34316286,1125,-0.0425,0.0054,1.0195,0.1221,0.1831,-0.2441,7.0000,39.0000,63.0000,0,1,463,1176,396,0
34321253,1126,-0.0435,0.0059,1.0220,-0.0610,0.1221,-0.3052,7.0000,39.0000,63.0000,0,1,463,1180,396,0
34326248,1127,-0.0435,0.0054,1.0229,-0.0610,0.2441,-0.3662,7.0000,39.0000,63.0000,0,1,507,1146,396,0
34331251,1128,-0.0430,0.0044,1.0220,0.0610,0.3662,-0.2441,7.0000,39.0000,63.0000,0,1,489,1173,396,0
34336250,1129,-0.0430,0.0049,1.0210,0.1221,0.2441,-0.1221,7.0000,39.0000,63.0000,0,1,508,1171,396,0
34341249,1130,-0.0430,0.0054,1.0205,0.1221,0.2441,-0.1831,7.0000,39.0000,63.0000,0,1,479,1161,397,0
34346250,1131,-0.0430,0.0054,1.0210,0.0610,0.3052,-0.1831,7.0000,39.0000,63.0000,0,1,491,1170,396,0
34351256,1132,-0.0425,0.0049,1.0210,0.0610,0.1221,-0.2441,7.0000,39.0000,63.0000,0,1,495,1162,396,0
34356251,1133,-0.0420,0.0039,1.0205,0.0000,0.1831,-0.1831,7.0000,39.0000,63.0000,0,1,492,1164,396,0
34361249,1134,-0.0425,0.0034,1.0195,0.0610,0.2441,-0.1831,7.0000,39.0000,63.0000,0,1,501,1129,396,0
34366249,1135,-0.0430,0.0039,1.0195,0.1221,0.3052,-0.2441,7.0000,39.0000,63.0000,0,1,503,1176,396,0
34371253,1136,-0.0425,0.0044,1.0200,0.0610,0.2441,-0.3052,7.0000,39.0000,63.0000,0,1,507,1167,395,0
34376253,1137,-0.0425,0.0034,1.0220,-0.0610,0.3662,-0.3052,6.0000,37.0000,64.0000,1,1,463,1164,395,0
34381255,1138,-0.0435,0.0020,1.0220,-0.0610,0.3052,-0.3052,6.0000,37.0000,64.0000,0,1,463,1161,766,0
34386256,1139,-0.0435,0.0034,1.0215,0.1221,0.2441,-0.2441,6.0000,37.0000,64.0000,0,1,463,1152,443,0
34391250,1140,-0.0430,0.0049,1.0215,0.0610,0.2441,-0.1831,6.0000,37.0000,64.0000,0,1,462,1163,396,0
34396248,1141,-0.0430,0.0049,1.0215,0.0610,0.3052,-0.1221,6.0000,37.0000,64.0000,0,1,462,1161,440,0
34401251,1142,-0.0425,0.0039,1.0200,0.1221,0.1831,-0.2441,6.0000,37.0000,64.0000,0,1,462,1142,397,0
34406249,1143,-0.0415,0.0039,1.0195,0.1831,0.2441,-0.2441,6.0000,37.0000,64.0000,0,1,463,1153,439,0
34411252,1144,-0.0415,0.0039,1.0200,0.1221,0.2441,-0.1831,6.0000,37.0000,64.0000,0,1,462,1077,395,0
34416257,1145,-0.0420,0.0034,1.0215,0.0610,0.2441,-0.1831,6.0000,37.0000,64.0000,0,1,463,1163,436,0
34421248,1146,-0.0420,0.0029,1.0225,0.0000,0.2441,-0.1831,6.0000,37.0000,64.0000,0,1,463,1255,396,0
34426290,1147,-0.0420,0.0039,1.0229,0.1221,0.3052,-0.1831,6.0000,37.0000,64.0000,0,1,463,1108,396,0
34431248,1148,-0.0420,0.0054,1.0229,0.0610,0.1831,-0.2441,6.0000,37.0000,64.0000,0,1,463,1180,396,0
34436257,1149,-0.0415,0.0059,1.0225,0.0610,0.2441,-0.3662,6.0000,37.0000,64.0000,0,1,465,1166,396,0
34441256,1150,-0.0410,0.0054,1.0220,0.1221,0.1831,-0.3662,6.0000,37.0000,64.0000,0,1,496,1163,397,0
34446248,1151,-0.0420,0.0054,1.0220,0.0000,0.3052,-0.2441,6.0000,37.0000,64.0000,0,1,507,1163,396,0
34451249,1152,-0.0430,0.0059,1.0210,0.0000,0.3052,-0.1831,6.0000,37.0000,64.0000,0,1,491,1115,396,0
34456255,1153,-0.0430,0.0049,1.0200,0.0000,0.3662,-0.3052,6.0000,37.0000,64.0000,0,1,492,1110,396,0
34461253,1154,-0.0444,0.0044,1.0200,0.0000,0.3662,-0.2441,6.0000,37.0000,64.0000,0,1,508,1113,396,0
34466254,1155,-0.0454,0.0044,1.0200,0.0610,0.3662,-0.3052,6.0000,37.0000,64.0000,0,1,493,1121,397,0
34471250,1156,-0.0439,0.0054,1.0210,0.0610,0.2441,-0.2441,6.0000,37.0000,64.0000,0,1,494,1160,397,0
34476257,1157,-0.0420,0.0059,1.0225,-0.0610,0.2441,-0.2441,7.0000,41.0000,62.0000,1,1,496,1164,395,0
34481252,1158,-0.0415,0.0054,1.0225,0.0000,0.3052,-0.3052,7.0000,41.0000,62.0000,0,1,507,1169,764,0
34486251,1159,-0.0420,0.0044,1.0205,0.0610,0.3052,-0.3052,7.0000,41.0000,62.0000,0,1,462,1116,441,0
34491252,1160,-0.0425,0.0034,1.0190,0.0610,0.2441,-0.1831,7.0000,41.0000,62.0000,0,1,462,1158,428,0
34496250,1161,-0.0430,0.0049,1.0195,0.0610,0.3052,-0.2441,7.0000,41.0000,62.0000,0,1,463,1171,441,0
34501248,1162,-0.0430,0.0054,1.0195,0.1221,0.4272,-0.2441,7.0000,41.0000,62.0000,0,1,463,1164,426,0
34506253,1163,-0.0425,0.0054,1.0195,-0.0610,0.3052,-0.2441,7.0000,41.0000,62.0000,0,1,463,1168,440,0
34511251,1164,-0.0420,0.0049,1.0205,0.0000,0.1221,-0.3052,7.0000,41.0000,62.0000,0,1,463,1156,418,0
34516248,1165,-0.0420,0.0049,1.0210,0.1221,0.2441,-0.1831,7.0000,41.0000,62.0000,0,1,462,1018,440,0
34521256,1166,-0.0425,0.0049,1.0220,0.0610,0.3662,-0.1831,7.0000,41.0000,62.0000,0,1,463,1088,428,0
34526255,1167,-0.0430,0.0044,1.0225,0.0610,0.2441,-0.3052,7.0000,41.0000,62.0000,0,1,463,1179,396,0
34531276,1168,-0.0430,0.0039,1.0215,0.1221,0.3052,-0.1831,7.0000,41.0000,62.0000,0,1,462,1171,396,0
34536254,1169,-0.0430,0.0034,1.0200,0.0000,0.2441,-0.2441,7.0000,41.0000,62.0000,0,1,462,1181,396,0
34541256,1170,-0.0425,0.0039,1.0200,0.1221,0.3052,-0.1831,7.0000,41.0000,62.0000,0,1,507,1098,396,0
34546252,1171,-0.0435,0.0054,1.0210,0.0610,0.3662,-0.1221,7.0000,41.0000,62.0000,0,1,482,1164,397,0
34551252,1172,-0.0444,0.0063,1.0205,0.0000,0.3052,-0.1831,7.0000,41.0000,62.0000,0,1,508,1163,396,0
34556254,1173,-0.0430,0.0059,1.0215,0.0000,0.3662,-0.2441,7.0000,41.0000,62.0000,0,1,491,1124,397,0
34561252,1174,-0.0415,0.0049,1.0225,0.0000,0.3052,-0.1831,7.0000,41.0000,62.0000,0,1,490,1121,397,0
34566254,1175,-0.0420,0.0039,1.0215,0.0610,0.3052,-0.1831,7.0000,41.0000,62.0000,0,1,493,1121,397,0
34571254,1176,-0.0430,0.0034,1.0205,0.1221,0.3052,-0.2441,7.0000,41.0000,62.0000,0,1,494,1166,397,0
34576253,1177,-0.0425,0.0039,1.0210,0.1221,0.0610,-0.2441,7.0000,39.0000,63.0000,1,1,475,1165,397,0
34581252,1178,-0.0425,0.0044,1.0215,-0.0610,0.0610,-0.3052,7.0000,39.0000,63.0000,0,1,492,1154,766,0
34586248,1179,-0.0430,0.0049,1.0220,-0.1221,0.2441,-0.1221,7.0000,39.0000,63.0000,0,1,507,1161,395,0
34591256,1180,-0.0439,0.0044,1.0205,0.0000,0.2441,-0.2441,7.0000,39.0000,63.0000,0,1,463,1164,440,0
34596255,1181,-0.0435,0.0034,1.0195,0.1831,0.2441,-0.1831,7.0000,39.0000,63.0000,0,1,463,1129,398,0
34601250,1182,-0.0415,0.0039,1.0200,0.1221,0.0610,-0.2441,7.0000,39.0000,63.0000,0,1,462,1177,439,0
34606254,1183,-0.0410,0.0054,1.0210,0.0610,0.1831,-0.3052,7.0000,39.0000,63.0000,0,1,463,1169,401,0
34611257,1184,-0.0410,0.0059,1.0220,-0.0610,0.3052,-0.2441,7.0000,39.0000,63.0000,0,1,462,1163,433,0
34616257,1185,-0.0420,0.0059,1.0220,0.0610,0.1831,-0.1221,7.0000,39.0000,63.0000,0,1,463,1164,440,0
34621253,1186,-0.0425,0.0054,1.0215,0.2441,0.1831,-0.1831,7.0000,39.0000,63.0000,0,1,463,1161,430,0
34626252,1187,-0.0425,0.0054,1.0215,0.0610,0.3662,-0.2441,7.0000,39.0000,63.0000,0,1,463,1162,440,0
34631250,1188,-0.0425,0.0063,1.0220,-0.0610,0.3052,-0.2441,7.0000,39.0000,63.0000,0,1,462,1083,432,0
34636254,1189,-0.0430,0.0063,1.0220,0.0000,0.1831,-0.3662,7.0000,39.0000,63.0000,0,1,463,1249,396,0
34641276,1190,-0.0430,0.0039,1.0215,0.1221,0.2441,-0.2441,7.0000,39.0000,63.0000,0,1,462,1144,397,0
34646252,1191,-0.0425,0.0034,1.0210,0.0000,0.2441,-0.1831,7.0000,39.0000,63.0000,0,1,463,1180,397,0
34651251,1192,-0.0430,0.0039,1.0205,0.0610,0.1831,-0.2441,7.0000,39.0000,63.0000,0,1,506,1097,396,0
34656251,1193,-0.0439,0.0044,1.0200,0.1831,0.3052,-0.2441,7.0000,39.0000,63.0000,0,1,478,1174,396,0
34661250,1194,-0.0435,0.0063,1.0190,0.0610,0.3052,-0.1831,7.0000,39.0000,63.0000,0,1,508,1171,397,0
34666256,1195,-0.0425,0.0063,1.0186,0.0000,0.2441,-0.3052,7.0000,39.0000,63.0000,0,1,489,1168,396,0
34671251,1196,-0.0420,0.0054,1.0195,0.1221,0.2441,-0.3662,7.0000,39.0000,63.0000,0,1,505,1123,396,0
34676253,1197,-0.0420,0.0044,1.0205,0.0610,0.2441,-0.3052,6.0000,40.0000,60.0000,1,1,508,1172,396,0
34681256,1198,-0.0430,0.0044,1.0210,0.0000,0.3052,-0.2441,6.0000,40.0000,60.0000,0,1,500,1141,765,0
34686254,1199,-0.0430,0.0044,1.0215,0.0610,0.2441,-0.3662,6.0000,40.0000,60.0000,0,1,503,1089,397,0
34691248,1200,-0.0435,0.0044,1.0210,0.0610,0.1221,-0.2441,6.0000,40.0000,60.0000,0,1,488,1139,396,0
34696255,1201,-0.0435,0.0044,1.0195,0.0000,0.1831,-0.1221,6.0000,40.0000,60.0000,0,1,508,1132,395,0
34701249,1202,-0.0425,0.0044,1.0181,0.0610,0.3052,-0.2441,6.0000,40.0000,60.0000,0,1,507,1092,395,0
34706250,1203,-0.0415,0.0044,1.0181,0.1221,0.1831,-0.2441,6.0000,40.0000,60.0000,0,1,463,1131,398,0
34711248,1204,-0.0410,0.0054,1.0186,0.0610,0.1831,-0.1831,6.0000,40.0000,60.0000,0,1,463,1136,428,0
34716251,1205,-0.0425,0.0059,1.0200,0.1221,0.2441,-0.1831,6.0000,40.0000,60.0000,0,1,462,1138,439,0
34721256,1206,-0.0435,0.0059,1.0205,0.0610,0.4272,-0.3052,6.0000,40.0000,60.0000,0,1,463,1135,436,0
34726252,1207,-0.0425,0.0054,1.0200,0.0610,0.2441,-0.2441,6.0000,40.0000,60.0000,0,1,463,1132,440,0
34731256,1208,-0.0415,0.0054,1.0195,0.0610,0.1831,-0.1831,6.0000,40.0000,60.0000,0,1,463,1129,440,0
34736256,1209,-0.0420,0.0044,1.0195,0.1221,0.1221,-0.1831,6.0000,40.0000,60.0000,0,1,463,1140,396,0
34741254,1210,-0.0425,0.0039,1.0200,-0.0610,0.2441,-0.1831,6.0000,40.0000,60.0000,0,1,463,1156,436,0
34746251,1211,-0.0420,0.0044,1.0205,0.0000,0.3052,-0.1831,6.0000,40.0000,60.0000,0,1,463,1147,396,0
34751281,1212,-0.0415,0.0044,1.0210,0.0610,0.3052,-0.1831,6.0000,40.0000,60.0000,0,1,463,1061,396,0
34756256,1213,-0.0425,0.0054,1.0215,0.1221,0.3052,-0.3052,6.0000,40.0000,60.0000,0,1,462,1123,397,0
34761249,1214,-0.0435,0.0054,1.0200,0.0610,0.2441,-0.3052,6.0000,40.0000,60.0000,0,1,506,1171,397,0
34766250,1215,-0.0430,0.0054,1.0200,0.0610,0.1221,-0.1221,6.0000,40.0000,60.0000,0,1,499,1134,396,0
34771250,1216,-0.0415,0.0049,1.0225,0.0000,0.1831,-0.2441,6.0000,40.0000,60.0000,0,1,464,1130,396,0
