t_us, seq, ax, ay, az, gx, gy, gz, mx, my, mz, valid_mag_reading, valid, t_imu_us, t_serial_us, last_t_mag, missed
29233295,10,-0.0156,0.0210,1.0225,0.0000,0.3052,-0.3052,33.0000,5.0000,2.0000,1,1,490,1176,399,0
29238286,11,-0.0151,0.0215,1.0234,-0.0610,0.4272,-0.3662,33.0000,5.0000,2.0000,0,1,463,1100,767,0
29243287,12,-0.0132,0.0215,1.0239,-0.1831,0.3662,-0.2441,33.0000,5.0000,2.0000,0,1,463,1198,423,0
29248286,13,-0.0132,0.0210,1.0229,-0.1221,0.4883,-0.3662,33.0000,5.0000,2.0000,0,1,480,1178,423,0
29253293,14,-0.0142,0.0215,1.0215,-0.1221,0.5493,-0.3662,33.0000,5.0000,2.0000,0,1,464,1152,419,0
29258294,15,-0.0137,0.0220,1.0225,-0.2441,0.5493,-0.2441,33.0000,5.0000,2.0000,0,1,481,1183,422,0
29263294,16,-0.0137,0.0229,1.0234,-0.2441,0.6714,-0.3052,33.0000,5.0000,2.0000,0,1,471,1159,426,0
29268288,17,-0.0166,0.0244,1.0220,-0.1831,0.5493,-0.4272,33.0000,5.0000,2.0000,0,1,479,1060,396,0
29273290,18,-0.0151,0.0210,1.0229,-0.4883,0.4272,-0.2441,33.0000,5.0000,2.0000,0,1,470,1068,396,0
29278301,19,-0.0137,0.0171,1.0234,-0.2441,0.9155,-0.1831,33.0000,5.0000,2.0000,0,1,474,1158,397,0
29283288,20,-0.0151,0.0190,1.0215,-0.2441,0.7324,-0.1831,33.0000,5.0000,2.0000,0,1,467,1159,397,0
29288291,21,-0.0156,0.0210,1.0215,-0.4883,0.6714,-0.2441,33.0000,5.0000,2.0000,0,1,465,1162,396,0
29293293,22,-0.0171,0.0215,1.0215,-0.4272,0.8545,-0.1831,33.0000,5.0000,2.0000,0,1,463,1154,395,0
29298294,23,-0.0181,0.0215,1.0205,-0.3662,0.7935,-0.2441,33.0000,5.0000,2.0000,0,1,491,1153,412,0
29303289,24,-0.0176,0.0181,1.0210,-0.4883,0.6104,-0.2441,33.0000,5.0000,2.0000,0,1,471,1154,407,0
29308292,25,-0.0166,0.0151,1.0210,-0.2441,0.7324,-0.2441,33.0000,5.0000,2.0000,0,1,489,1148,413,0
29313295,26,-0.0181,0.0166,1.0176,-0.0610,0.6104,-0.3662,33.0000,5.0000,2.0000,0,1,478,1163,408,0
29318292,27,-0.0181,0.0176,1.0181,-0.0610,0.4272,-0.1831,33.0000,5.0000,2.0000,0,1,480,1179,413,0
29323293,28,-0.0161,0.0186,1.0205,0.0000,0.5493,-0.2441,33.0000,5.0000,2.0000,0,1,472,1141,414,0
29328294,29,-0.0161,0.0195,1.0215,0.0610,0.3662,-0.1831,33.0000,5.0000,2.0000,0,1,479,1154,396,0
29333292,30,-0.0156,0.0195,1.0215,0.1221,0.4272,-0.1831,31.0000,4.0000,2.0000,1,1,491,1186,405,0
29338288,31,-0.0146,0.0190,1.0215,0.2441,0.4272,-0.2441,31.0000,4.0000,2.0000,0,1,462,1151,767,0
29343295,32,-0.0146,0.0186,1.0205,0.1221,0.4883,-0.1221,31.0000,4.0000,2.0000,0,1,463,1194,423,0
29348292,33,-0.0156,0.0195,1.0200,0.2441,0.4883,-0.2441,31.0000,4.0000,2.0000,0,1,480,1131,423,0
29353287,34,-0.0166,0.0200,1.0190,0.3052,0.3662,-0.3052,31.0000,4.0000,2.0000,0,1,464,1152,416,0
29358288,35,-0.0166,0.0195,1.0200,0.3662,0.3052,-0.1221,31.0000,4.0000,2.0000,0,1,480,1145,423,0
29363287,36,-0.0156,0.0190,1.0215,0.1831,0.3662,-0.2441,31.0000,4.0000,2.0000,0,1,481,1145,418,0
29368293,37,-0.0156,0.0195,1.0215,0.1221,0.3662,-0.3052,31.0000,4.0000,2.0000,0,1,465,1136,395,0
29373294,38,-0.0156,0.0205,1.0215,0.2441,0.3052,-0.1221,31.0000,4.0000,2.0000,0,1,470,1125,424,0
29378302,39,-0.0156,0.0220,1.0215,0.1831,0.3662,-0.1221,31.0000,4.0000,2.0000,0,1,478,1171,396,0
29383287,40,-0.0146,0.0215,1.0210,0.2441,0.3662,-0.1831,31.0000,4.0000,2.0000,0,1,475,1149,396,0
29388289,41,-0.0151,0.0200,1.0205,0.2441,0.2441,-0.2441,31.0000,4.0000,2.0000,0,1,499,1153,396,0
29393287,42,-0.0156,0.0210,1.0215,0.1831,0.1831,-0.3052,31.0000,4.0000,2.0000,0,1,468,1155,412,0
29398287,43,-0.0161,0.0234,1.0225,0.1831,0.3052,-0.1831,31.0000,4.0000,2.0000,0,1,463,1147,398,0
29403291,44,-0.0181,0.0234,1.0220,0.2441,0.3052,-0.1831,31.0000,4.0000,2.0000,0,1,485,1179,413,0
29408290,45,-0.0190,0.0215,1.0205,0.3052,0.1831,-0.1221,31.0000,4.0000,2.0000,0,1,476,1145,396,0
29413289,46,-0.0190,0.0195,1.0190,0.3052,0.1221,-0.2441,31.0000,4.0000,2.0000,0,1,491,1143,412,0
29418289,47,-0.0181,0.0186,1.0195,0.3052,-0.0610,-0.2441,31.0000,4.0000,2.0000,0,1,474,1137,407,0
29423286,48,-0.0161,0.0186,1.0205,0.3052,0.0610,-0.2441,31.0000,4.0000,2.0000,0,1,489,1060,413,0
29428292,49,-0.0151,0.0195,1.0220,0.3662,0.1831,-0.1831,31.0000,4.0000,2.0000,0,1,490,1185,405,0
29433293,50,-0.0151,0.0210,1.0215,0.3662,0.0610,-0.1831,35.0000,5.0000,6.0000,1,1,463,1162,423,0
29438286,51,-0.0156,0.0215,1.0210,0.1831,0.0000,-0.1831,35.0000,5.0000,6.0000,0,1,462,1138,805,0
29443293,52,-0.0156,0.0225,1.0210,0.2441,0.0610,-0.2441,35.0000,5.0000,6.0000,0,1,480,1122,396,0
29448293,53,-0.0156,0.0225,1.0210,0.2441,0.2441,-0.3052,35.0000,5.0000,6.0000,0,1,463,1167,405,0
29453295,54,-0.0151,0.0210,1.0210,0.3052,0.1221,-0.3052,35.0000,5.0000,6.0000,0,1,481,1136,422,0
29458294,55,-0.0161,0.0200,1.0210,0.1831,0.0610,-0.3052,35.0000,5.0000,6.0000,0,1,474,1051,416,0
29463288,56,-0.0181,0.0205,1.0215,0.1831,0.0610,-0.1831,35.0000,5.0000,6.0000,0,1,464,1112,397,0
29468287,57,-0.0190,0.0205,1.0210,0.0610,0.1221,-0.2441,35.0000,5.0000,6.0000,0,1,477,1107,424,0
29473297,58,-0.0190,0.0195,1.0205,0.1831,0.0610,-0.2441,35.0000,5.0000,6.0000,0,1,463,1132,396,0
29478287,59,-0.0181,0.0200,1.0210,0.3052,0.0000,-0.3052,35.0000,5.0000,6.0000,0,1,478,1141,397,0
29483290,60,-0.0156,0.0215,1.0225,0.1831,-0.0610,-0.2441,35.0000,5.0000,6.0000,0,1,490,1077,396,0
29488286,61,-0.0142,0.0220,1.0234,0.0610,0.0610,-0.3052,35.0000,5.0000,6.0000,0,1,463,1139,411,0
29493292,62,-0.0146,0.0220,1.0229,0.1221,0.1221,-0.3662,35.0000,5.0000,6.0000,0,1,491,1131,412,0
29498290,63,-0.0161,0.0210,1.0210,0.1831,0.0000,-0.2441,35.0000,5.0000,6.0000,0,1,468,1166,411,0
29503289,64,-0.0181,0.0210,1.0186,0.2441,0.0000,-0.3052,35.0000,5.0000,6.0000,0,1,480,1092,396,0
29508286,65,-0.0181,0.0210,1.0190,0.3052,0.0000,-0.3052,35.0000,5.0000,6.0000,0,1,474,1082,412,0
29513286,66,-0.0166,0.0210,1.0220,0.2441,-0.1831,-0.2441,35.0000,5.0000,6.0000,0,1,486,994,396,0
29518293,67,-0.0142,0.0220,1.0254,0.2441,-0.0610,-0.2441,35.0000,5.0000,6.0000,0,1,491,1132,412,0
29523289,68,-0.0142,0.0225,1.0249,0.1221,0.0610,-0.2441,35.0000,5.0000,6.0000,0,1,473,1164,396,0
29528293,69,-0.0161,0.0215,1.0205,0.0610,0.1831,-0.3052,35.0000,5.0000,6.0000,0,1,490,1195,413,0
29533293,70,-0.0171,0.0200,1.0171,-0.0610,0.0000,-0.3662,33.0000,6.0000,2.0000,1,1,463,1142,423,0
29538287,71,-0.0166,0.0200,1.0176,0.0000,0.0610,-0.2441,33.0000,6.0000,2.0000,0,1,463,1102,814,0
29543289,72,-0.0161,0.0205,1.0205,0.1221,-0.0610,-0.1831,33.0000,6.0000,2.0000,0,1,480,1107,395,0
29548293,73,-0.0161,0.0205,1.0234,0.0610,-0.0610,-0.2441,33.0000,6.0000,2.0000,0,1,465,1154,422,0
29553287,74,-0.0151,0.0200,1.0239,0.1831,-0.0610,-0.3052,33.0000,6.0000,2.0000,0,1,480,1185,423,0
29558291,75,-0.0151,0.0210,1.0225,0.1221,0.0610,-0.2441,33.0000,6.0000,2.0000,0,1,480,1151,410,0
29563293,76,-0.0146,0.0220,1.0210,0.1221,0.1221,-0.2441,33.0000,6.0000,2.0000,0,1,465,1073,395,0
29568294,77,-0.0142,0.0200,1.0205,0.2441,0.1221,-0.1221,33.0000,6.0000,2.0000,0,1,466,1130,423,0
29573292,78,-0.0142,0.0190,1.0210,0.1221,0.0610,-0.1831,33.0000,6.0000,2.0000,0,1,472,1176,397,0
29578289,79,-0.0146,0.0200,1.0220,0.1221,0.1221,-0.1221,33.0000,6.0000,2.0000,0,1,479,1148,397,0
29583293,80,-0.0146,0.0200,1.0225,0.2441,0.1831,-0.1221,33.0000,6.0000,2.0000,0,1,490,1144,396,0
29588287,81,-0.0142,0.0200,1.0234,0.1831,0.1221,-0.1221,33.0000,6.0000,2.0000,0,1,465,1154,395,0
29593292,82,-0.0146,0.0205,1.0234,0.1221,0.1831,-0.2441,33.0000,6.0000,2.0000,0,1,491,1148,412,0
29598286,83,-0.0156,0.0205,1.0215,0.1221,0.0000,-0.3052,33.0000,6.0000,2.0000,0,1,471,1159,411,0
29603292,84,-0.0151,0.0200,1.0195,0.2441,0.0610,-0.3052,33.0000,6.0000,2.0000,0,1,489,1101,397,0
29608291,85,-0.0156,0.0205,1.0186,0.1831,0.0610,-0.1831,33.0000,6.0000,2.0000,0,1,471,1153,412,0
29613289,86,-0.0171,0.0210,1.0186,0.2441,-0.1221,-0.1831,33.0000,6.0000,2.0000,0,1,481,1154,399,0
29618291,87,-0.0161,0.0210,1.0205,0.3052,-0.1221,-0.2441,33.0000,6.0000,2.0000,0,1,488,1139,412,0
29623287,88,-0.0142,0.0215,1.0225,0.2441,0.0000,-0.3052,33.0000,6.0000,2.0000,0,1,470,1177,396,0
29628292,89,-0.0132,0.0215,1.0239,0.1831,0.0000,-0.3052,33.0000,6.0000,2.0000,0,1,490,1092,413,0
29633290,90,-0.0137,0.0220,1.0234,0.1831,0.1221,-0.3662,33.0000,4.0000,6.0000,1,1,463,1141,422,0
29638294,91,-0.0151,0.0225,1.0210,0.1221,0.1221,-0.3052,33.0000,4.0000,6.0000,0,1,463,1183,809,0
29643290,92,-0.0166,0.0225,1.0200,0.2441,0.0000,-0.3052,33.0000,4.0000,6.0000,0,1,479,1113,423,0
29648292,93,-0.0161,0.0220,1.0200,0.3052,0.0000,-0.1831,33.0000,4.0000,6.0000,0,1,464,1105,423,0
29653293,94,-0.0151,0.0210,1.0195,0.1221,0.0000,-0.2441,33.0000,4.0000,6.0000,0,1,481,1105,423,0
29658290,95,-0.0142,0.0215,1.0210,0.1221,0.0610,-0.2441,33.0000,4.0000,6.0000,0,1,479,1004,408,0
29663293,96,-0.0146,0.0225,1.0220,0.1221,0.1221,-0.2441,33.0000,4.0000,6.0000,0,1,468,1070,397,0
29668292,97,-0.0156,0.0225,1.0220,0.0610,0.0000,-0.3662,33.0000,4.0000,6.0000,0,1,473,1130,424,0
29673294,98,-0.0156,0.0225,1.0229,0.0610,0.1831,-0.2441,33.0000,4.0000,6.0000,0,1,481,1106,396,0
29678286,99,-0.0137,0.0225,1.0249,0.1221,0.1221,-0.2441,33.0000,4.0000,6.0000,0,1,465,1157,397,0
29683292,100,-0.0122,0.0215,1.0244,0.0000,0.1831,-0.3052,33.0000,4.0000,6.0000,0,1,499,1148,397,0
29688286,101,-0.0122,0.0215,1.0239,-0.2441,0.1831,-0.1831,33.0000,4.0000,6.0000,0,1,464,1108,412,0
29693290,102,-0.0142,0.0210,1.0234,-0.1221,0.2441,-0.2441,33.0000,4.0000,6.0000,0,1,491,1163,396,0
29698295,103,-0.0166,0.0200,1.0210,-0.1221,0.3052,-0.1831,33.0000,4.0000,6.0000,0,1,481,1155,414,0
29703293,104,-0.0176,0.0205,1.0200,0.0610,0.1221,-0.3052,33.0000,4.0000,6.0000,0,1,490,1147,397,0
29708286,105,-0.0166,0.0215,1.0210,0.0610,0.0610,-0.3052,33.0000,4.0000,6.0000,0,1,485,1144,412,0
29713295,106,-0.0142,0.0215,1.0220,-0.0610,0.2441,-0.2441,33.0000,4.0000,6.0000,0,1,484,1136,399,0
29718286,107,-0.0137,0.0205,1.0225,-0.0610,0.2441,-0.3052,33.0000,4.0000,6.0000,0,1,491,1144,412,0
29723292,108,-0.0151,0.0210,1.0229,0.0610,0.1831,-0.2441,33.0000,4.0000,6.0000,0,1,490,1176,395,0
29728293,109,-0.0166,0.0220,1.0229,0.1221,0.1221,-0.3052,33.0000,4.0000,6.0000,0,1,463,1238,422,0
29733295,110,-0.0171,0.0220,1.0225,0.1831,0.2441,-0.2441,32.0000,4.0000,3.0000,1,1,463,1166,398,0
29738287,111,-0.0171,0.0205,1.0229,0.0610,0.1221,-0.3662,32.0000,4.0000,3.0000,0,1,463,1151,813,0
29743293,112,-0.0161,0.0200,1.0229,0.0610,0.0610,-0.4883,32.0000,4.0000,3.0000,0,1,463,1145,416,0
29748287,113,-0.0142,0.0215,1.0215,0.0610,0.1831,-0.3662,32.0000,4.0000,3.0000,0,1,481,1175,423,0
29753288,114,-0.0137,0.0225,1.0200,0.0000,0.3052,-0.3052,32.0000,4.0000,3.0000,0,1,464,1145,401,0
29758295,115,-0.0151,0.0210,1.0190,-0.0610,0.2441,-0.3052,32.0000,4.0000,3.0000,0,1,472,1014,424,0
29763294,116,-0.0166,0.0190,1.0195,0.0000,0.1831,-0.3052,32.0000,4.0000,3.0000,0,1,473,1126,400,0
29768292,117,-0.0156,0.0200,1.0205,0.0000,0.0000,-0.2441,32.0000,4.0000,3.0000,0,1,479,1075,396,0
29773286,118,-0.0137,0.0220,1.0215,0.1221,0.0610,-0.3662,32.0000,4.0000,3.0000,0,1,466,1056,396,0
29778293,119,-0.0132,0.0229,1.0220,-0.0610,0.1221,-0.3052,32.0000,4.0000,3.0000,0,1,475,1163,397,0
29783290,120,-0.0137,0.0220,1.0210,0.0000,0.0000,-0.1831,32.0000,4.0000,3.0000,0,1,482,1138,395,0
29788294,121,-0.0137,0.0205,1.0205,0.0000,-0.0610,-0.2441,32.0000,4.0000,3.0000,0,1,491,1082,412,0
29793294,122,-0.0137,0.0195,1.0210,-0.1221,0.0000,-0.3052,32.0000,4.0000,3.0000,0,1,491,1101,398,0
29798286,123,-0.0146,0.0205,1.0220,0.0000,0.1831,-0.3052,32.0000,4.0000,3.0000,0,1,476,1093,412,0
29803291,124,-0.0151,0.0215,1.0229,0.0610,0.3662,-0.1221,32.0000,4.0000,3.0000,0,1,474,1129,411,0
29808289,125,-0.0146,0.0215,1.0229,0.0610,0.2441,-0.2441,32.0000,4.0000,3.0000,0,1,484,1147,413,0
29813294,126,-0.0146,0.0210,1.0225,0.1221,0.3662,-0.3052,32.0000,4.0000,3.0000,0,1,476,1142,414,0
29818290,127,-0.0156,0.0210,1.0220,0.1221,0.3662,-0.2441,32.0000,4.0000,3.0000,0,1,477,1140,397,0
29823293,128,-0.0151,0.0205,1.0210,0.0000,0.3052,-0.2441,32.0000,4.0000,3.0000,0,1,490,1184,404,0
29828294,129,-0.0146,0.0195,1.0205,0.0610,0.3662,-0.3052,32.0000,4.0000,3.0000,0,1,462,1134,422,0
29833293,130,-0.0146,0.0200,1.0205,0.1221,0.2441,-0.2441,32.0000,4.0000,3.0000,0,1,463,1165,397,0
29838290,131,-0.0146,0.0205,1.0210,0.0610,0.3052,-0.3052,33.0000,4.0000,1.0000,1,1,480,1167,423,0
29843293,132,-0.0156,0.0210,1.0210,0.0610,0.4272,-0.2441,33.0000,4.0000,1.0000,0,1,464,1146,787,0
29848292,133,-0.0171,0.0220,1.0205,0.0610,0.3662,-0.3052,33.0000,4.0000,1.0000,0,1,480,1180,423,0
29853294,134,-0.0176,0.0225,1.0200,0.0610,0.2441,-0.2441,33.0000,4.0000,1.0000,0,1,465,1147,399,0
29858291,135,-0.0171,0.0225,1.0200,0.1221,0.3052,-0.2441,33.0000,4.0000,1.0000,0,1,468,1153,423,0
29863290,136,-0.0166,0.0215,1.0205,0.1221,0.2441,-0.3662,33.0000,4.0000,1.0000,0,1,476,1126,397,0
29868287,137,-0.0166,0.0200,1.0205,0.1221,0.1831,-0.3662,33.0000,4.0000,1.0000,0,1,463,1154,397,0
29873321,138,-0.0166,0.0195,1.0210,0.1221,0.3052,-0.1831,33.0000,4.0000,1.0000,0,1,472,1156,397,0
29878291,139,-0.0156,0.0195,1.0210,0.0000,0.1831,-0.1831,33.0000,4.0000,1.0000,0,1,468,1151,397,0
29883288,140,-0.0151,0.0200,1.0210,0.1221,0.2441,-0.2441,33.0000,4.0000,1.0000,0,1,480,1111,395,0
29888289,141,-0.0142,0.0220,1.0215,0.1221,0.1221,-0.1221,33.0000,4.0000,1.0000,0,1,491,1154,412,0
29893290,142,-0.0142,0.0220,1.0225,0.1221,0.1221,-0.3052,33.0000,4.0000,1.0000,0,1,465,1172,410,0
29898292,143,-0.0151,0.0215,1.0234,0.1221,0.0610,-0.2441,33.0000,4.0000,1.0000,0,1,484,1142,413,0
29903286,144,-0.0151,0.0210,1.0234,0.1831,0.1831,-0.1831,33.0000,4.0000,1.0000,0,1,475,1153,412,0
29908288,145,-0.0146,0.0210,1.0229,0.1221,0.1831,-0.2441,33.0000,4.0000,1.0000,0,1,472,1159,398,0
29913291,146,-0.0151,0.0205,1.0225,0.1831,0.1831,-0.3052,33.0000,4.0000,1.0000,0,1,483,1147,410,0
29918291,147,-0.0146,0.0200,1.0229,0.1831,0.1831,-0.1221,33.0000,4.0000,1.0000,0,1,487,1153,396,0
29923292,148,-0.0142,0.0210,1.0229,0.1221,0.1221,-0.1221,33.0000,4.0000,1.0000,0,1,491,1184,410,0
29928292,149,-0.0146,0.0215,1.0225,0.0000,0.1831,-0.2441,33.0000,4.0000,1.0000,0,1,463,1153,422,0
29933288,150,-0.0151,0.0210,1.0225,0.1831,0.3052,-0.2441,33.0000,4.0000,1.0000,0,1,463,1128,411,0
29938287,151,-0.0161,0.0215,1.0225,0.2441,0.2441,-0.1221,34.0000,3.0000,7.0000,1,1,480,1124,423,0
29943287,152,-0.0161,0.0210,1.0220,0.1221,0.3052,-0.1831,34.0000,3.0000,7.0000,0,1,472,1155,804,0
29948286,153,-0.0151,0.0210,1.0215,0.1831,0.3662,-0.1221,34.0000,3.0000,7.0000,0,1,463,1148,398,0
29953293,154,-0.0142,0.0210,1.0210,0.2441,0.3662,-0.0610,34.0000,3.0000,7.0000,0,1,470,1152,412,0
29958291,155,-0.0146,0.0205,1.0210,0.1831,0.3662,-0.1221,34.0000,3.0000,7.0000,0,1,470,1047,423,0
29963286,156,-0.0171,0.0190,1.0210,0.3052,0.3662,-0.1831,34.0000,3.0000,7.0000,0,1,480,1135,416,0
29968294,157,-0.0190,0.0195,1.0205,0.3052,0.2441,-0.1831,34.0000,3.0000,7.0000,0,1,471,1149,397,0
29973289,158,-0.0190,0.0205,1.0195,0.3052,0.1831,-0.3052,34.0000,3.0000,7.0000,0,1,475,1178,397,0
29978294,159,-0.0181,0.0200,1.0190,0.3052,0.0610,-0.2441,34.0000,3.0000,7.0000,0,1,505,1149,396,0
29983291,160,-0.0161,0.0195,1.0190,0.4272,0.1221,-0.2441,34.0000,3.0000,7.0000,0,1,476,1146,412,0
29988287,161,-0.0137,0.0205,1.0195,0.5493,0.0000,-0.3052,34.0000,3.0000,7.0000,0,1,465,1160,399,0
29993291,162,-0.0132,0.0220,1.0205,0.4272,-0.0610,-0.3052,34.0000,3.0000,7.0000,0,1,485,1106,412,0
29998286,163,-0.0146,0.0225,1.0210,0.4272,-0.0610,-0.2441,34.0000,3.0000,7.0000,0,1,472,1149,401,0
30003286,164,-0.0146,0.0210,1.0215,0.4272,0.1831,-0.4272,34.0000,3.0000,7.0000,0,1,489,1155,412,0
30008295,165,-0.0132,0.0205,1.0225,0.4883,0.1221,-0.4272,34.0000,3.0000,7.0000,0,1,484,1148,405,0
30013288,166,-0.0122,0.0225,1.0229,0.4883,0.1221,-0.3052,34.0000,3.0000,7.0000,0,1,488,1139,412,0
30018286,167,-0.0122,0.0239,1.0225,0.3662,0.1221,-0.3662,34.0000,3.0000,7.0000,0,1,490,1187,405,0
30023289,168,-0.0127,0.0220,1.0225,0.3052,0.1831,-0.3052,34.0000,3.0000,7.0000,0,1,462,1164,423,0
30028293,169,-0.0137,0.0205,1.0225,0.3662,0.2441,-0.3052,34.0000,3.0000,7.0000,0,1,463,1163,397,0
30033293,170,-0.0146,0.0225,1.0225,0.4883,0.2441,-0.4272,34.0000,3.0000,7.0000,0,1,480,1169,425,0
30038292,171,-0.0142,0.0254,1.0254,0.2441,0.3052,-0.3662,31.0000,6.0000,2.0000,1,1,463,1155,408,0
30043292,172,-0.0112,0.0269,1.0303,0.1221,0.3662,-0.3052,31.0000,6.0000,2.0000,0,1,480,1145,807,0
30048294,173,-0.0083,0.0269,1.0327,-0.1221,0.5493,-0.3662,31.0000,6.0000,2.0000,0,1,473,1140,416,0
30053289,174,-0.0107,0.0234,1.0283,-0.2441,0.7324,-0.4272,31.0000,6.0000,2.0000,0,1,480,1149,423,0
30058293,175,-0.0146,0.0186,1.0200,-0.1221,0.6714,-0.3662,31.0000,6.0000,2.0000,0,1,471,1135,407,0
30063289,176,-0.0200,0.0161,1.0122,0.1831,0.7324,-0.3662,31.0000,6.0000,2.0000,0,1,472,1173,396,0
30068319,177,-0.0181,0.0264,1.0195,0.4883,0.2441,-0.2441,31.0000,6.0000,2.0000,0,1,466,1177,397,0
30073292,178,-0.0088,0.0288,1.0312,-0.6104,0.5493,-0.4272,31.0000,6.0000,2.0000,0,1,463,1149,396,0
30078291,179,-0.0132,0.0166,1.0244,-0.3052,1.0986,-0.1221,31.0000,6.0000,2.0000,0,1,464,1245,412,0
30083293,180,-0.0215,0.0176,1.0156,0.3052,0.6714,-0.1221,31.0000,6.0000,2.0000,0,1,491,1145,412,0
30088291,181,-0.0195,0.0239,1.0195,-0.4272,0.5493,-0.1221,31.0000,6.0000,2.0000,0,1,480,1141,414,0
30093289,182,-0.0156,0.0254,1.0225,-0.1831,0.7324,-0.1831,31.0000,6.0000,2.0000,0,1,485,1153,397,0
30098294,183,-0.0156,0.0229,1.0205,-0.1831,0.7324,-0.1831,31.0000,6.0000,2.0000,0,1,477,1152,412,0
30103289,184,-0.0151,0.0205,1.0205,-0.2441,0.6104,-0.1831,31.0000,6.0000,2.0000,0,1,487,1156,399,0
30108288,185,-0.0146,0.0210,1.0220,-0.2441,0.7324,-0.2441,31.0000,6.0000,2.0000,0,1,482,1141,412,0
30113286,186,-0.0161,0.0215,1.0225,-0.3052,0.7935,-0.2441,31.0000,6.0000,2.0000,0,1,487,1180,396,0
30118295,187,-0.0166,0.0210,1.0225,-0.1831,0.7324,-0.1831,31.0000,6.0000,2.0000,0,1,462,1209,412,0
30123304,188,-0.0161,0.0205,1.0225,-0.1221,0.7935,-0.1831,31.0000,6.0000,2.0000,0,1,463,1161,422,0
30128293,189,-0.0161,0.0205,1.0225,-0.0610,0.8545,-0.2441,31.0000,6.0000,2.0000,0,1,463,1136,399,0
30133288,190,-0.0156,0.0210,1.0220,-0.0610,0.7324,-0.1831,31.0000,6.0000,2.0000,0,1,480,1165,423,0
30138290,191,-0.0161,0.0215,1.0215,-0.1221,0.7935,-0.3052,32.0000,3.0000,6.0000,1,1,476,1178,415,0
30143290,192,-0.0156,0.0200,1.0210,-0.0610,0.9155,-0.2441,32.0000,3.0000,6.0000,0,1,464,1054,775,0
30148287,193,-0.0161,0.0190,1.0210,-0.0610,0.9155,-0.2441,32.0000,3.0000,6.0000,0,1,474,1145,425,0
30153292,194,-0.0166,0.0220,1.0229,0.0610,0.9155,-0.3052,32.0000,3.0000,6.0000,0,1,465,1053,405,0
30158288,195,-0.0166,0.0239,1.0215,0.0000,0.9155,-0.3052,32.0000,3.0000,6.0000,0,1,466,1127,422,0
30163291,196,-0.0195,0.0244,1.0186,0.0000,0.6714,-0.2441,32.0000,3.0000,6.0000,0,1,476,1121,397,0
30168292,197,-0.0190,0.0225,1.0186,-0.2441,0.4272,-0.3052,32.0000,3.0000,6.0000,0,1,463,1157,397,0
30173288,198,-0.0151,0.0181,1.0220,-0.2441,0.5493,-0.1831,32.0000,3.0000,6.0000,0,1,503,1143,396,0
30178293,199,-0.0161,0.0181,1.0215,0.0610,0.7935,-0.1831,32.0000,3.0000,6.0000,0,1,470,1149,412,0
30183288,200,-0.0210,0.0210,1.0151,0.0000,0.3662,-0.2441,32.0000,3.0000,6.0000,0,1,490,1144,398,0
30188290,201,-0.0210,0.0205,1.0146,-0.1831,0.2441,-0.1831,32.0000,3.0000,6.0000,0,1,480,1099,412,0
30193292,202,-0.0195,0.0215,1.0156,-0.0610,0.1221,-0.1221,32.0000,3.0000,6.0000,0,1,482,1151,395,0
30198289,203,-0.0171,0.0225,1.0195,0.0000,0.0610,-0.1221,32.0000,3.0000,6.0000,0,1,473,1168,412,0
30203291,204,-0.0146,0.0215,1.0244,-0.0610,0.1221,-0.1831,32.0000,3.0000,6.0000,0,1,488,1015,398,0
30208287,205,-0.0137,0.0210,1.0264,-0.0610,0.2441,-0.1831,32.0000,3.0000,6.0000,0,1,477,1061,412,0
30213287,206,-0.0151,0.0195,1.0234,0.0610,0.1831,-0.1831,32.0000,3.0000,6.0000,0,1,490,1183,401,0
30218294,207,-0.0166,0.0200,1.0205,0.1831,0.2441,-0.1831,32.0000,3.0000,6.0000,0,1,462,1159,423,0
30223292,208,-0.0176,0.0215,1.0195,0.0610,0.3052,-0.2441,32.0000,3.0000,6.0000,0,1,463,1190,408,0
30228293,209,-0.0176,0.0205,1.0205,0.1831,0.3052,-0.1221,32.0000,3.0000,6.0000,0,1,479,1130,419,0
30233293,210,-0.0161,0.0195,1.0210,0.2441,0.2441,-0.1221,32.0000,3.0000,6.0000,0,1,464,1141,395,0
30238289,211,-0.0156,0.0200,1.0210,0.4272,0.3052,-0.1831,33.0000,5.0000,2.0000,1,1,480,1148,423,0
30243292,212,-0.0171,0.0220,1.0210,0.5493,0.1831,-0.3052,33.0000,5.0000,2.0000,0,1,474,1143,779,0
30248288,213,-0.0181,0.0225,1.0200,0.4883,0.3052,-0.2441,33.0000,5.0000,2.0000,0,1,480,1150,423,0
30253286,214,-0.0181,0.0195,1.0176,0.6104,0.1831,-0.2441,33.0000,5.0000,2.0000,0,1,470,1045,425,0
30258289,215,-0.0186,0.0181,1.0161,0.8545,0.1221,-0.1831,33.0000,5.0000,2.0000,0,1,480,1154,397,0
30263310,216,-0.0186,0.0205,1.0161,0.9155,-0.1221,-0.1831,33.0000,5.0000,2.0000,0,1,463,1151,397,0
30268293,217,-0.0161,0.0234,1.0195,0.7935,-0.3052,-0.2441,33.0000,5.0000,2.0000,0,1,467,1157,396,0
30273287,218,-0.0137,0.0244,1.0220,0.6714,-0.2441,-0.1831,33.0000,5.0000,2.0000,0,1,508,1184,395,0
30278292,219,-0.0137,0.0234,1.0220,0.7324,-0.1831,-0.0610,33.0000,5.0000,2.0000,0,1,491,1158,412,0
30283290,220,-0.0146,0.0229,1.0220,0.6714,-0.2441,-0.3052,33.0000,5.0000,2.0000,0,1,465,1156,414,0
30288290,221,-0.0151,0.0225,1.0229,0.4272,0.0000,-0.1221,33.0000,5.0000,2.0000,0,1,473,1159,395,0
30293288,222,-0.0156,0.0234,1.0229,0.4272,-0.0610,-0.1831,33.0000,5.0000,2.0000,0,1,489,1110,407,0
30298292,223,-0.0156,0.0229,1.0220,0.3662,0.0000,-0.1221,33.0000,5.0000,2.0000,0,1,473,1160,398,0
30303289,224,-0.0146,0.0220,1.0215,0.3052,0.0610,0.0000,33.0000,5.0000,2.0000,0,1,479,1025,411,0
30308286,225,-0.0146,0.0234,1.0234,0.1831,0.0000,-0.0610,33.0000,5.0000,2.0000,0,1,469,1095,396,0
30313292,226,-0.0161,0.0239,1.0244,0.0610,0.0610,-0.0610,33.0000,5.0000,2.0000,0,1,490,1102,413,0
30318286,227,-0.0161,0.0220,1.0229,0.2441,0.0610,-0.0610,33.0000,5.0000,2.0000,0,1,463,1165,422,0
30323294,228,-0.0156,0.0205,1.0220,0.2441,0.0000,-0.0610,33.0000,5.0000,2.0000,0,1,463,1196,423,0
30328294,229,-0.0146,0.0210,1.0215,0.1221,0.1221,-0.1221,33.0000,5.0000,2.0000,0,1,479,1111,418,0
30333292,230,-0.0146,0.0215,1.0215,0.2441,0.1831,-0.0610,33.0000,5.0000,2.0000,0,1,463,1176,395,0
30338290,231,-0.0151,0.0210,1.0205,0.3052,0.3052,-0.1221,30.0000,6.0000,-1.0000,1,1,480,1188,423,0
30343291,232,-0.0146,0.0200,1.0190,0.3662,0.1221,-0.1221,30.0000,6.0000,-1.0000,0,1,474,1123,779,0
30348291,233,-0.0156,0.0200,1.0186,0.6104,0.0610,-0.1221,30.0000,6.0000,-1.0000,0,1,464,1113,395,0
30353287,234,-0.0171,0.0200,1.0186,0.6714,0.0610,-0.1221,30.0000,6.0000,-1.0000,0,1,467,1098,420,0
30358295,235,-0.0176,0.0200,1.0176,0.6714,0.0000,-0.2441,30.0000,6.0000,-1.0000,0,1,479,1095,424,0
30363300,236,-0.0186,0.0200,1.0166,0.6714,-0.1221,-0.3052,30.0000,6.0000,-1.0000,0,1,477,1086,397,0
30368290,237,-0.0190,0.0210,1.0161,0.7935,-0.3052,-0.1831,30.0000,6.0000,-1.0000,0,1,475,1154,396,0
30373287,238,-0.0195,0.0210,1.0156,0.8545,-0.5493,-0.1831,30.0000,6.0000,-1.0000,0,1,508,1132,394,0
30378291,239,-0.0190,0.0205,1.0146,0.9766,-0.4272,-0.3052,30.0000,6.0000,-1.0000,0,1,491,1138,412,0
30383292,240,-0.0215,0.0215,1.0112,1.1597,-0.6714,-0.4272,30.0000,6.0000,-1.0000,0,1,464,1133,413,0
30388286,241,-0.0273,0.0215,1.0068,1.2817,-1.0986,-0.3662,30.0000,6.0000,-1.0000,0,1,471,1134,397,0
30393294,242,-0.0327,0.0195,1.0039,1.2817,-1.7700,-0.3662,30.0000,6.0000,-1.0000,0,1,486,1141,409,0
30398294,243,-0.0356,0.0186,1.0015,1.5259,-2.6855,-0.5493,30.0000,6.0000,-1.0000,0,1,481,1143,412,0
30403291,244,-0.0322,0.0190,1.0039,1.6479,-3.4180,-0.4272,30.0000,6.0000,-1.0000,0,1,474,1129,412,0
30408290,245,-0.0234,0.0181,1.0107,1.7090,-3.6011,-0.5493,30.0000,6.0000,-1.0000,0,1,488,1142,397,0
30413293,246,-0.0181,0.0186,1.0142,1.9531,-3.6011,-0.6714,30.0000,6.0000,-1.0000,0,1,490,1120,410,0
30418289,247,-0.0181,0.0225,1.0156,2.0142,-3.7842,-0.6714,30.0000,6.0000,-1.0000,0,1,463,1139,422,0
30423292,248,-0.0137,0.0249,1.0215,1.7700,-4.0894,-0.6714,30.0000,6.0000,-1.0000,0,1,463,1151,418,0
30428291,249,-0.0078,0.0244,1.0283,1.6479,-3.7231,-0.6714,30.0000,6.0000,-1.0000,0,1,480,1106,424,0
30433288,250,-0.0059,0.0259,1.0298,1.5869,-3.3569,-0.6714,30.0000,6.0000,-1.0000,0,1,464,1144,399,0
30438290,251,-0.0068,0.0278,1.0288,1.4648,-3.2959,-0.6104,35.0000,6.0000,2.0000,1,1,463,1134,423,0
30443287,252,-0.0078,0.0278,1.0283,1.4038,-3.0518,-0.6104,35.0000,6.0000,2.0000,0,1,481,1132,778,0
30448286,253,-0.0088,0.0278,1.0283,1.3428,-2.7466,-0.6104,35.0000,6.0000,2.0000,0,1,466,1117,396,0
30453293,254,-0.0088,0.0273,1.0278,1.0986,-2.8076,-0.6104,35.0000,6.0000,2.0000,0,1,477,1060,419,0
30458294,255,-0.0068,0.0249,1.0278,1.0986,-2.6855,-0.6104,35.0000,6.0000,2.0000,0,1,477,1109,423,0
30463305,256,-0.0029,0.0225,1.0298,1.2817,-2.1973,-0.6714,35.0000,6.0000,2.0000,0,1,464,1141,396,0
30468294,257,-0.0034,0.0229,1.0293,1.3428,-2.0142,-0.6714,35.0000,6.0000,2.0000,0,1,475,1136,397,0
30473294,258,-0.0068,0.0259,1.0273,1.2817,-1.8311,-0.6104,35.0000,6.0000,2.0000,0,1,507,1163,395,0
30478291,259,-0.0083,0.0269,1.0259,1.2207,-1.7090,-0.6714,35.0000,6.0000,2.0000,0,1,486,1136,412,0
30483291,260,-0.0083,0.0273,1.0264,1.0986,-1.6479,-0.5493,35.0000,6.0000,2.0000,0,1,463,1133,413,0
30488292,261,-0.0073,0.0273,1.0273,0.9766,-1.4038,-0.5493,35.0000,6.0000,2.0000,0,1,491,1143,413,0
30493293,262,-0.0054,0.0269,1.0273,1.0376,-1.1597,-0.4883,35.0000,6.0000,2.0000,0,1,478,1141,410,0
30498290,263,-0.0054,0.0264,1.0259,0.9766,-0.9155,-0.5493,35.0000,6.0000,2.0000,0,1,478,1130,397,0
30503291,264,-0.0083,0.0264,1.0244,0.7324,-0.9155,-0.4272,35.0000,6.0000,2.0000,0,1,491,1122,405,0
30508289,265,-0.0103,0.0264,1.0229,0.9155,-0.9766,-0.4883,35.0000,6.0000,2.0000,0,1,478,1170,395,0
30513289,266,-0.0088,0.0259,1.0220,0.7935,-0.7324,-0.5493,35.0000,6.0000,2.0000,0,1,490,1197,407,0
30518290,267,-0.0078,0.0259,1.0234,0.6104,-0.7935,-0.5493,35.0000,6.0000,2.0000,0,1,462,1143,422,0
30523286,268,-0.0088,0.0278,1.0254,0.5493,-0.7935,-0.4883,35.0000,6.0000,2.0000,0,1,463,1153,416,0
30528291,269,-0.0083,0.0298,1.0269,0.4272,-0.6104,-0.3662,35.0000,6.0000,2.0000,0,1,480,1153,425,0
30533287,270,-0.0073,0.0298,1.0273,0.3052,-0.5493,-0.4272,35.0000,6.0000,2.0000,0,1,463,1137,395,0
30538292,271,-0.0073,0.0278,1.0269,0.2441,-0.6104,-0.2441,35.0000,6.0000,2.0000,0,1,481,1138,423,0
30543286,272,-0.0073,0.0264,1.0269,0.0000,-0.4272,-0.3052,31.0000,6.0000,1.0000,1,1,477,1138,397,0
30548290,273,-0.0068,0.0283,1.0278,-0.1221,-0.1221,-0.3662,31.0000,6.0000,1.0000,0,1,467,1085,809,0
30553289,274,-0.0024,0.0312,1.0332,-0.3052,0.0000,-0.3052,31.0000,6.0000,1.0000,0,1,472,1050,417,0
30558294,275,0.0024,0.0327,1.0405,-0.5493,0.1831,-0.1221,31.0000,6.0000,1.0000,0,1,481,1118,396,0
30563301,276,0.0015,0.0288,1.0396,-0.5493,0.6714,-0.2441,31.0000,6.0000,1.0000,0,1,463,1146,397,0
30568291,277,-0.0093,0.0210,1.0264,-0.3662,0.7935,-0.1831,31.0000,6.0000,1.0000,0,1,476,1144,396,0
30573292,278,-0.0166,0.0186,1.0166,-0.0610,0.1221,-0.1831,31.0000,6.0000,1.0000,0,1,507,1191,395,0
30578290,279,-0.0117,0.0259,1.0166,-0.1831,0.0610,-0.1221,31.0000,6.0000,1.0000,0,1,485,1147,412,0
30583292,280,-0.0063,0.0293,1.0205,-0.4883,0.5493,-0.1221,31.0000,6.0000,1.0000,0,1,463,1172,413,0
30588290,281,-0.0059,0.0249,1.0225,-0.3662,0.8545,-0.1831,31.0000,6.0000,1.0000,0,1,490,1141,413,0
30593291,282,-0.0107,0.0210,1.0215,-0.1831,0.7324,-0.1831,31.0000,6.0000,1.0000,0,1,483,1143,412,0
30598287,283,-0.0156,0.0225,1.0190,-0.1831,0.4272,-0.2441,31.0000,6.0000,1.0000,0,1,487,1148,398,0
30603293,284,-0.0122,0.0259,1.0205,-0.2441,0.3662,-0.2441,31.0000,6.0000,1.0000,0,1,480,1141,413,0
30608290,285,-0.0059,0.0273,1.0249,-0.3662,0.6714,-0.1221,31.0000,6.0000,1.0000,0,1,485,1151,396,0
30613293,286,-0.0034,0.0283,1.0273,-0.4272,0.9766,-0.0610,31.0000,6.0000,1.0000,0,1,490,1204,412,0
30618306,287,-0.0049,0.0283,1.0269,-0.6104,1.0986,0.0000,31.0000,6.0000,1.0000,0,1,463,1155,422,0
30623294,288,-0.0068,0.0269,1.0254,-0.6714,1.2207,0.1221,31.0000,6.0000,1.0000,0,1,463,1112,410,0
30628288,289,-0.0078,0.0259,1.0254,-0.6104,1.3428,0.0610,31.0000,6.0000,1.0000,0,1,480,1156,421,0
30633294,290,-0.0078,0.0264,1.0273,-0.6714,1.4038,0.1221,31.0000,6.0000,1.0000,0,1,481,1138,396,0
30638286,291,-0.0063,0.0264,1.0293,-0.8545,1.6479,0.0610,31.0000,6.0000,1.0000,0,1,463,1142,423,0
30643290,292,-0.0059,0.0259,1.0293,-0.9766,1.8921,0.0610,33.0000,6.0000,2.0000,1,1,465,1142,425,0
30648293,293,-0.0063,0.0249,1.0283,-0.9155,1.8921,0.0610,33.0000,6.0000,2.0000,0,1,466,1147,766,0
30653287,294,-0.0083,0.0234,1.0269,-1.0376,2.0142,0.0610,33.0000,6.0000,2.0000,0,1,472,1059,423,0
30658294,295,-0.0088,0.0220,1.0254,-0.7935,2.3193,0.0610,33.0000,6.0000,2.0000,0,1,464,1146,396,0
30663289,296,-0.0078,0.0225,1.0249,-0.7935,2.4414,0.1221,33.0000,6.0000,2.0000,0,1,463,1170,397,0
30668287,297,-0.0083,0.0244,1.0244,-0.8545,2.4414,0.1831,33.0000,6.0000,2.0000,0,1,480,1152,394,0
30673288,298,-0.0107,0.0249,1.0239,-0.8545,2.5024,0.1221,33.0000,6.0000,2.0000,0,1,464,1161,413,0
30678287,299,-0.0122,0.0254,1.0234,-0.7935,2.6855,0.1831,33.0000,6.0000,2.0000,0,1,491,1156,398,0
30683292,300,-0.0112,0.0249,1.0225,-0.9155,2.8076,0.1831,33.0000,6.0000,2.0000,0,1,485,1190,413,0
30688290,301,-0.0107,0.0239,1.0215,-0.9766,2.8687,0.2441,33.0000,6.0000,2.0000,0,1,472,1162,402,0
30693291,302,-0.0112,0.0225,1.0205,-0.9155,2.9297,0.2441,33.0000,6.0000,2.0000,0,1,490,1155,412,0
30698287,303,-0.0127,0.0220,1.0200,-0.8545,2.8687,0.2441,33.0000,6.0000,2.0000,0,1,470,1148,415,0
30703292,304,-0.0156,0.0239,1.0161,-0.9155,3.1128,0.2441,33.0000,6.0000,2.0000,0,1,488,1143,412,0
30708287,305,-0.0273,0.0244,1.0010,-0.8545,3.0518,0.1831,33.0000,6.0000,2.0000,0,1,487,1189,402,0
30713294,306,-0.0464,0.0166,0.9819,-0.7324,1.8311,0.1221,33.0000,6.0000,2.0000,0,1,463,1159,422,0
30718290,307,-0.0527,0.0059,0.9775,-0.1831,0.0000,0.0000,33.0000,6.0000,2.0000,0,1,462,1170,397,0
30723295,308,-0.0400,0.0068,0.9907,0.6714,-0.9155,0.0000,33.0000,6.0000,2.0000,0,1,479,1090,425,0
30728288,309,-0.0220,0.0166,1.0044,0.9766,-1.2207,-0.1221,33.0000,6.0000,2.0000,0,1,464,1105,404,0
30733289,310,-0.0190,0.0234,1.0044,0.9766,-1.1597,-0.2441,33.0000,6.0000,2.0000,0,1,480,1149,419,0
30738294,311,-0.0337,0.0195,0.9912,0.9766,-1.8921,-0.3052,33.0000,6.0000,2.0000,0,1,474,1150,398,0
30743290,312,-0.0483,0.0083,0.9775,1.4648,-3.3569,-0.3662,30.0000,5.0000,4.0000,1,1,480,1149,423,0
30748287,313,-0.0493,0.0029,0.9790,2.2583,-5.1270,-0.5493,30.0000,5.0000,4.0000,0,1,468,1156,776,0
30753287,314,-0.0298,0.0098,1.0000,2.8687,-6.0425,-0.7324,30.0000,5.0000,4.0000,0,1,477,1182,396,0
30758315,315,-0.0049,0.0254,1.0269,3.1128,-5.6763,-0.7935,30.0000,5.0000,4.0000,0,1,463,1130,396,0
30763289,316,0.0083,0.0381,1.0420,2.5024,-5.1270,-0.7935,30.0000,5.0000,4.0000,0,1,464,1132,396,0
30768294,317,0.0078,0.0415,1.0386,1.9531,-4.5166,-0.7935,30.0000,5.0000,4.0000,0,1,507,1186,395,0
30773290,318,-0.0059,0.0391,1.0215,1.4648,-4.1504,-0.7935,30.0000,5.0000,4.0000,0,1,465,1143,398,0
30778291,319,-0.0264,0.0317,1.0015,1.2207,-4.6387,-0.8545,30.0000,5.0000,4.0000,0,1,490,1159,398,0
30783295,320,-0.0366,0.0244,0.9922,1.2817,-5.9814,-0.9766,30.0000,5.0000,4.0000,0,1,476,1139,397,0
30788289,321,-0.0322,0.0249,0.9976,1.3428,-6.8359,-1.2817,30.0000,5.0000,4.0000,0,1,483,1145,403,0
30793287,322,-0.0244,0.0298,1.0083,0.9766,-7.3853,-1.3428,30.0000,5.0000,4.0000,0,1,478,1148,399,0
30798289,323,-0.0225,0.0332,1.0151,0.6104,-8.3008,-1.2817,30.0000,5.0000,4.0000,0,1,490,1128,411,0
30803289,324,-0.0117,0.0337,1.0234,0.4272,-9.5825,-1.0376,30.0000,5.0000,4.0000,0,1,491,1062,413,0
30808295,325,0.0049,0.0303,1.0322,0.0000,-8.6060,-1.2207,30.0000,5.0000,4.0000,0,1,490,1184,407,0
30813293,326,0.0054,0.0283,1.0312,0.1831,-8.0566,-1.1597,30.0000,5.0000,4.0000,0,1,463,1103,395,0
30818288,327,0.0010,0.0288,1.0288,-0.2441,-8.4839,-0.9766,30.0000,5.0000,4.0000,0,1,462,1207,398,0
30823290,328,-0.0005,0.0278,1.0288,-0.5493,-8.1787,-0.9766,30.0000,5.0000,4.0000,0,1,480,1153,423,0
30828286,329,-0.0024,0.0264,1.0273,-0.4883,-8.1787,-0.7935,30.0000,5.0000,4.0000,0,1,464,1168,411,0
30833291,330,-0.0010,0.0254,1.0264,-0.6104,-8.2397,-0.7935,30.0000,5.0000,4.0000,0,1,481,1141,419,0
30838290,331,0.0049,0.0259,1.0278,-0.5493,-7.8735,-0.6714,30.0000,5.0000,4.0000,0,1,480,1129,399,0
30843290,332,0.0093,0.0244,1.0308,-0.5493,-7.3853,-0.6104,33.0000,5.0000,3.0000,1,1,465,1043,423,0
30848288,333,0.0112,0.0229,1.0317,-0.4883,-6.9580,-0.7324,33.0000,5.0000,3.0000,0,1,474,1157,771,0
30853289,334,0.0098,0.0229,1.0303,-0.4272,-6.5308,-0.7324,33.0000,5.0000,3.0000,0,1,480,1160,397,0
30858290,335,0.0078,0.0229,1.0303,-0.4272,-6.3477,-0.7935,33.0000,5.0000,3.0000,0,1,470,1152,396,0
30863291,336,0.0083,0.0229,1.0308,-0.2441,-5.9814,-0.7324,33.0000,5.0000,3.0000,0,1,468,1174,397,0
30868292,337,0.0093,0.0225,1.0293,0.0000,-5.7373,-0.7324,33.0000,5.0000,3.0000,0,1,466,1188,412,0
30873287,338,0.0122,0.0229,1.0283,0.0000,-5.2490,-0.6714,33.0000,5.0000,3.0000,0,1,479,1136,397,0
30878287,339,0.0132,0.0259,1.0278,0.0000,-4.6997,-0.5493,33.0000,5.0000,3.0000,0,1,463,1113,413,0
30883287,340,0.0117,0.0278,1.0278,-0.2441,-4.3945,-0.5493,33.0000,5.0000,3.0000,0,1,472,1113,396,0
30888286,341,0.0103,0.0269,1.0293,-0.3052,-4.2114,-0.4883,33.0000,5.0000,3.0000,0,1,486,1165,412,0
30893290,342,0.0098,0.0254,1.0293,-0.2441,-3.7231,-0.4883,33.0000,5.0000,3.0000,0,1,478,1139,396,0
30898286,343,0.0107,0.0259,1.0288,-0.2441,-3.6011,-0.3662,33.0000,5.0000,3.0000,0,1,471,1068,413,0
30903289,344,0.0127,0.0278,1.0293,-0.4883,-3.2959,-0.2441,33.0000,5.0000,3.0000,0,1,475,1183,409,0
30908292,345,0.0156,0.0278,1.0293,-0.6104,-2.8076,-0.2441,33.0000,5.0000,3.0000,0,1,491,1164,395,0
30913291,346,0.0146,0.0264,1.0293,-0.6714,-2.3804,-0.1221,33.0000,5.0000,3.0000,0,1,463,1175,396,0
30918291,347,0.0107,0.0269,1.0283,-0.7935,-2.3804,0.0610,33.0000,5.0000,3.0000,0,1,479,1139,418,0
30923293,348,0.0093,0.0283,1.0283,-0.8545,-2.3193,0.2441,33.0000,5.0000,3.0000,0,1,464,1179,396,0
30928289,349,0.0107,0.0264,1.0298,-0.9766,-1.8311,0.3052,33.0000,5.0000,3.0000,0,1,481,1187,422,0
30933293,350,0.0098,0.0234,1.0273,-0.9766,-1.5259,0.3052,33.0000,5.0000,3.0000,0,1,470,1144,398,0
30938294,351,0.0068,0.0229,1.0229,-0.9155,-1.6479,0.2441,33.0000,5.0000,3.0000,0,1,478,1145,423,0
30943290,352,0.0044,0.0229,1.0215,-0.7935,-1.7700,0.4272,32.0000,5.0000,3.0000,1,1,465,1085,396,0
30948288,353,0.0049,0.0220,1.0239,-0.7324,-1.7700,0.5493,32.0000,5.0000,3.0000,0,1,476,1152,793,0
30953308,354,0.0088,0.0200,1.0278,-0.7324,-1.7700,0.4883,32.0000,5.0000,3.0000,0,1,464,1169,396,0
30958294,355,0.0112,0.0205,1.0278,-0.5493,-1.5869,0.3662,32.0000,5.0000,3.0000,0,1,470,1165,397,0
30963288,356,0.0107,0.0225,1.0259,-0.4883,-1.4038,0.3052,32.0000,5.0000,3.0000,0,1,507,1156,395,0
30968287,357,0.0093,0.0229,1.0254,-0.4272,-1.2207,0.3662,32.0000,5.0000,3.0000,0,1,491,1143,412,0
30973293,358,0.0088,0.0234,1.0249,-0.3052,-1.1597,0.3662,32.0000,5.0000,3.0000,0,1,463,1149,412,0
30978292,359,0.0088,0.0234,1.0254,-0.2441,-1.0376,0.3052,32.0000,5.0000,3.0000,0,1,489,1143,413,0
30983287,360,0.0107,0.0229,1.0269,-0.3662,-0.8545,0.2441,32.0000,5.0000,3.0000,0,1,482,1138,412,0
30988290,361,0.0117,0.0225,1.0273,-0.3052,-0.7324,0.2441,32.0000,5.0000,3.0000,0,1,473,1149,398,0
30993291,362,0.0103,0.0234,1.0264,-0.3662,-0.5493,0.2441,32.0000,5.0000,3.0000,0,1,481,1137,411,0
30998287,363,0.0068,0.0244,1.0225,-0.1831,-0.6104,0.3662,32.0000,5.0000,3.0000,0,1,489,1148,395,0
31003290,364,0.0034,0.0225,1.0190,-0.1221,-0.4883,0.1831,32.0000,5.0000,3.0000,0,1,487,1185,414,0
31008288,365,0.0039,0.0205,1.0195,-0.0610,-0.6104,0.1831,32.0000,5.0000,3.0000,0,1,463,1149,395,0
31013292,366,0.0068,0.0210,1.0220,0.2441,-0.6714,0.1831,32.0000,5.0000,3.0000,0,1,463,1134,397,0
31018288,367,0.0103,0.0225,1.0239,0.1831,-0.6104,0.1831,32.0000,5.0000,3.0000,0,1,479,1133,418,0
31023293,368,0.0127,0.0244,1.0249,0.2441,-0.5493,0.2441,32.0000,5.0000,3.0000,0,1,463,1145,396,0
31028288,369,0.0127,0.0254,1.0259,0.1831,-0.3662,0.1221,32.0000,5.0000,3.0000,0,1,480,1184,425,0
31033290,370,0.0117,0.0259,1.0259,0.0610,-0.1831,0.0610,32.0000,5.0000,3.0000,0,1,470,1145,424,0
31038291,371,0.0117,0.0249,1.0259,-0.0610,-0.1221,0.1221,32.0000,5.0000,3.0000,0,1,476,1172,417,0
31043289,372,0.0117,0.0244,1.0249,-0.0610,-0.0610,0.1221,33.0000,6.0000,5.0000,1,1,479,1037,423,0
31048294,373,0.0103,0.0249,1.0229,-0.0610,0.0000,0.1221,33.0000,6.0000,5.0000,0,1,465,1160,794,0
31053295,374,0.0083,0.0249,1.0215,-0.0610,0.1221,0.1831,33.0000,6.0000,5.0000,0,1,464,1131,396,0
31058290,375,0.0068,0.0259,1.0220,-0.1221,0.0000,0.1221,33.0000,6.0000,5.0000,0,1,465,1151,396,0
31063290,376,0.0068,0.0259,1.0234,-0.1831,0.0610,0.1221,33.0000,6.0000,5.0000,0,1,507,1125,395,0
31068293,377,0.0093,0.0254,1.0249,-0.3052,0.1221,0.1831,33.0000,6.0000,5.0000,0,1,468,1150,412,0
31073290,378,0.0117,0.0259,1.0254,-0.2441,0.3052,0.1221,33.0000,6.0000,5.0000,0,1,490,1146,398,0
31078295,379,0.0117,0.0264,1.0239,-0.3052,0.4272,0.1221,33.0000,6.0000,5.0000,0,1,464,1147,413,0
31083292,380,0.0117,0.0254,1.0215,-0.4272,0.5493,0.2441,33.0000,6.0000,5.0000,0,1,488,1149,396,0
31088294,381,0.0103,0.0244,1.0215,-0.6104,0.6104,0.2441,33.0000,6.0000,5.0000,0,1,481,1155,412,0
31093292,382,0.0093,0.0244,1.0229,-0.4883,0.7324,0.2441,33.0000,6.0000,5.0000,0,1,490,1146,398,0
31098292,383,0.0103,0.0244,1.0234,-0.5493,0.7935,0.2441,33.0000,6.0000,5.0000,0,1,479,1145,413,0
31103293,384,0.0093,0.0244,1.0220,-0.4272,0.8545,0.2441,33.0000,6.0000,5.0000,0,1,478,1184,395,0
31108290,385,0.0068,0.0239,1.0205,-0.4272,0.8545,0.3052,33.0000,6.0000,5.0000,0,1,490,1207,412,0
31113305,386,0.0049,0.0234,1.0200,-0.4883,0.6714,0.1221,33.0000,6.0000,5.0000,0,1,463,1158,422,0
31118288,387,0.0063,0.0229,1.0210,-0.1831,0.9155,0.1831,33.0000,6.0000,5.0000,0,1,463,1130,399,0
31123292,388,0.0083,0.0229,1.0210,-0.2441,0.7935,0.0000,33.0000,6.0000,5.0000,0,1,463,1172,423,0
31128291,389,0.0098,0.0234,1.0225,-0.1221,0.6104,-0.0610,33.0000,6.0000,5.0000,0,1,477,1108,404,0
31133291,390,0.0083,0.0239,1.0225,-0.0610,0.7935,0.0000,33.0000,6.0000,5.0000,0,1,463,1142,423,0
31138286,391,0.0073,0.0239,1.0215,-0.0610,0.9766,-0.1221,33.0000,6.0000,5.0000,0,1,472,1001,397,0
31143294,392,0.0073,0.0239,1.0225,-0.1221,1.0376,-0.1831,33.0000,5.0000,2.0000,1,1,464,1043,423,0
31148289,393,0.0078,0.0239,1.0234,0.0000,0.9766,-0.1221,33.0000,5.0000,2.0000,0,1,463,1162,783,0
31153291,394,0.0078,0.0229,1.0229,0.0000,1.0376,0.0000,33.0000,5.0000,2.0000,0,1,473,1104,396,0
31158319,395,0.0073,0.0234,1.0229,-0.0610,1.0986,-0.1831,33.0000,5.0000,2.0000,0,1,476,1089,396,0
31163291,396,0.0068,0.0239,1.0234,-0.0610,1.1597,-0.1221,33.0000,5.0000,2.0000,0,1,474,1157,396,0
31168293,397,0.0078,0.0239,1.0244,-0.3052,1.1597,-0.2441,33.0000,5.0000,2.0000,0,1,465,1153,412,0
31173294,398,0.0088,0.0244,1.0249,-0.0610,1.2817,-0.0610,33.0000,5.0000,2.0000,0,1,475,1156,397,0
31178287,399,0.0083,0.0249,1.0229,0.0610,1.3428,-0.0610,33.0000,5.0000,2.0000,0,1,463,1183,413,0
31183294,400,0.0059,0.0234,1.0210,0.0000,1.4038,-0.1221,33.0000,5.0000,2.0000,0,1,482,1155,396,0
31188292,401,0.0029,0.0229,1.0195,-0.0610,1.2207,-0.2441,33.0000,5.0000,2.0000,0,1,486,1097,414,0
31193294,402,0.0044,0.0220,1.0190,-0.0610,1.2207,-0.1831,33.0000,5.0000,2.0000,0,1,476,1155,397,0
31198286,403,0.0073,0.0205,1.0190,0.0610,1.2817,-0.3662,33.0000,5.0000,2.0000,0,1,486,1142,411,0
31203291,404,0.0059,0.0210,1.0181,0.2441,1.2817,-0.4272,33.0000,5.0000,2.0000,0,1,473,1183,395,0
31208289,405,0.0020,0.0210,1.0176,0.1831,1.0986,-0.3662,33.0000,5.0000,2.0000,0,1,491,1189,413,0
31213298,406,-0.0005,0.0215,1.0176,0.3662,0.9155,-0.3662,33.0000,5.0000,2.0000,0,1,462,1161,422,0
31218287,407,0.0010,0.0225,1.0181,0.3662,0.6714,-0.3662,33.0000,5.0000,2.0000,0,1,463,1139,395,0
31223289,408,0.0020,0.0229,1.0186,0.4272,0.4883,-0.4272,33.0000,5.0000,2.0000,0,1,480,1163,424,0
31228291,409,0.0015,0.0234,1.0186,0.4883,0.3052,-0.4883,33.0000,5.0000,2.0000,0,1,474,1182,402,0
31233292,410,0.0020,0.0244,1.0190,0.3052,0.2441,-0.4272,33.0000,5.0000,2.0000,0,1,463,1143,423,0
31238287,411,0.0034,0.0259,1.0205,0.2441,0.1221,-0.4272,33.0000,5.0000,2.0000,0,1,463,1152,397,0
31243292,412,0.0049,0.0259,1.0220,0.1831,0.1221,-0.3052,33.0000,5.0000,2.0000,0,1,475,1182,424,0
31248291,413,0.0078,0.0254,1.0225,0.1221,-0.0610,-0.3052,31.0000,3.0000,5.0000,1,1,477,1126,396,0
31253288,414,0.0088,0.0244,1.0229,0.2441,-0.1221,-0.3052,31.0000,3.0000,5.0000,0,1,481,1172,793,0
31258305,415,0.0073,0.0244,1.0220,0.1831,0.1221,-0.3662,31.0000,3.0000,5.0000,0,1,470,1141,396,0
31263286,416,0.0049,0.0244,1.0215,0.0610,0.0610,-0.3662,31.0000,3.0000,5.0000,0,1,473,1147,396,0
31268288,417,0.0029,0.0244,1.0220,0.1221,0.0000,-0.4272,31.0000,3.0000,5.0000,0,1,508,1192,395,0
31273286,418,0.0044,0.0229,1.0229,0.2441,0.0000,-0.4272,31.0000,3.0000,5.0000,0,1,464,1096,397,0
31278289,419,0.0063,0.0225,1.0229,0.1831,0.0610,-0.3662,31.0000,3.0000,5.0000,0,1,491,1103,399,0
31283286,420,0.0063,0.0225,1.0210,0.2441,0.1221,-0.3052,31.0000,3.0000,5.0000,0,1,482,1147,413,0
31288292,421,0.0054,0.0229,1.0195,0.1831,0.1221,-0.3662,31.0000,3.0000,5.0000,0,1,474,1137,412,0
31293293,422,0.0049,0.0234,1.0210,0.1221,0.0610,-0.4272,31.0000,3.0000,5.0000,0,1,474,1146,398,0
31298294,423,0.0078,0.0239,1.0229,0.1831,0.1831,-0.4272,31.0000,3.0000,5.0000,0,1,484,1126,399,0
31303294,424,0.0093,0.0234,1.0229,0.0610,0.3052,-0.2441,31.0000,3.0000,5.0000,0,1,490,1144,412,0
31308294,425,0.0054,0.0220,1.0195,0.1831,0.3052,-0.3662,31.0000,3.0000,5.0000,0,1,467,1194,415,0
31313292,426,0.0024,0.0220,1.0171,0.3052,0.0610,-0.4272,31.0000,3.0000,5.0000,0,1,490,1151,395,0
31318290,427,0.0024,0.0220,1.0186,0.3052,0.0610,-0.4272,31.0000,3.0000,5.0000,0,1,462,1176,422,0
31323287,428,0.0054,0.0225,1.0205,0.4883,0.0000,-0.4883,31.0000,3.0000,5.0000,0,1,463,1111,398,0
31328287,429,0.0088,0.0239,1.0215,0.5493,0.1831,-0.4272,31.0000,3.0000,5.0000,0,1,464,1093,396,0
31333289,430,0.0083,0.0225,1.0205,0.4883,0.1221,-0.4883,31.0000,3.0000,5.0000,0,1,480,1179,409,0
31338287,431,0.0068,0.0210,1.0200,0.7324,-0.1831,-0.4272,31.0000,3.0000,5.0000,0,1,463,1140,422,0
31343289,432,0.0068,0.0229,1.0215,0.6714,0.0610,-0.4883,31.0000,3.0000,5.0000,0,1,475,1147,397,0
31348290,433,0.0073,0.0249,1.0220,0.6714,0.3052,-0.6104,32.0000,1.0000,3.0000,1,1,473,1142,424,0
31353294,434,0.0073,0.0259,1.0210,0.6714,0.1831,-0.4272,32.0000,1.0000,3.0000,0,1,477,1147,765,0
31358292,435,0.0063,0.0269,1.0215,0.6104,0.2441,-0.3662,32.0000,1.0000,3.0000,0,1,477,1143,424,0
31363305,436,0.0068,0.0264,1.0225,0.4883,0.2441,-0.4272,32.0000,1.0000,3.0000,0,1,465,1142,396,0
31368293,437,0.0088,0.0264,1.0244,0.4272,0.1831,-0.3662,32.0000,1.0000,3.0000,0,1,473,1163,397,0
31373286,438,0.0083,0.0264,1.0259,0.5493,0.1831,-0.1831,32.0000,1.0000,3.0000,0,1,507,1147,395,0
31378290,439,0.0068,0.0259,1.0254,0.3052,0.2441,-0.2441,32.0000,1.0000,3.0000,0,1,465,1149,399,0
31383294,440,0.0059,0.0254,1.0244,0.1221,0.1831,-0.3662,32.0000,1.0000,3.0000,0,1,491,1143,397,0
31388288,441,0.0054,0.0249,1.0225,0.1221,0.2441,-0.1221,32.0000,1.0000,3.0000,0,1,479,1139,413,0
31393293,442,0.0054,0.0244,1.0205,0.0610,0.3052,-0.0610,32.0000,1.0000,3.0000,0,1,472,1138,414,0
31398292,443,0.0063,0.0239,1.0205,0.0000,0.1831,-0.2441,32.0000,1.0000,3.0000,0,1,479,1134,412,0
31403295,444,0.0063,0.0229,1.0225,0.0000,0.1831,-0.1221,32.0000,1.0000,3.0000,0,1,488,1091,404,0
31408292,445,0.0063,0.0234,1.0234,0.1831,0.1831,-0.1831,32.0000,1.0000,3.0000,0,1,489,1123,412,0
31413288,446,0.0054,0.0239,1.0220,0.2441,0.1221,-0.3052,32.0000,1.0000,3.0000,0,1,479,1189,412,0
31418289,447,0.0054,0.0229,1.0200,0.3052,0.0000,-0.3052,32.0000,1.0000,3.0000,0,1,490,1144,395,0
31423286,448,0.0044,0.0215,1.0195,0.2441,-0.2441,-0.3052,32.0000,1.0000,3.0000,0,1,463,1089,398,0
31428290,449,0.0044,0.0220,1.0200,0.3662,-0.3662,-0.3662,32.0000,1.0000,3.0000,0,1,479,1114,413,0
31433289,450,0.0054,0.0239,1.0215,0.3662,-0.3662,-0.4272,32.0000,1.0000,3.0000,0,1,464,1174,397,0
31438292,451,0.0059,0.0254,1.0234,0.3662,-0.2441,-0.3662,32.0000,1.0000,3.0000,0,1,480,1146,397,0
31443288,452,0.0059,0.0254,1.0229,0.4883,-0.3052,-0.3662,32.0000,1.0000,3.0000,0,1,464,1145,423,0
31448288,453,0.0063,0.0249,1.0210,0.4883,-0.3662,-0.3052,32.0000,4.0000,7.0000,1,1,465,1167,415,0
31453288,454,0.0063,0.0249,1.0205,0.3052,-0.4272,-0.3052,32.0000,4.0000,7.0000,0,1,466,1185,809,0
31458289,455,0.0068,0.0254,1.0210,0.1221,-0.4272,-0.3662,32.0000,4.0000,7.0000,0,1,470,1125,415,0
31463288,456,0.0068,0.0254,1.0215,0.2441,-0.4272,-0.1831,32.0000,4.0000,7.0000,0,1,469,1141,397,0
31468318,457,0.0068,0.0254,1.0215,0.2441,-0.3662,-0.3052,32.0000,4.0000,7.0000,0,1,473,1150,397,0
31473292,458,0.0068,0.0254,1.0225,0.2441,-0.3052,-0.2441,32.0000,4.0000,7.0000,0,1,467,1166,396,0
31478294,459,0.0068,0.0254,1.0234,0.1831,-0.3052,-0.2441,32.0000,4.0000,7.0000,0,1,507,1174,395,0
31483289,460,0.0073,0.0244,1.0244,0.1831,-0.1221,-0.2441,32.0000,4.0000,7.0000,0,1,466,1149,397,0
31488286,461,0.0088,0.0239,1.0249,0.1831,-0.0610,-0.2441,32.0000,4.0000,7.0000,0,1,491,1153,399,0
31493293,462,0.0078,0.0239,1.0244,0.3662,-0.0610,-0.1831,32.0000,4.0000,7.0000,0,1,491,1150,412,0
31498287,463,0.0078,0.0239,1.0220,0.2441,0.1831,-0.1831,32.0000,4.0000,7.0000,0,1,490,1154,397,0
31503291,464,0.0088,0.0234,1.0200,0.2441,0.1831,-0.1831,32.0000,4.0000,7.0000,0,1,484,1152,412,0
31508289,465,0.0083,0.0244,1.0200,0.3662,0.2441,-0.3052,32.0000,4.0000,7.0000,0,1,482,1139,405,0
31513293,466,0.0063,0.0249,1.0215,0.2441,0.1831,-0.2441,32.0000,4.0000,7.0000,0,1,490,1138,413,0
31518293,467,0.0063,0.0249,1.0229,0.2441,0.2441,-0.3052,32.0000,4.0000,7.0000,0,1,474,1180,411,0
31523289,468,0.0083,0.0254,1.0234,0.3052,0.2441,-0.2441,32.0000,4.0000,7.0000,0,1,490,1158,395,0
31528288,469,0.0103,0.0254,1.0225,0.3662,0.1831,-0.2441,32.0000,4.0000,7.0000,0,1,462,1186,423,0
31533286,470,0.0093,0.0249,1.0205,0.3052,0.2441,-0.3052,32.0000,4.0000,7.0000,0,1,480,1137,409,0
31538289,471,0.0063,0.0244,1.0200,0.3052,0.1831,-0.2441,32.0000,4.0000,7.0000,0,1,464,1143,423,0
31543294,472,0.0049,0.0244,1.0210,0.3052,-0.0610,-0.1221,32.0000,4.0000,7.0000,0,1,480,1146,397,0
31548289,473,0.0059,0.0249,1.0220,0.3052,0.0000,-0.0610,32.0000,5.0000,4.0000,1,1,463,1137,423,0
31553292,474,0.0063,0.0264,1.0229,0.1831,-0.0610,-0.1221,32.0000,5.0000,4.0000,0,1,477,1082,772,0
31558287,475,0.0073,0.0259,1.0234,0.1831,0.1221,-0.2441,32.0000,5.0000,4.0000,0,1,477,1055,423,0
31563286,476,0.0078,0.0249,1.0225,0.2441,0.1221,-0.2441,32.0000,5.0000,4.0000,0,1,466,1046,419,0
31568292,477,0.0073,0.0249,1.0210,0.2441,0.0000,-0.1221,32.0000,5.0000,4.0000,0,1,471,1147,396,0
31573287,478,0.0078,0.0264,1.0215,0.2441,-0.1831,-0.1221,32.0000,5.0000,4.0000,0,1,472,1126,396,0
31578289,479,0.0088,0.0264,1.0239,0.2441,-0.2441,-0.2441,32.0000,5.0000,4.0000,0,1,480,1146,395,0
31583290,480,0.0093,0.0264,1.0244,0.2441,0.0610,-0.2441,32.0000,5.0000,4.0000,0,1,507,1182,395,0
31588290,481,0.0083,0.0264,1.0234,0.1221,0.1221,-0.3052,32.0000,5.0000,4.0000,0,1,470,1149,398,0
31593289,482,0.0083,0.0259,1.0225,0.1221,0.1221,-0.1831,32.0000,5.0000,4.0000,0,1,491,1140,405,0
31598287,483,0.0093,0.0264,1.0229,0.1221,0.2441,-0.1831,32.0000,5.0000,4.0000,0,1,489,1141,412,0
31603289,484,0.0103,0.0269,1.0239,0.1221,0.3052,-0.1831,32.0000,5.0000,4.0000,0,1,481,1146,412,0
31608290,485,0.0098,0.0269,1.0244,0.0000,0.3662,-0.1831,32.0000,5.0000,4.0000,0,1,478,1143,397,0
31613294,486,0.0093,0.0269,1.0244,0.0000,0.4883,-0.2441,32.0000,5.0000,4.0000,0,1,486,1093,405,0
31618288,487,0.0088,0.0249,1.0234,0.0000,0.6104,-0.1831,32.0000,5.0000,4.0000,0,1,491,1128,412,0
31623293,488,0.0088,0.0239,1.0229,0.0610,0.6714,-0.0610,32.0000,5.0000,4.0000,0,1,477,1092,408,0
31628292,489,0.0083,0.0244,1.0225,0.0000,0.7324,-0.1221,32.0000,5.0000,4.0000,0,1,490,1150,395,0
31633289,490,0.0078,0.0244,1.0215,0.0610,0.7324,-0.2441,32.0000,5.0000,4.0000,0,1,463,1118,423,0
31638293,491,0.0078,0.0244,1.0210,0.1831,0.6714,-0.1221,32.0000,5.0000,4.0000,0,1,463,1138,396,0
31643288,492,0.0083,0.0234,1.0220,0.1221,0.8545,-0.3052,32.0000,5.0000,4.0000,0,1,465,1144,423,0
31648294,493,0.0073,0.0229,1.0225,0.2441,0.7324,-0.2441,32.0000,6.0000,3.0000,1,1,480,1138,397,0
31653291,494,0.0063,0.0239,1.0215,0.3052,0.8545,-0.2441,32.0000,6.0000,3.0000,0,1,463,1140,797,0
31658289,495,0.0063,0.0249,1.0195,0.2441,0.9155,-0.2441,32.0000,6.0000,3.0000,0,1,469,1170,397,0
31663290,496,0.0054,0.0244,1.0200,0.4272,0.8545,-0.2441,32.0000,6.0000,3.0000,0,1,471,1180,423,0
31668289,497,0.0049,0.0244,1.0210,0.3662,0.7935,-0.2441,32.0000,6.0000,3.0000,0,1,475,1048,397,0
31673288,498,0.0054,0.0249,1.0205,0.4272,0.8545,-0.3052,32.0000,6.0000,3.0000,0,1,479,1123,415,0
31678288,499,0.0063,0.0254,1.0215,0.4883,0.7935,-0.1831,32.0000,6.0000,3.0000,0,1,464,1139,396,0
31683291,500,0.0078,0.0269,1.0225,0.4272,0.8545,-0.3052,32.0000,6.0000,3.0000,0,1,476,1166,397,0
31688286,501,0.0088,0.0278,1.0225,0.4272,0.9766,-0.2441,32.0000,6.0000,3.0000,0,1,480,1139,395,0
31693293,502,0.0078,0.0273,1.0229,0.4272,1.0986,-0.3662,32.0000,6.0000,3.0000,0,1,465,1144,397,0
31698286,503,0.0068,0.0259,1.0225,0.4272,1.0376,-0.4272,32.0000,6.0000,3.0000,0,1,491,1151,398,0
31703291,504,0.0073,0.0239,1.0220,0.4883,1.0986,-0.2441,32.0000,6.0000,3.0000,0,1,477,1143,412,0
31708290,505,0.0088,0.0229,1.0234,0.6104,1.2817,-0.1831,32.0000,6.0000,3.0000,0,1,473,1146,398,0
31713290,506,0.0103,0.0254,1.0254,0.4883,1.2207,-0.2441,32.0000,6.0000,3.0000,0,1,481,1144,412,0
31718293,507,0.0112,0.0278,1.0273,0.2441,1.4038,-0.1831,32.0000,6.0000,3.0000,0,1,490,1132,398,0
31723286,508,0.0107,0.0288,1.0273,0.2441,1.7700,-0.1831,32.0000,6.0000,3.0000,0,1,472,1145,413,0
31728292,509,0.0088,0.0283,1.0244,0.1831,1.9531,-0.1831,32.0000,6.0000,3.0000,0,1,488,1179,396,0
31733290,510,0.0063,0.0269,1.0220,0.1221,1.7700,-0.0610,32.0000,6.0000,3.0000,0,1,490,1190,412,0
31738294,511,0.0059,0.0259,1.0229,0.0000,1.7700,-0.0610,32.0000,6.0000,3.0000,0,1,463,1146,423,0
31743291,512,0.0068,0.0249,1.0249,0.0000,1.8921,-0.0610,32.0000,6.0000,3.0000,0,1,462,1108,423,0
31748290,513,0.0073,0.0259,1.0249,0.1221,2.0142,-0.1221,32.0000,4.0000,4.0000,1,1,480,1098,402,0
31753287,514,0.0063,0.0269,1.0239,0.1221,2.0752,-0.1221,32.0000,4.0000,4.0000,0,1,464,1141,776,0
31758286,515,0.0044,0.0264,1.0234,0.0610,2.1362,-0.1221,32.0000,4.0000,4.0000,0,1,480,1142,414,0
31763292,516,0.0029,0.0259,1.0220,0.0610,2.1973,-0.1221,32.0000,4.0000,4.0000,0,1,475,1145,395,0
31768292,517,0.0020,0.0259,1.0195,-0.0610,2.0752,-0.0610,32.0000,4.0000,4.0000,0,1,472,1168,425,0
31773286,518,0.0015,0.0254,1.0205,-0.0610,1.8921,-0.1221,32.0000,4.0000,4.0000,0,1,476,1036,423,0
31778294,519,0.0015,0.0254,1.0215,0.0000,1.8311,-0.1221,32.0000,4.0000,4.0000,0,1,466,1105,417,0
31783287,520,0.0029,0.0254,1.0215,-0.1221,1.8921,-0.2441,32.0000,4.0000,4.0000,0,1,481,1059,396,0
31788312,521,0.0044,0.0254,1.0225,-0.0610,2.0142,-0.1831,32.0000,4.0000,4.0000,0,1,467,1161,396,0
31793291,522,0.0034,0.0249,1.0225,-0.0610,1.8921,-0.0610,32.0000,4.0000,4.0000,0,1,480,1141,395,0
31798294,523,0.0029,0.0254,1.0215,-0.0610,1.9531,-0.1221,32.0000,4.0000,4.0000,0,1,465,1144,412,0
31803289,524,0.0020,0.0249,1.0200,0.0000,1.9531,-0.0610,32.0000,4.0000,4.0000,0,1,491,1143,398,0
31808291,525,-0.0010,0.0234,1.0176,0.1221,1.8311,-0.1831,32.0000,4.0000,4.0000,0,1,470,1101,413,0
31813290,526,-0.0039,0.0234,1.0151,0.1221,1.7090,-0.4272,32.0000,4.0000,4.0000,0,1,471,1137,399,0
31818286,527,-0.0039,0.0225,1.0142,0.1221,1.4648,-0.3052,32.0000,4.0000,4.0000,0,1,485,1145,412,0
31823295,528,-0.0020,0.0220,1.0161,0.2441,1.2207,-0.4272,32.0000,4.0000,4.0000,0,1,478,1130,399,0
31828294,529,0.0010,0.0244,1.0200,0.4883,1.0986,-0.3662,32.0000,4.0000,4.0000,0,1,479,1064,412,0
31833293,530,0.0034,0.0273,1.0220,0.4272,1.2817,-0.3052,32.0000,4.0000,4.0000,0,1,490,1170,396,0
31838293,531,0.0044,0.0278,1.0215,0.3052,1.4648,-0.3662,32.0000,4.0000,4.0000,0,1,490,1210,395,0
31843306,532,0.0034,0.0273,1.0205,0.3662,1.4038,-0.2441,32.0000,4.0000,4.0000,0,1,463,1156,395,0
31848290,533,0.0020,0.0264,1.0205,0.2441,1.2817,-0.2441,32.0000,4.0000,11.0000,1,1,462,1190,423,0
31853286,534,0.0015,0.0254,1.0205,0.3052,1.4038,-0.4272,32.0000,4.0000,11.0000,0,1,480,1170,787,0
31858294,535,0.0010,0.0254,1.0200,0.4272,1.4648,-0.4883,32.0000,4.0000,11.0000,0,1,478,1189,397,0
31863286,536,0.0010,0.0264,1.0200,0.4272,1.4648,-0.2441,32.0000,4.0000,11.0000,0,1,463,1162,423,0
31868294,537,0.0015,0.0273,1.0205,0.3662,1.4648,-0.3052,32.0000,4.0000,11.0000,0,1,470,1165,401,0
31873287,538,0.0010,0.0273,1.0200,0.4272,1.4038,-0.3662,32.0000,4.0000,11.0000,0,1,467,1192,418,0
31878288,539,0.0005,0.0269,1.0205,0.3662,1.3428,-0.3662,32.0000,4.0000,11.0000,0,1,481,1077,422,0
31883291,540,0.0005,0.0269,1.0210,0.3662,1.4038,-0.3662,32.0000,4.0000,11.0000,0,1,464,1171,423,0
31888293,541,0.0015,0.0278,1.0205,0.4883,1.4038,-0.3662,32.0000,4.0000,11.0000,0,1,465,1160,396,0
31893290,542,0.0015,0.0273,1.0190,0.4272,1.4038,-0.3662,32.0000,4.0000,11.0000,0,1,480,1165,396,0
31898294,543,-0.0005,0.0259,1.0171,0.3052,1.3428,-0.4272,32.0000,4.0000,11.0000,0,1,507,1166,395,0
31903295,544,-0.0024,0.0254,1.0176,0.3662,1.4038,-0.4883,32.0000,4.0000,11.0000,0,1,464,1155,399,0
31908292,545,-0.0020,0.0254,1.0190,0.4883,1.2817,-0.4883,32.0000,4.0000,11.0000,0,1,491,1165,397,0
31913288,546,-0.0024,0.0244,1.0205,0.4272,1.0986,-0.4272,32.0000,4.0000,11.0000,0,1,464,1163,397,0
31918292,547,-0.0020,0.0239,1.0210,0.4883,1.0376,-0.4272,32.0000,4.0000,11.0000,0,1,491,1172,397,0
31923294,548,0.0000,0.0244,1.0220,0.4272,1.0986,-0.5493,32.0000,4.0000,11.0000,0,1,474,1161,412,0
31928294,549,0.0015,0.0259,1.0229,0.3662,0.9766,-0.4883,32.0000,4.0000,11.0000,0,1,482,1120,398,0
31933292,550,0.0015,0.0283,1.0229,0.3052,0.9766,-0.4272,32.0000,4.0000,11.0000,0,1,488,1153,412,0
31938287,551,0.0020,0.0283,1.0229,0.3052,0.9155,-0.3662,32.0000,4.0000,11.0000,0,1,474,1188,407,0
31943289,552,0.0020,0.0259,1.0220,0.1221,0.8545,-0.3662,32.0000,4.0000,11.0000,0,1,490,1239,395,0
31948306,553,0.0015,0.0244,1.0205,0.1221,0.6714,-0.4272,31.0000,5.0000,5.0000,1,1,462,1168,423,0
31953294,554,0.0010,0.0239,1.0215,0.1221,0.5493,-0.4272,31.0000,5.0000,5.0000,0,1,463,1142,786,0
31958289,555,0.0000,0.0249,1.0229,-0.0610,0.5493,-0.3052,31.0000,5.0000,5.0000,0,1,480,1159,420,0
31963291,556,0.0000,0.0254,1.0220,-0.1221,0.6104,-0.2441,31.0000,5.0000,5.0000,0,1,478,1107,397,0
31968287,557,-0.0005,0.0249,1.0200,0.0610,0.5493,-0.2441,31.0000,5.0000,5.0000,0,1,463,1100,423,0
31973293,558,0.0000,0.0254,1.0229,0.0610,0.3052,-0.1221,31.0000,5.0000,5.0000,0,1,465,1145,423,0
31978289,559,0.0005,0.0264,1.0234,0.0000,0.3052,-0.1221,31.0000,5.0000,5.0000,0,1,463,995,423,0
31983295,560,0.0000,0.0259,1.0220,-0.0610,0.2441,-0.0610,31.0000,5.0000,5.0000,0,1,474,1060,396,0
31988287,561,-0.0015,0.0244,1.0186,0.0000,0.1831,-0.1221,31.0000,5.0000,5.0000,0,1,471,1074,418,0
31993289,562,-0.0020,0.0234,1.0166,0.0000,0.1831,-0.1221,31.0000,5.0000,5.0000,0,1,464,1095,397,0
31998290,563,-0.0024,0.0229,1.0176,0.1221,0.1221,-0.1221,31.0000,5.0000,5.0000,0,1,477,1099,396,0
32003289,564,-0.0034,0.0244,1.0190,0.1831,0.0000,-0.0610,31.0000,5.0000,5.0000,0,1,480,1162,395,0
32008292,565,-0.0029,0.0259,1.0195,0.2441,-0.1831,-0.1831,31.0000,5.0000,5.0000,0,1,465,1105,412,0
32013289,566,-0.0020,0.0254,1.0195,0.3662,-0.1831,-0.1831,31.0000,5.0000,5.0000,0,1,472,1154,398,0
32018290,567,-0.0010,0.0249,1.0200,0.2441,-0.3052,-0.2441,31.0000,5.0000,5.0000,0,1,491,1152,415,0
32023294,568,-0.0010,0.0254,1.0215,0.2441,-0.3662,-0.3662,31.0000,5.0000,5.0000,0,1,490,1144,397,0
32028287,569,-0.0005,0.0254,1.0220,0.4272,-0.3662,-0.3052,31.0000,5.0000,5.0000,0,1,472,1146,412,0
32033294,570,0.0005,0.0249,1.0210,0.4272,-0.4272,-0.2441,31.0000,5.0000,5.0000,0,1,486,1130,398,0
32038286,571,0.0010,0.0249,1.0200,0.6104,-0.4272,-0.3662,31.0000,5.0000,5.0000,0,1,487,1137,414,0
32043289,572,0.0005,0.0254,1.0200,0.5493,-0.4272,-0.3052,31.0000,5.0000,5.0000,0,1,474,1170,396,0
32048287,573,0.0005,0.0259,1.0215,0.3662,-0.4883,-0.3662,31.0000,5.0000,5.0000,0,1,473,1129,414,0
32053287,574,0.0020,0.0254,1.0234,0.4883,-0.6104,-0.2441,32.0000,3.0000,4.0000,1,1,490,1152,395,0
32058295,575,0.0020,0.0249,1.0239,0.4272,-0.4272,-0.3052,32.0000,3.0000,4.0000,0,1,462,1142,806,0
32063292,576,0.0005,0.0259,1.0210,0.4883,-0.3052,-0.3052,32.0000,3.0000,4.0000,0,1,479,1162,400,0
32068291,577,0.0000,0.0269,1.0200,0.4883,-0.4883,-0.3052,32.0000,3.0000,4.0000,0,1,463,1128,397,0
32073289,578,0.0010,0.0283,1.0215,0.3052,-0.4883,-0.2441,32.0000,3.0000,4.0000,0,1,481,1095,412,0
32078291,579,0.0029,0.0298,1.0225,0.3052,-0.4272,-0.2441,32.0000,3.0000,4.0000,0,1,469,1138,422,0
32083286,580,0.0049,0.0293,1.0229,0.3662,-0.2441,-0.2441,32.0000,3.0000,4.0000,0,1,471,1142,401,0
32088290,581,0.0044,0.0278,1.0225,0.2441,-0.2441,-0.2441,32.0000,3.0000,4.0000,0,1,477,1051,423,0
32093294,582,0.0034,0.0273,1.0225,0.3052,-0.1831,-0.2441,32.0000,3.0000,4.0000,0,1,480,1131,402,0
32098286,583,0.0034,0.0278,1.0225,0.2441,-0.0610,-0.1831,32.0000,3.0000,4.0000,0,1,479,1155,397,0
32103319,584,0.0029,0.0269,1.0234,0.0610,0.1221,-0.1831,32.0000,3.0000,4.0000,0,1,469,1149,396,0
32108288,585,0.0020,0.0259,1.0234,0.0000,0.1221,-0.3052,32.0000,3.0000,4.0000,0,1,478,1140,396,0
32113292,586,0.0010,0.0254,1.0225,0.0000,0.0000,-0.3052,32.0000,3.0000,4.0000,0,1,489,1092,395,0
32118289,587,0.0015,0.0249,1.0205,0.0610,0.0610,-0.1831,32.0000,3.0000,4.0000,0,1,465,1039,398,0
32123289,588,0.0024,0.0259,1.0200,0.0610,0.1221,-0.1831,32.0000,3.0000,4.0000,0,1,491,1141,414,0
32128292,589,0.0029,0.0269,1.0215,0.0610,0.0610,-0.1221,32.0000,3.0000,4.0000,0,1,485,1140,397,0
32133288,590,0.0024,0.0283,1.0229,0.0610,0.0000,-0.1831,32.0000,3.0000,4.0000,0,1,489,1136,409,0
32138290,591,0.0020,0.0283,1.0229,0.0610,0.0610,-0.3662,32.0000,3.0000,4.0000,0,1,482,1094,398,0
32143292,592,0.0024,0.0278,1.0220,0.0610,0.0610,-0.2441,32.0000,3.0000,4.0000,0,1,480,1136,412,0
32148291,593,0.0034,0.0273,1.0210,0.0610,0.0610,-0.2441,32.0000,3.0000,4.0000,0,1,486,1143,397,0
32153287,594,0.0029,0.0273,1.0200,0.0000,0.1221,-0.3662,31.0000,5.0000,2.0000,1,1,469,1132,413,0
32158293,595,0.0029,0.0273,1.0200,0.0610,0.1831,-0.2441,31.0000,5.0000,2.0000,0,1,490,1098,766,0
32163290,596,0.0024,0.0264,1.0220,0.0610,0.1221,-0.2441,31.0000,5.0000,2.0000,0,1,463,1185,423,0
32168286,597,0.0015,0.0264,1.0244,0.0610,0.1831,-0.2441,31.0000,5.0000,2.0000,0,1,480,1160,401,0
32173293,598,0.0010,0.0259,1.0244,0.0610,0.1831,-0.1221,31.0000,5.0000,2.0000,0,1,464,1175,397,0
32178290,599,0.0005,0.0269,1.0229,0.0610,0.1831,-0.2441,31.0000,5.0000,2.0000,0,1,480,1140,396,0
32183294,600,0.0000,0.0273,1.0220,0.0000,0.3052,-0.3662,31.0000,5.0000,2.0000,0,1,464,1145,423,0
32188289,601,0.0005,0.0269,1.0215,-0.0610,0.1221,-0.3662,31.0000,5.0000,2.0000,0,1,468,1039,403,0
32193290,602,0.0010,0.0269,1.0229,0.0610,0.1221,-0.3052,31.0000,5.0000,2.0000,0,1,476,1033,423,0
32198290,603,0.0010,0.0273,1.0239,0.0610,0.1831,-0.1831,31.0000,5.0000,2.0000,0,1,464,1106,420,0
32203291,604,0.0005,0.0273,1.0234,0.0000,0.1221,-0.2441,31.0000,5.0000,2.0000,0,1,467,1147,396,0
32208299,605,0.0005,0.0273,1.0225,0.0610,0.2441,-0.3052,31.0000,5.0000,2.0000,0,1,468,1096,396,0
32213287,606,0.0010,0.0283,1.0220,0.0000,0.1221,-0.3052,31.0000,5.0000,2.0000,0,1,480,1169,395,0
32218289,607,0.0015,0.0283,1.0210,-0.0610,0.1221,-0.3662,31.0000,5.0000,2.0000,0,1,490,1090,412,0
32223289,608,0.0010,0.0278,1.0205,0.0000,0.1831,-0.3052,31.0000,5.0000,2.0000,0,1,479,1140,398,0
32228290,609,0.0005,0.0273,1.0210,0.0610,0.3052,-0.2441,31.0000,5.0000,2.0000,0,1,464,1094,413,0
32233288,610,0.0010,0.0269,1.0225,0.1221,0.2441,-0.2441,31.0000,5.0000,2.0000,0,1,483,1137,396,0
32238286,611,0.0020,0.0269,1.0229,0.1221,0.1831,-0.3052,31.0000,5.0000,2.0000,0,1,491,1141,413,0
32243291,612,0.0029,0.0278,1.0234,0.1221,0.3052,-0.3052,31.0000,5.0000,2.0000,0,1,484,1131,398,0
32248290,613,0.0029,0.0273,1.0225,0.0610,0.3052,-0.3052,31.0000,5.0000,2.0000,0,1,478,1054,413,0
32253286,614,0.0015,0.0269,1.0215,0.1221,0.3662,-0.3662,32.0000,7.0000,4.0000,1,1,491,1165,397,0
32258286,615,-0.0005,0.0259,1.0200,0.0610,0.1831,-0.3052,32.0000,7.0000,4.0000,0,1,490,1143,781,0
32263306,616,0.0000,0.0249,1.0205,0.1831,0.1831,-0.3052,32.0000,7.0000,4.0000,0,1,463,1172,422,0
32268286,617,0.0024,0.0254,1.0215,0.0000,0.1221,-0.3662,32.0000,7.0000,4.0000,0,1,463,1109,398,0
32273291,618,0.0034,0.0269,1.0225,0.0610,0.0000,-0.2441,32.0000,7.0000,4.0000,0,1,464,1127,423,0
32278292,619,0.0020,0.0283,1.0229,0.1221,0.2441,-0.1831,32.0000,7.0000,4.0000,0,1,478,1100,423,0
32283289,620,0.0015,0.0283,1.0229,0.1221,0.3662,-0.2441,32.0000,7.0000,4.0000,0,1,463,1149,421,0
32288286,621,0.0015,0.0264,1.0225,-0.1221,0.3662,-0.3052,32.0000,7.0000,4.0000,0,1,472,1175,396,0
32293292,622,0.0010,0.0249,1.0225,0.0000,0.3052,-0.4272,32.0000,7.0000,4.0000,0,1,482,1136,425,0
32298290,623,0.0024,0.0249,1.0220,0.0610,0.3052,-0.3662,32.0000,7.0000,4.0000,0,1,479,1065,396,0
32303286,624,0.0034,0.0254,1.0220,0.0000,0.3052,-0.2441,32.0000,7.0000,4.0000,0,1,464,1125,396,0
32308293,625,0.0024,0.0259,1.0225,0.1221,0.3052,-0.3052,32.0000,7.0000,4.0000,0,1,475,1117,396,0
32313287,626,0.0010,0.0264,1.0225,0.1221,0.3052,-0.2441,32.0000,7.0000,4.0000,0,1,480,1155,395,0
32318287,627,0.0005,0.0269,1.0220,0.0610,0.4272,-0.2441,32.0000,7.0000,4.0000,0,1,480,1135,395,0
32323291,628,0.0015,0.0269,1.0210,0.1221,0.5493,-0.2441,32.0000,7.0000,4.0000,0,1,464,1142,397,0
32328293,629,0.0024,0.0273,1.0210,0.1221,0.6104,-0.1831,32.0000,7.0000,4.0000,0,1,491,1141,397,0
32333292,630,0.0034,0.0283,1.0220,0.0000,0.5493,-0.1831,32.0000,7.0000,4.0000,0,1,470,1142,396,0
32338287,631,0.0029,0.0283,1.0220,0.0610,0.5493,-0.1831,32.0000,7.0000,4.0000,0,1,480,1134,408,0
32343287,632,0.0020,0.0269,1.0205,0.0000,0.6714,-0.2441,32.0000,7.0000,4.0000,0,1,472,1148,399,0
32348288,633,0.0015,0.0269,1.0200,0.0000,0.6104,-0.3052,32.0000,7.0000,4.0000,0,1,471,1096,414,0
32353291,634,0.0015,0.0273,1.0205,0.1221,0.6104,-0.1221,33.0000,4.0000,5.0000,1,1,479,1079,396,0
32358286,635,0.0020,0.0273,1.0215,0.0610,0.7324,-0.1831,33.0000,4.0000,5.0000,0,1,484,1142,775,0
32363294,636,0.0015,0.0269,1.0225,-0.0610,0.7324,-0.2441,33.0000,4.0000,5.0000,0,1,490,1159,395,0
32368309,637,0.0005,0.0264,1.0215,0.1221,0.7324,-0.1221,33.0000,4.0000,5.0000,0,1,463,1158,422,0
32373290,638,0.0005,0.0269,1.0195,0.0610,0.6104,-0.1831,33.0000,4.0000,5.0000,0,1,462,1112,398,0
32378292,639,0.0015,0.0273,1.0200,0.0000,0.7324,-0.1831,33.0000,4.0000,5.0000,0,1,465,1145,419,0
32383291,640,0.0020,0.0273,1.0200,0.1831,0.8545,-0.3052,33.0000,4.0000,5.0000,0,1,478,1107,423,0
32388291,641,0.0010,0.0269,1.0205,0.1221,0.7324,-0.3052,33.0000,4.0000,5.0000,0,1,463,1149,425,0
32393288,642,0.0015,0.0259,1.0205,-0.0610,0.7324,-0.1831,33.0000,4.0000,5.0000,0,1,468,1171,396,0
32398293,643,0.0015,0.0264,1.0215,0.0000,0.8545,-0.1831,33.0000,4.0000,5.0000,0,1,474,1179,426,0
32403293,644,0.0005,0.0278,1.0220,0.0610,0.8545,-0.1221,33.0000,4.0000,5.0000,0,1,473,1083,397,0
32408291,645,0.0000,0.0293,1.0210,0.0000,0.8545,0.0000,33.0000,4.0000,5.0000,0,1,478,1123,397,0
32413292,646,0.0005,0.0288,1.0205,0.0000,0.9155,-0.0610,33.0000,4.0000,5.0000,0,1,479,986,396,0
32418308,647,0.0010,0.0278,1.0210,-0.0610,1.0376,-0.1831,33.0000,4.0000,5.0000,0,1,478,1122,397,0
32423294,648,0.0015,0.0264,1.0220,-0.1221,1.0986,-0.1221,33.0000,4.0000,5.0000,0,1,480,1175,395,0
32428292,649,0.0020,0.0269,1.0234,-0.1221,1.0376,-0.1831,33.0000,4.0000,5.0000,0,1,490,1143,412,0
32433293,650,0.0020,0.0273,1.0239,0.0610,0.9766,-0.0610,33.0000,4.0000,5.0000,0,1,489,1151,398,0
32438293,651,0.0015,0.0269,1.0239,-0.0610,1.0986,-0.1831,33.0000,4.0000,5.0000,0,1,464,1148,397,0
32443294,652,0.0005,0.0264,1.0239,-0.1221,1.0986,-0.1831,33.0000,4.0000,5.0000,0,1,491,1151,396,0
32448288,653,0.0005,0.0269,1.0225,-0.0610,1.0376,-0.1221,33.0000,4.0000,5.0000,0,1,489,1149,412,0
32453291,654,0.0005,0.0264,1.0215,-0.1221,1.1597,-0.1831,33.0000,6.0000,3.0000,1,1,483,1130,398,0
32458288,655,0.0005,0.0259,1.0220,-0.1221,1.2207,-0.1831,33.0000,6.0000,3.0000,0,1,491,1139,781,0
32463289,656,0.0010,0.0264,1.0220,-0.1831,1.1597,-0.1221,33.0000,6.0000,3.0000,0,1,480,1181,405,0
32468286,657,0.0000,0.0264,1.0210,-0.1221,1.0986,0.0000,33.0000,6.0000,3.0000,0,1,490,1148,395,0
32473295,658,-0.0015,0.0254,1.0205,-0.1221,1.0986,-0.1831,33.0000,6.0000,3.0000,0,1,463,1057,423,0
32478295,659,-0.0015,0.0269,1.0215,-0.1221,1.0986,-0.2441,33.0000,6.0000,3.0000,0,1,463,1161,422,0
32483291,660,0.0005,0.0283,1.0229,-0.1831,1.0376,-0.1831,33.0000,6.0000,3.0000,0,1,464,1145,425,0
32488287,661,0.0024,0.0278,1.0244,-0.1831,1.2207,-0.1221,33.0000,6.0000,3.0000,0,1,481,1150,422,0
32493291,662,0.0020,0.0264,1.0234,-0.2441,1.2817,-0.1221,33.0000,6.0000,3.0000,0,1,463,1155,423,0
32498293,663,0.0005,0.0259,1.0220,-0.2441,1.1597,-0.1221,33.0000,6.0000,3.0000,0,1,473,1150,396,0
32503293,664,-0.0005,0.0249,1.0215,-0.3052,1.2817,-0.1221,33.0000,6.0000,3.0000,0,1,477,1140,421,0
32508294,665,-0.0010,0.0239,1.0210,-0.3052,1.2817,-0.1221,33.0000,6.0000,3.0000,0,1,479,1046,397,0
32513290,666,-0.0005,0.0254,1.0210,-0.2441,1.0986,-0.1221,33.0000,6.0000,3.0000,0,1,465,1121,419,0
32518288,667,-0.0010,0.0264,1.0210,-0.2441,0.9766,-0.1831,33.0000,6.0000,3.0000,0,1,471,1139,396,0
32523292,668,-0.0020,0.0254,1.0210,-0.3052,0.9766,-0.2441,33.0000,6.0000,3.0000,0,1,479,1165,395,0
32528292,669,-0.0020,0.0249,1.0215,-0.1221,1.0986,-0.2441,33.0000,6.0000,3.0000,0,1,480,1191,395,0
32533295,670,-0.0015,0.0254,1.0220,-0.2441,1.0986,-0.1831,33.0000,6.0000,3.0000,0,1,465,1149,397,0
32538286,671,0.0000,0.0259,1.0225,-0.2441,1.0986,-0.0610,33.0000,6.0000,3.0000,0,1,491,1150,397,0
32543294,672,0.0005,0.0264,1.0220,-0.2441,1.2207,-0.1831,33.0000,6.0000,3.0000,0,1,475,1108,397,0
32548289,673,-0.0005,0.0269,1.0210,-0.2441,1.1597,-0.1221,33.0000,6.0000,3.0000,0,1,488,1146,397,0
32553288,674,-0.0020,0.0273,1.0210,-0.1831,1.1597,0.0000,32.0000,4.0000,7.0000,1,1,483,1169,412,0
32558289,675,-0.0029,0.0269,1.0205,-0.1831,1.2207,-0.1831,32.0000,4.0000,7.0000,0,1,489,1120,768,0
32563286,676,-0.0034,0.0259,1.0186,-0.0610,1.0986,-0.2441,32.0000,4.0000,7.0000,0,1,479,1148,397,0
32568291,677,-0.0044,0.0249,1.0176,-0.1221,0.8545,-0.1831,32.0000,4.0000,7.0000,0,1,490,1186,404,0
32573290,678,-0.0044,0.0234,1.0181,0.0000,0.7324,-0.1831,32.0000,4.0000,7.0000,0,1,491,1150,395,0
32578290,679,-0.0034,0.0239,1.0186,-0.1221,0.9155,-0.1831,32.0000,4.0000,7.0000,0,1,463,1087,422,0
32583295,680,-0.0029,0.0254,1.0190,0.0610,0.7935,-0.1831,32.0000,4.0000,7.0000,0,1,463,1165,423,0
32588291,681,-0.0049,0.0254,1.0195,0.1221,0.6104,-0.2441,32.0000,4.0000,7.0000,0,1,463,1145,425,0
32593289,682,-0.0049,0.0249,1.0195,0.1831,0.4883,-0.3052,32.0000,4.0000,7.0000,0,1,481,1141,395,0
32598295,683,-0.0024,0.0249,1.0205,0.1831,0.3662,-0.2441,32.0000,4.0000,7.0000,0,1,464,1146,423,0
32603291,684,-0.0015,0.0254,1.0205,0.0610,0.5493,-0.3662,32.0000,4.0000,7.0000,0,1,480,1156,398,0
32608286,685,-0.0015,0.0259,1.0200,0.1221,0.4883,-0.2441,32.0000,4.0000,7.0000,0,1,466,1142,423,0
32613291,686,-0.0024,0.0264,1.0195,0.2441,0.4883,-0.1831,32.0000,4.0000,7.0000,0,1,478,1063,395,0
32618290,687,-0.0029,0.0269,1.0205,0.1831,0.4883,-0.4272,32.0000,4.0000,7.0000,0,1,478,1131,418,0
32623295,688,-0.0024,0.0264,1.0215,0.1221,0.4272,-0.2441,32.0000,4.0000,7.0000,0,1,479,1147,396,0
32628291,689,-0.0024,0.0254,1.0210,0.1831,0.1831,-0.2441,32.0000,4.0000,7.0000,0,1,480,1167,395,0
32633288,690,-0.0024,0.0249,1.0205,0.1831,0.3052,-0.3052,32.0000,4.0000,7.0000,0,1,507,1178,395,0
32638288,691,-0.0020,0.0254,1.0205,0.1831,0.2441,-0.2441,32.0000,4.0000,7.0000,0,1,465,1145,398,0
32643293,692,-0.0015,0.0254,1.0225,0.1831,0.1831,-0.2441,32.0000,4.0000,7.0000,0,1,491,1151,410,0
32648289,693,-0.0024,0.0249,1.0229,0.2441,0.2441,-0.3052,32.0000,4.0000,7.0000,0,1,463,1146,396,0
32653290,694,-0.0029,0.0244,1.0215,0.1221,0.3052,-0.1831,33.0000,5.0000,2.0000,1,1,484,1152,412,0
32658288,695,-0.0029,0.0254,1.0215,0.2441,0.2441,-0.1831,33.0000,5.0000,2.0000,0,1,491,1158,809,0
32663286,696,-0.0020,0.0269,1.0215,0.3052,0.3052,-0.1221,33.0000,5.0000,2.0000,0,1,483,1146,414,0
32668294,697,-0.0020,0.0278,1.0220,0.1831,0.3052,-0.2441,33.0000,5.0000,2.0000,0,1,474,1166,396,0
32673287,698,-0.0024,0.0278,1.0215,0.1831,0.1831,-0.1831,33.0000,5.0000,2.0000,0,1,471,1193,413,0
32678293,699,-0.0024,0.0273,1.0205,0.1221,0.2441,-0.2441,33.0000,5.0000,2.0000,0,1,490,1168,395,0
32683292,700,-0.0024,0.0264,1.0215,0.1221,0.1221,-0.1831,33.0000,5.0000,2.0000,0,1,462,1167,423,0
32688287,701,-0.0020,0.0259,1.0215,0.1221,0.2441,-0.1831,33.0000,5.0000,2.0000,0,1,480,1164,396,0
32693289,702,-0.0020,0.0259,1.0210,0.1831,0.1831,-0.2441,33.0000,5.0000,2.0000,0,1,464,1151,423,0
32698292,703,-0.0029,0.0264,1.0205,0.2441,0.0000,-0.3052,33.0000,5.0000,2.0000,0,1,480,1154,397,0
32703291,704,-0.0034,0.0269,1.0210,0.1221,0.0000,-0.1831,33.0000,5.0000,2.0000,0,1,464,1103,422,0
32708294,705,-0.0029,0.0259,1.0225,0.1831,0.1221,-0.1831,33.0000,5.0000,2.0000,0,1,466,1104,404,0
32713289,706,-0.0029,0.0249,1.0220,0.1221,0.1221,-0.1831,33.0000,5.0000,2.0000,0,1,466,1150,425,0
32718293,707,-0.0020,0.0259,1.0210,0.2441,-0.0610,-0.3052,33.0000,5.0000,2.0000,0,1,476,1073,395,0
32723291,708,-0.0020,0.0273,1.0215,0.3662,-0.0610,-0.2441,33.0000,5.0000,2.0000,0,1,476,1127,422,0
32728288,709,-0.0020,0.0283,1.0215,0.1831,0.1221,-0.2441,33.0000,5.0000,2.0000,0,1,464,1155,396,0
32733289,710,-0.0034,0.0278,1.0205,0.1831,0.1221,-0.2441,33.0000,5.0000,2.0000,0,1,479,1181,395,0
32738294,711,-0.0044,0.0259,1.0195,0.1831,-0.1221,-0.2441,33.0000,5.0000,2.0000,0,1,490,1186,395,0
32743294,712,-0.0039,0.0249,1.0195,0.1831,-0.0610,-0.3052,33.0000,5.0000,2.0000,0,1,465,1156,398,0
32748292,713,-0.0015,0.0259,1.0215,0.1831,-0.0610,-0.2441,33.0000,5.0000,2.0000,0,1,491,1155,408,0
32753293,714,-0.0005,0.0273,1.0225,0.2441,0.0610,-0.3052,33.0000,5.0000,2.0000,0,1,463,1150,396,0
32758289,715,-0.0020,0.0283,1.0220,0.1221,-0.1221,-0.2441,32.0000,6.0000,5.0000,1,1,489,1145,409,0
32763291,716,-0.0020,0.0278,1.0210,0.2441,-0.1221,-0.2441,32.0000,6.0000,5.0000,0,1,480,1113,767,0
32768290,717,0.0000,0.0264,1.0215,0.1831,-0.1221,-0.1831,32.0000,6.0000,5.0000,0,1,487,1135,414,0
32773286,718,0.0010,0.0264,1.0220,0.1831,0.0000,-0.1831,32.0000,6.0000,5.0000,0,1,478,1093,396,0
32778289,719,0.0000,0.0269,1.0215,0.3662,0.0610,-0.2441,32.0000,6.0000,5.0000,0,1,486,1084,413,0
32783288,720,-0.0020,0.0278,1.0210,0.3662,-0.1221,-0.2441,32.0000,6.0000,5.0000,0,1,490,1142,395,0
32788291,721,-0.0029,0.0273,1.0210,0.3052,-0.1221,-0.2441,32.0000,6.0000,5.0000,0,1,463,1154,422,0
32793291,722,-0.0024,0.0273,1.0210,0.3052,-0.0610,-0.2441,32.0000,6.0000,5.0000,0,1,479,1156,399,0
32798293,723,-0.0024,0.0273,1.0200,0.3052,-0.1221,-0.3662,32.0000,6.0000,5.0000,0,1,464,1142,423,0
32803293,724,-0.0029,0.0273,1.0195,0.4272,-0.1221,-0.3052,32.0000,6.0000,5.0000,0,1,480,1142,397,0
32808291,725,-0.0020,0.0269,1.0200,0.3662,-0.1831,-0.0610,32.0000,6.0000,5.0000,0,1,469,1144,423,0
32813287,726,-0.0005,0.0269,1.0210,0.3052,-0.1221,-0.1221,32.0000,6.0000,5.0000,0,1,476,1142,396,0
32818295,727,-0.0005,0.0278,1.0215,0.1221,-0.0610,-0.3662,32.0000,6.0000,5.0000,0,1,464,1024,423,0
32823290,728,-0.0034,0.0278,1.0215,0.2441,-0.1831,-0.2441,32.0000,6.0000,5.0000,0,1,480,1119,396,0
32828295,729,-0.0020,0.0278,1.0220,0.2441,0.0000,-0.3052,32.0000,6.0000,5.0000,0,1,466,1124,396,0
32833297,730,0.0005,0.0273,1.0229,0.3052,0.0000,-0.2441,32.0000,6.0000,5.0000,0,1,463,1095,397,0
32838295,731,0.0005,0.0269,1.0234,0.3052,0.1221,-0.3662,32.0000,6.0000,5.0000,0,1,480,1093,395,0
32843286,732,-0.0010,0.0264,1.0225,0.1221,0.1221,-0.3052,32.0000,6.0000,5.0000,0,1,490,1135,395,0
32848286,733,-0.0015,0.0264,1.0220,0.1831,0.0000,-0.3662,32.0000,6.0000,5.0000,0,1,481,1129,398,0
32853287,734,-0.0010,0.0283,1.0215,0.1831,0.0000,-0.3662,32.0000,6.0000,5.0000,0,1,491,1098,413,0
32858290,735,-0.0005,0.0298,1.0229,0.2441,0.0610,-0.2441,33.0000,5.0000,5.0000,1,1,469,1126,397,0
32863290,736,-0.0015,0.0288,1.0244,0.1831,0.1221,-0.2441,33.0000,5.0000,5.0000,0,1,477,1048,802,0
32868292,737,-0.0024,0.0273,1.0239,0.1831,-0.0610,-0.2441,33.0000,5.0000,5.0000,0,1,486,1154,399,0
32873287,738,-0.0034,0.0269,1.0220,0.1221,-0.0610,-0.2441,33.0000,5.0000,5.0000,0,1,470,1150,412,0
32878292,739,-0.0024,0.0273,1.0215,0.0610,-0.0610,-0.3052,33.0000,5.0000,5.0000,0,1,485,1179,397,0
32883287,740,-0.0015,0.0283,1.0229,0.1221,-0.0610,-0.3052,33.0000,5.0000,5.0000,0,1,480,1204,414,0
32888290,741,-0.0024,0.0278,1.0225,0.1831,0.0000,-0.1831,33.0000,5.0000,5.0000,0,1,490,1155,395,0
32893287,742,-0.0034,0.0269,1.0210,0.1831,0.0000,-0.2441,33.0000,5.0000,5.0000,0,1,463,1103,422,0
32898294,743,-0.0024,0.0264,1.0200,0.0610,0.0610,-0.2441,33.0000,5.0000,5.0000,0,1,479,1109,399,0
32903287,744,-0.0015,0.0264,1.0205,0.0000,-0.0610,-0.2441,33.0000,5.0000,5.0000,0,1,464,1153,424,0
32908288,745,-0.0005,0.0269,1.0220,0.0610,-0.0610,-0.3662,33.0000,5.0000,5.0000,0,1,480,1105,397,0
32913287,746,0.0000,0.0273,1.0229,0.0610,-0.1221,-0.2441,33.0000,5.0000,5.0000,0,1,466,1146,425,0
32918290,747,-0.0010,0.0273,1.0225,0.1221,-0.0610,-0.3052,33.0000,5.0000,5.0000,0,1,473,1112,398,0
32923287,748,-0.0020,0.0269,1.0210,0.0610,-0.0610,-0.2441,33.0000,5.0000,5.0000,0,1,471,1141,421,0
32928294,749,-0.0015,0.0264,1.0210,0.1831,0.0000,-0.2441,33.0000,5.0000,5.0000,0,1,480,1072,396,0
32933287,750,0.0000,0.0264,1.0215,0.1221,0.0610,-0.3052,33.0000,5.0000,5.0000,0,1,474,1075,424,0
32938286,751,0.0000,0.0259,1.0220,0.0610,0.0610,-0.2441,33.0000,5.0000,5.0000,0,1,464,1129,396,0
32943292,752,-0.0010,0.0254,1.0229,0.1831,0.0610,-0.2441,33.0000,5.0000,5.0000,0,1,480,1129,395,0
32948291,753,-0.0010,0.0249,1.0225,0.1831,0.0610,-0.2441,33.0000,5.0000,5.0000,0,1,507,1181,395,0
32953290,754,-0.0015,0.0259,1.0205,0.0610,0.1221,-0.3052,33.0000,5.0000,5.0000,0,1,491,1179,412,0
32958289,755,-0.0015,0.0264,1.0195,0.0610,0.2441,-0.3052,30.0000,4.0000,4.0000,1,1,485,1141,410,0
32963290,756,-0.0005,0.0259,1.0210,0.0610,0.1221,-0.3052,30.0000,4.0000,4.0000,0,1,463,1026,772,0
32968291,757,0.0000,0.0269,1.0220,0.1221,0.1221,-0.2441,30.0000,4.0000,4.0000,0,1,485,1118,407,0
32973290,758,-0.0010,0.0273,1.0210,0.1221,0.0000,-0.3052,30.0000,4.0000,4.0000,0,1,489,1078,412,0
32978293,759,-0.0015,0.0264,1.0205,0.1221,-0.0610,-0.1831,30.0000,4.0000,4.0000,0,1,477,1076,412,0
32983291,760,-0.0015,0.0254,1.0205,0.1831,0.0000,-0.1221,30.0000,4.0000,4.0000,0,1,473,1154,397,0
32988291,761,-0.0015,0.0249,1.0205,0.2441,0.0610,-0.2441,30.0000,4.0000,4.0000,0,1,486,1073,403,0
32993291,762,-0.0005,0.0259,1.0215,0.1831,0.0610,-0.2441,30.0000,4.0000,4.0000,0,1,487,1144,398,0
32998289,763,0.0005,0.0278,1.0220,0.1221,0.1221,-0.3052,30.0000,4.0000,4.0000,0,1,463,1147,395,0
33003294,764,0.0000,0.0278,1.0210,0.2441,0.0000,-0.1831,30.0000,4.0000,4.0000,0,1,462,1139,422,0
33008292,765,-0.0005,0.0273,1.0215,0.3052,-0.0610,-0.3052,30.0000,4.0000,4.0000,0,1,464,1051,425,0
33013290,766,0.0005,0.0269,1.0229,0.2441,0.0000,-0.1831,30.0000,4.0000,4.0000,0,1,481,1122,395,0
33018290,767,0.0020,0.0273,1.0225,0.2441,0.0000,-0.1831,30.0000,4.0000,4.0000,0,1,463,1116,419,0
33023289,768,0.0015,0.0288,1.0215,0.2441,0.1221,-0.2441,30.0000,4.0000,4.0000,0,1,464,992,399,0
33028291,769,0.0000,0.0288,1.0205,0.1831,0.3052,-0.3052,30.0000,4.0000,4.0000,0,1,466,1132,421,0
33033286,770,-0.0010,0.0288,1.0205,0.1831,0.3052,-0.3052,30.0000,4.0000,4.0000,0,1,471,1061,397,0
33038288,771,-0.0005,0.0288,1.0220,0.2441,0.1831,-0.3052,30.0000,4.0000,4.0000,0,1,480,1107,424,0
33043288,772,-0.0005,0.0283,1.0234,0.1831,0.2441,-0.2441,30.0000,4.0000,4.0000,0,1,464,1129,397,0
33048311,773,0.0000,0.0283,1.0239,0.0000,0.1831,-0.1831,30.0000,4.0000,4.0000,0,1,480,1166,395,0
33053287,774,-0.0010,0.0273,1.0239,-0.0610,0.2441,-0.1831,30.0000,4.0000,4.0000,0,1,463,1054,395,0
33058287,775,-0.0024,0.0273,1.0234,0.0610,0.3052,-0.2441,31.0000,4.0000,5.0000,1,1,463,1137,398,0
33063293,776,-0.0029,0.0278,1.0239,0.0610,0.3662,-0.1831,31.0000,4.0000,5.0000,0,1,491,1149,798,0
33068287,777,-0.0024,0.0278,1.0229,0.0000,0.3052,-0.1221,31.0000,4.0000,5.0000,0,1,465,1152,395,0
33073289,778,-0.0020,0.0273,1.0225,-0.0610,0.2441,-0.1221,31.0000,4.0000,5.0000,0,1,482,1098,412,0
33078288,779,0.0000,0.0273,1.0215,0.0000,0.3662,-0.1831,31.0000,4.0000,5.0000,0,1,486,1142,399,0
33083291,780,0.0015,0.0273,1.0220,0.0610,0.3662,-0.1221,31.0000,4.0000,5.0000,0,1,475,1104,412,0
33088293,781,0.0020,0.0259,1.0234,0.0000,0.3662,-0.2441,31.0000,4.0000,5.0000,0,1,476,1168,395,0
33093287,782,0.0005,0.0264,1.0234,0.0000,0.4272,-0.2441,31.0000,4.0000,5.0000,0,1,487,1093,413,0
33098297,783,-0.0010,0.0273,1.0220,0.0610,0.4272,-0.1831,31.0000,4.0000,5.0000,0,1,490,1115,395,0
33103290,784,-0.0015,0.0269,1.0220,-0.0610,0.4883,-0.1221,31.0000,4.0000,5.0000,0,1,463,1161,422,0
33108290,785,-0.0015,0.0259,1.0220,0.0610,0.3052,-0.1221,31.0000,4.0000,5.0000,0,1,480,1138,401,0
33113292,786,-0.0020,0.0269,1.0220,0.1831,0.3662,-0.2441,31.0000,4.0000,5.0000,0,1,472,1163,423,0
33118287,787,-0.0015,0.0278,1.0229,0.1221,0.3052,-0.1221,31.0000,4.0000,5.0000,0,1,463,1149,401,0
33123292,788,0.0000,0.0283,1.0229,0.0000,0.3662,-0.0610,31.0000,4.0000,5.0000,0,1,472,1138,423,0
33128291,789,-0.0005,0.0283,1.0225,0.1221,0.5493,-0.1831,31.0000,4.0000,5.0000,0,1,472,1056,405,0
33133288,790,-0.0005,0.0283,1.0220,-0.0610,0.4883,-0.0610,31.0000,4.0000,5.0000,0,1,480,1044,424,0
33138289,791,-0.0010,0.0273,1.0220,-0.0610,0.4883,-0.1221,31.0000,4.0000,5.0000,0,1,467,1109,424,0
33143287,792,-0.0024,0.0269,1.0215,-0.0610,0.4883,-0.2441,31.0000,4.0000,5.0000,0,1,473,1138,396,0
33148306,793,-0.0024,0.0259,1.0210,0.0610,0.4272,-0.1831,31.0000,4.0000,5.0000,0,1,480,1144,395,0
33153291,794,-0.0015,0.0259,1.0220,0.1221,0.4272,-0.1831,31.0000,4.0000,5.0000,0,1,463,1173,395,0
33158289,795,-0.0005,0.0269,1.0220,0.0000,0.4883,-0.1221,33.0000,6.0000,5.0000,1,1,490,1170,413,0
33163293,796,-0.0005,0.0273,1.0220,0.0000,0.4883,-0.1221,33.0000,6.0000,5.0000,0,1,487,1093,809,0
33168287,797,0.0000,0.0273,1.0220,0.0000,0.4883,-0.1831,33.0000,6.0000,5.0000,0,1,463,1125,396,0
33173289,798,0.0005,0.0273,1.0225,-0.0610,0.4883,-0.1831,33.0000,6.0000,5.0000,0,1,491,1055,408,0
33178289,799,0.0000,0.0273,1.0225,-0.0610,0.4272,-0.2441,33.0000,6.0000,5.0000,0,1,477,1144,397,0
33183290,800,-0.0020,0.0278,1.0225,0.0000,0.3052,-0.1221,33.0000,6.0000,5.0000,0,1,485,1102,413,0
33188292,801,-0.0034,0.0283,1.0220,-0.0610,0.4272,-0.2441,33.0000,6.0000,5.0000,0,1,482,1161,396,0
33193294,802,-0.0029,0.0293,1.0215,-0.1221,0.4883,-0.3662,33.0000,6.0000,5.0000,0,1,489,1183,403,0
33198287,803,-0.0020,0.0283,1.0210,-0.1221,0.4883,-0.2441,33.0000,6.0000,5.0000,0,1,489,1154,397,0
33203286,804,-0.0020,0.0259,1.0210,-0.1221,0.4272,-0.1221,33.0000,6.0000,5.0000,0,1,463,1187,423,0
33208286,805,-0.0020,0.0249,1.0200,0.0610,0.4883,-0.1221,33.0000,6.0000,5.0000,0,1,480,1160,395,0
33213291,806,-0.0015,0.0259,1.0200,0.0610,0.4883,-0.0610,33.0000,6.0000,5.0000,0,1,464,1145,423,0
33218290,807,-0.0020,0.0264,1.0205,-0.0610,0.3662,-0.1221,33.0000,6.0000,5.0000,0,1,481,1170,423,0
33223293,808,-0.0029,0.0273,1.0200,0.0000,0.4272,-0.3052,33.0000,6.0000,5.0000,0,1,464,1146,419,0
33228289,809,-0.0034,0.0278,1.0205,-0.0610,0.4883,-0.1221,33.0000,6.0000,5.0000,0,1,480,1102,423,0
33233288,810,-0.0029,0.0269,1.0210,0.0000,0.3662,-0.1221,33.0000,6.0000,5.0000,0,1,466,1149,421,0
33238287,811,-0.0020,0.0264,1.0210,0.0000,0.4272,-0.1831,33.0000,6.0000,5.0000,0,1,473,1072,397,0
33243291,812,-0.0010,0.0269,1.0205,-0.0610,0.3662,-0.3052,33.0000,6.0000,5.0000,0,1,476,1074,425,0
33248286,813,-0.0020,0.0273,1.0210,0.0000,0.3662,-0.2441,33.0000,6.0000,5.0000,0,1,476,1113,397,0
33253306,814,-0.0029,0.0278,1.0210,-0.0610,0.4272,-0.2441,33.0000,6.0000,5.0000,0,1,480,1126,395,0
33258288,815,-0.0029,0.0273,1.0210,0.0000,0.3052,-0.3052,33.0000,5.0000,4.0000,1,1,463,1180,395,0
33263291,816,-0.0020,0.0264,1.0220,0.0610,0.4272,-0.1831,33.0000,5.0000,4.0000,0,1,490,1128,779,0
33268295,817,-0.0010,0.0269,1.0229,0.0000,0.5493,-0.1831,33.0000,5.0000,4.0000,0,1,491,1152,407,0
33273290,818,-0.0010,0.0278,1.0229,-0.1221,0.3662,-0.1831,33.0000,5.0000,4.0000,0,1,464,1106,396,0
33278291,819,-0.0010,0.0278,1.0225,-0.0610,0.3662,-0.1831,33.0000,5.0000,4.0000,0,1,473,1152,412,0
33283286,820,-0.0010,0.0273,1.0220,-0.0610,0.3052,-0.1831,33.0000,5.0000,4.0000,0,1,485,1151,395,0
33288289,821,-0.0015,0.0259,1.0220,-0.1221,0.4272,-0.1221,33.0000,5.0000,4.0000,0,1,490,1136,414,0
33293291,822,-0.0020,0.0249,1.0220,-0.0610,0.4883,-0.1221,33.0000,5.0000,4.0000,0,1,481,1172,396,0
33298288,823,-0.0015,0.0259,1.0220,-0.0610,0.4272,-0.1221,33.0000,5.0000,4.0000,0,1,489,1206,414,0
33303300,824,-0.0015,0.0278,1.0210,-0.0610,0.3662,-0.1221,33.0000,5.0000,4.0000,0,1,490,1155,395,0
33308287,825,-0.0015,0.0278,1.0210,-0.0610,0.3662,-0.1221,33.0000,5.0000,4.0000,0,1,463,1156,423,0
33313287,826,-0.0015,0.0278,1.0215,-0.1221,0.3662,-0.1221,33.0000,5.0000,4.0000,0,1,481,1148,408,0
33318292,827,-0.0024,0.0278,1.0205,-0.0610,0.4272,-0.2441,33.0000,5.0000,4.0000,0,1,480,1148,423,0
33323288,828,-0.0015,0.0269,1.0195,-0.0610,0.3662,-0.1831,33.0000,5.0000,4.0000,0,1,463,1158,402,0
33328291,829,-0.0015,0.0259,1.0195,-0.1221,0.2441,-0.1831,33.0000,5.0000,4.0000,0,1,474,1154,422,0
33333292,830,-0.0034,0.0249,1.0205,-0.1221,0.3662,-0.2441,33.0000,5.0000,4.0000,0,1,476,1151,402,0
33338287,831,-0.0029,0.0259,1.0210,0.0000,0.4272,-0.3662,33.0000,5.0000,4.0000,0,1,480,1157,423,0
33343287,832,-0.0024,0.0264,1.0205,0.0610,0.1831,-0.2441,33.0000,5.0000,4.0000,0,1,469,1077,424,0
33348288,833,-0.0024,0.0269,1.0210,0.1221,0.3052,-0.2441,33.0000,5.0000,4.0000,0,1,478,1127,397,0
33353309,834,-0.0015,0.0273,1.0215,0.1831,0.3662,-0.2441,33.0000,5.0000,4.0000,0,1,480,1173,395,0
33358287,835,-0.0010,0.0269,1.0220,0.0610,0.2441,-0.1221,32.0000,4.0000,0.0000,1,1,463,1177,395,0
33363290,836,-0.0010,0.0259,1.0215,0.1221,0.3662,-0.1831,32.0000,4.0000,0.0000,0,1,491,1126,780,0
33368294,837,-0.0010,0.0259,1.0205,0.1221,0.3052,-0.3662,32.0000,4.0000,0.0000,0,1,491,1099,413,0
33373286,838,-0.0010,0.0259,1.0200,0.1221,0.2441,-0.2441,32.0000,4.0000,0.0000,0,1,464,1122,396,0
33378291,839,-0.0010,0.0259,1.0200,0.1831,0.2441,-0.1831,32.0000,4.0000,0.0000,0,1,476,1098,412,0
33383292,840,-0.0015,0.0264,1.0205,0.0610,0.2441,-0.2441,32.0000,4.0000,0.0000,0,1,481,1093,398,0
33388290,841,-0.0024,0.0273,1.0210,0.0610,0.3052,-0.2441,32.0000,4.0000,0.0000,0,1,485,1028,413,0
33393294,842,-0.0029,0.0278,1.0225,0.0610,0.3052,-0.3662,32.0000,4.0000,0.0000,0,1,479,1092,395,0
33398294,843,-0.0024,0.0273,1.0229,0.0610,0.2441,-0.1831,32.0000,4.0000,0.0000,0,1,486,1091,413,0
33403300,844,-0.0024,0.0264,1.0225,0.0000,0.2441,-0.1831,32.0000,4.0000,0.0000,0,1,491,1130,395,0
33408286,845,-0.0029,0.0259,1.0225,0.0610,0.2441,-0.2441,32.0000,4.0000,0.0000,0,1,463,1063,422,0
33413288,846,-0.0029,0.0259,1.0225,0.0000,0.3052,-0.1831,32.0000,4.0000,0.0000,0,1,465,1135,420,0
33418292,847,-0.0020,0.0264,1.0229,-0.0610,0.4272,-0.1831,32.0000,4.0000,0.0000,0,1,479,1055,422,0
33423290,848,-0.0020,0.0269,1.0215,0.0610,0.3662,-0.1831,32.0000,4.0000,0.0000,0,1,463,1107,399,0
33428287,849,-0.0024,0.0269,1.0210,0.0000,0.2441,-0.2441,32.0000,4.0000,0.0000,0,1,472,1102,423,0
33433287,850,-0.0029,0.0273,1.0220,0.0000,0.4272,-0.3052,32.0000,4.0000,0.0000,0,1,479,1041,403,0
33438286,851,-0.0029,0.0278,1.0229,0.0000,0.4883,-0.1831,32.0000,4.0000,0.0000,0,1,470,1028,396,0
33443294,852,-0.0029,0.0273,1.0234,-0.0610,0.3662,-0.3052,32.0000,4.0000,0.0000,0,1,478,1034,421,0
33448293,853,-0.0024,0.0269,1.0220,-0.0610,0.4272,-0.3052,32.0000,4.0000,0.0000,0,1,479,1105,396,0
33453314,854,-0.0010,0.0269,1.0205,0.0610,0.3662,-0.2441,32.0000,4.0000,0.0000,0,1,480,1100,395,0
33458291,855,0.0000,0.0264,1.0215,0.0000,0.4883,-0.1221,34.0000,5.0000,7.0000,1,1,462,1102,412,0
33463294,856,0.0005,0.0254,1.0229,0.0610,0.4272,-0.1831,34.0000,5.0000,7.0000,0,1,465,963,789,0
33468293,857,-0.0005,0.0259,1.0234,0.0000,0.3662,-0.0610,34.0000,5.0000,7.0000,0,1,490,1149,415,0
33473293,858,-0.0015,0.0259,1.0229,0.1221,0.4883,-0.0610,34.0000,5.0000,7.0000,0,1,470,1130,398,0
33478287,859,-0.0024,0.0269,1.0215,0.0610,0.4883,-0.1831,34.0000,5.0000,7.0000,0,1,482,1146,413,0
33483289,860,-0.0024,0.0278,1.0210,-0.0610,0.5493,-0.0610,34.0000,5.0000,7.0000,0,1,476,1141,403,0
33488295,861,-0.0029,0.0283,1.0210,0.0000,0.4883,-0.1221,34.0000,5.0000,7.0000,0,1,476,1144,412,0
33493294,862,-0.0034,0.0273,1.0220,-0.1831,0.5493,-0.1831,34.0000,5.0000,7.0000,0,1,484,1091,395,0
33498292,863,-0.0029,0.0264,1.0229,-0.0610,0.5493,-0.1221,34.0000,5.0000,7.0000,0,1,472,1167,396,0
33503293,864,-0.0020,0.0254,1.0225,-0.1221,0.6714,-0.1831,34.0000,5.0000,7.0000,0,1,491,1160,395,0
33508286,865,-0.0015,0.0259,1.0210,-0.2441,0.6104,-0.1221,34.0000,5.0000,7.0000,0,1,463,1164,422,0
33513291,866,-0.0015,0.0259,1.0205,-0.1221,0.6104,-0.1831,34.0000,5.0000,7.0000,0,1,464,1145,423,0
33518295,867,-0.0024,0.0264,1.0200,-0.1221,0.6104,-0.0610,34.0000,5.0000,7.0000,0,1,480,1145,397,0
33523288,868,-0.0034,0.0259,1.0205,-0.1831,0.6104,-0.0610,34.0000,5.0000,7.0000,0,1,465,1145,411,0
33528287,869,-0.0029,0.0254,1.0210,-0.1831,0.5493,-0.0610,34.0000,5.0000,7.0000,0,1,471,1152,423,0
33533287,870,-0.0029,0.0264,1.0210,-0.1831,0.4883,-0.0610,34.0000,5.0000,7.0000,0,1,476,1151,420,0
33538286,871,-0.0034,0.0273,1.0215,-0.2441,0.5493,-0.0610,34.0000,5.0000,7.0000,0,1,464,1130,396,0
33543291,872,-0.0029,0.0254,1.0210,-0.1221,0.6714,-0.2441,34.0000,5.0000,7.0000,0,1,468,1062,424,0
33548289,873,-0.0034,0.0244,1.0195,-0.1221,0.6104,-0.1221,34.0000,5.0000,7.0000,0,1,465,1146,396,0
33553313,874,-0.0029,0.0244,1.0200,-0.1221,0.5493,-0.1221,34.0000,5.0000,7.0000,0,1,480,1176,395,0
33558290,875,-0.0020,0.0244,1.0220,0.0000,0.6104,-0.1221,34.0000,5.0000,7.0000,0,1,463,1176,412,0
33563294,876,-0.0029,0.0259,1.0225,0.0000,0.7324,-0.0610,34.0000,6.0000,-3.0000,1,1,464,1100,400,0
33568292,877,-0.0054,0.0264,1.0215,0.0000,0.6104,-0.0610,34.0000,6.0000,-3.0000,0,1,491,1101,792,0
33573286,878,-0.0054,0.0264,1.0200,0.0000,0.6104,-0.1831,34.0000,6.0000,-3.0000,0,1,472,1093,400,0
33578292,879,-0.0034,0.0264,1.0190,0.0610,0.4883,-0.1831,34.0000,6.0000,-3.0000,0,1,488,1095,412,0
33583290,880,-0.0029,0.0269,1.0190,0.0000,0.3662,-0.1831,34.0000,6.0000,-3.0000,0,1,472,1138,405,0
33588286,881,-0.0034,0.0269,1.0200,0.0000,0.4883,-0.0610,34.0000,6.0000,-3.0000,0,1,487,1133,413,0
33593291,882,-0.0044,0.0264,1.0210,0.0610,0.4272,-0.1221,34.0000,6.0000,-3.0000,0,1,476,1088,412,0
33598286,883,-0.0063,0.0254,1.0210,0.0000,0.4272,-0.2441,34.0000,6.0000,-3.0000,0,1,477,1148,397,0
33603293,884,-0.0063,0.0254,1.0205,0.1221,0.3052,-0.2441,34.0000,6.0000,-3.0000,0,1,490,1092,395,0
33608293,885,-0.0044,0.0259,1.0200,0.2441,0.3052,-0.1831,34.0000,6.0000,-3.0000,0,1,479,1161,423,0
33613288,886,-0.0020,0.0259,1.0205,0.1221,0.2441,-0.0610,34.0000,6.0000,-3.0000,0,1,464,1148,421,0
33618291,887,-0.0010,0.0254,1.0215,0.3052,0.2441,-0.1831,34.0000,6.0000,-3.0000,0,1,480,1145,396,0
33623295,888,-0.0020,0.0259,1.0225,0.1221,0.1831,-0.1831,34.0000,6.0000,-3.0000,0,1,464,1143,414,0
33628287,889,-0.0034,0.0259,1.0225,0.1221,0.1221,-0.2441,34.0000,6.0000,-3.0000,0,1,468,1147,423,0
33633290,890,-0.0039,0.0264,1.0215,0.1221,0.1221,-0.2441,34.0000,6.0000,-3.0000,0,1,464,1145,423,0
33638287,891,-0.0039,0.0278,1.0205,0.0000,-0.0610,-0.2441,34.0000,6.0000,-3.0000,0,1,466,1125,396,0
33643292,892,-0.0024,0.0288,1.0210,0.1831,0.0000,-0.1831,34.0000,6.0000,-3.0000,0,1,476,1077,423,0
33648302,893,-0.0015,0.0288,1.0225,0.1221,0.1221,-0.1221,34.0000,6.0000,-3.0000,0,1,476,1135,397,0
33653290,894,-0.0015,0.0283,1.0234,0.1221,0.0610,-0.1831,34.0000,6.0000,-3.0000,0,1,480,1159,395,0
33658293,895,-0.0020,0.0273,1.0229,0.1221,-0.0610,-0.1831,34.0000,6.0000,-3.0000,0,1,463,1147,412,0
33663290,896,-0.0024,0.0264,1.0220,0.1831,0.0000,-0.1831,31.0000,4.0000,0.0000,1,1,465,1149,410,0
33668289,897,-0.0029,0.0259,1.0220,0.1221,0.2441,-0.2441,31.0000,4.0000,0.0000,0,1,491,1062,793,0
33673293,898,-0.0020,0.0269,1.0215,0.1831,0.0610,-0.3052,31.0000,4.0000,0.0000,0,1,490,1133,409,0
33678291,899,-0.0015,0.0273,1.0215,0.1831,0.1221,-0.3662,31.0000,4.0000,0.0000,0,1,482,1088,399,0
33683293,900,-0.0015,0.0269,1.0220,0.2441,0.0610,-0.3662,31.0000,4.0000,0.0000,0,1,476,1102,413,0
33688289,901,-0.0015,0.0269,1.0225,0.1221,0.0610,-0.1831,31.0000,4.0000,0.0000,0,1,489,1092,396,0
33693295,902,-0.0010,0.0269,1.0225,0.1221,0.1221,-0.2441,31.0000,4.0000,0.0000,0,1,475,1104,397,0
33698311,903,0.0000,0.0269,1.0229,0.0610,0.0610,-0.2441,31.0000,4.0000,0.0000,0,1,490,1112,395,0
33703290,904,0.0000,0.0264,1.0229,0.1221,0.1221,-0.2441,31.0000,4.0000,0.0000,0,1,462,1064,395,0
33708291,905,-0.0020,0.0264,1.0225,0.1221,0.1831,-0.3052,31.0000,4.0000,0.0000,0,1,464,1060,411,0
33713293,906,-0.0034,0.0273,1.0225,0.1831,0.1831,-0.1831,31.0000,4.0000,0.0000,0,1,481,1097,423,0
33718289,907,-0.0024,0.0273,1.0234,0.1831,0.0610,-0.1221,31.0000,4.0000,0.0000,0,1,463,1113,419,0
33723291,908,-0.0010,0.0273,1.0234,0.0610,0.2441,-0.1831,31.0000,4.0000,0.0000,0,1,480,1135,423,0
33728291,909,-0.0010,0.0273,1.0220,-0.0610,0.1831,-0.1221,31.0000,4.0000,0.0000,0,1,464,1002,409,0
33733293,910,-0.0020,0.0264,1.0215,0.0000,0.2441,-0.1221,31.0000,4.0000,0.0000,0,1,470,1022,423,0
33738294,911,-0.0029,0.0259,1.0200,0.0000,0.2441,-0.1221,31.0000,4.0000,0.0000,0,1,469,1054,411,0
33743288,912,-0.0034,0.0269,1.0210,0.0000,0.2441,-0.1221,31.0000,4.0000,0.0000,0,1,474,1074,397,0
33748321,913,-0.0029,0.0273,1.0234,-0.0610,0.3052,-0.2441,31.0000,4.0000,0.0000,0,1,480,1083,395,0
33753292,914,-0.0020,0.0273,1.0234,0.0000,0.3052,-0.4272,31.0000,4.0000,0.0000,0,1,479,1104,395,0
33758289,915,-0.0029,0.0278,1.0215,0.1221,0.2441,-0.2441,31.0000,4.0000,0.0000,0,1,465,1059,397,0
33763290,916,-0.0044,0.0269,1.0200,0.0000,0.1831,-0.2441,32.0000,7.0000,4.0000,1,1,480,1107,413,0
33768292,917,-0.0044,0.0249,1.0200,0.0000,0.2441,-0.3052,32.0000,7.0000,4.0000,0,1,465,1003,794,0
33773294,918,-0.0034,0.0254,1.0200,0.1831,0.1831,-0.2441,32.0000,7.0000,4.0000,0,1,482,1097,412,0
33778293,919,-0.0020,0.0269,1.0210,0.0610,0.1221,-0.2441,32.0000,7.0000,4.0000,0,1,491,1149,396,0
33783287,920,-0.0010,0.0278,1.0225,0.0000,0.1831,-0.2441,32.0000,7.0000,4.0000,0,1,484,1055,412,0
33788294,921,-0.0010,0.0278,1.0220,0.1221,0.1831,-0.3052,32.0000,7.0000,4.0000,0,1,481,1091,396,0
33793293,922,-0.0029,0.0269,1.0220,0.0610,0.0610,-0.1831,32.0000,7.0000,4.0000,0,1,475,1145,396,0
33798311,923,-0.0049,0.0269,1.0225,0.0610,0.1831,-0.2441,32.0000,7.0000,4.0000,0,1,490,1150,395,0
33803287,924,-0.0039,0.0278,1.0220,0.0000,0.3052,-0.1831,32.0000,7.0000,4.0000,0,1,463,1154,395,0
33808291,925,-0.0024,0.0278,1.0220,0.0000,0.3052,-0.1831,32.0000,7.0000,4.0000,0,1,464,1101,409,0
33813287,926,-0.0020,0.0273,1.0215,0.0000,0.3662,-0.1221,32.0000,7.0000,4.0000,0,1,480,1102,423,0
33818292,927,-0.0020,0.0278,1.0215,0.0610,0.3052,-0.1831,32.0000,7.0000,4.0000,0,1,465,1098,423,0
33823291,928,-0.0020,0.0278,1.0220,0.0000,0.2441,-0.2441,32.0000,7.0000,4.0000,0,1,481,1143,422,0
33828288,929,-0.0020,0.0283,1.0225,-0.1221,0.2441,-0.0610,32.0000,7.0000,4.0000,0,1,466,1010,404,0
33833290,930,-0.0024,0.0283,1.0215,-0.0610,0.3052,-0.1221,32.0000,7.0000,4.0000,0,1,476,1036,423,0
33838287,931,-0.0039,0.0259,1.0215,0.0000,0.3052,-0.1831,32.0000,7.0000,4.0000,0,1,476,1123,407,0
33843291,932,-0.0039,0.0244,1.0220,0.0610,0.3662,-0.3052,32.0000,7.0000,4.0000,0,1,463,1125,396,0
33848294,933,-0.0034,0.0264,1.0220,0.0610,0.2441,-0.1831,32.0000,7.0000,4.0000,0,1,480,1173,395,0
33853289,934,-0.0024,0.0278,1.0215,-0.1221,0.2441,-0.1831,32.0000,7.0000,4.0000,0,1,463,1148,395,0
33858287,935,-0.0020,0.0283,1.0225,0.0000,0.3052,-0.1831,32.0000,7.0000,4.0000,0,1,465,1152,400,0
33863291,936,-0.0020,0.0278,1.0229,0.0000,0.3052,-0.2441,33.0000,5.0000,4.0000,1,1,484,1099,412,0
33868293,937,-0.0020,0.0273,1.0225,0.0000,0.3662,-0.1831,33.0000,5.0000,4.0000,0,1,463,1003,795,0
33873288,938,-0.0024,0.0269,1.0225,0.0000,0.3052,-0.1831,33.0000,5.0000,4.0000,0,1,484,1107,412,0
33878287,939,-0.0024,0.0264,1.0225,-0.1221,0.3662,-0.1831,33.0000,5.0000,4.0000,0,1,481,1094,395,0
33883288,940,-0.0010,0.0269,1.0225,0.0000,0.5493,0.0000,33.0000,5.0000,4.0000,0,1,490,1144,412,0
33888292,941,-0.0010,0.0283,1.0215,-0.0610,0.6714,-0.1831,33.0000,5.0000,4.0000,0,1,482,1074,400,0
33893288,942,-0.0029,0.0288,1.0205,-0.1221,0.5493,-0.1831,33.0000,5.0000,4.0000,0,1,481,1156,396,0
33898292,943,-0.0039,0.0278,1.0205,-0.1831,0.6104,-0.2441,33.0000,5.0000,4.0000,0,1,490,1164,395,0
33903288,944,-0.0024,0.0259,1.0210,-0.1221,0.4272,-0.1831,33.0000,5.0000,4.0000,0,1,463,1176,422,0
33908294,945,-0.0005,0.0254,1.0220,-0.1221,0.3052,-0.1831,33.0000,5.0000,4.0000,0,1,463,1153,417,0
33913293,946,0.0005,0.0269,1.0229,-0.0610,0.3662,-0.0610,33.0000,5.0000,4.0000,0,1,480,1170,424,0
33918292,947,0.0000,0.0273,1.0220,-0.0610,0.4272,-0.1221,33.0000,5.0000,4.0000,0,1,464,1148,423,0
33923293,948,-0.0010,0.0273,1.0210,-0.0610,0.4883,-0.1831,33.0000,5.0000,4.0000,0,1,470,1109,422,0
33928290,949,-0.0024,0.0269,1.0215,-0.0610,0.5493,-0.0610,33.0000,5.0000,4.0000,0,1,476,1146,402,0
33933289,950,-0.0034,0.0269,1.0225,-0.1221,0.4272,-0.1221,33.0000,5.0000,4.0000,0,1,468,1066,395,0
33938291,951,-0.0039,0.0269,1.0220,-0.1221,0.5493,-0.1221,33.0000,5.0000,4.0000,0,1,479,1129,422,0
33943298,952,-0.0034,0.0269,1.0205,-0.0610,0.4272,-0.1221,33.0000,5.0000,4.0000,0,1,480,1148,396,0
33948288,953,-0.0029,0.0269,1.0205,-0.0610,0.4883,-0.0610,33.0000,5.0000,4.0000,0,1,463,1150,395,0
33953292,954,-0.0024,0.0264,1.0215,-0.1831,0.4272,-0.1221,33.0000,5.0000,4.0000,0,1,490,1148,412,0
33958295,955,-0.0029,0.0259,1.0215,-0.1831,0.4272,-0.1221,33.0000,5.0000,4.0000,0,1,485,1154,410,0
33963294,956,-0.0034,0.0254,1.0210,-0.2441,0.4272,-0.0610,33.0000,5.0000,1.0000,1,1,491,1152,412,0
33968294,957,-0.0029,0.0254,1.0210,-0.1831,0.4272,-0.1221,33.0000,5.0000,1.0000,0,1,483,1151,807,0
33973290,958,-0.0029,0.0264,1.0210,-0.0610,0.4272,-0.0610,33.0000,5.0000,1.0000,0,1,477,1138,398,0
33978295,959,-0.0029,0.0269,1.0215,-0.0610,0.4272,0.0000,33.0000,5.0000,1.0000,0,1,474,1137,412,0
33983292,960,-0.0024,0.0269,1.0220,-0.1831,0.4883,-0.1221,33.0000,5.0000,1.0000,0,1,480,1092,396,0
33988288,961,-0.0029,0.0269,1.0215,-0.1831,0.5493,-0.0610,33.0000,5.0000,1.0000,0,1,471,1157,396,0
33993306,962,-0.0034,0.0273,1.0215,-0.0610,0.4272,-0.0610,33.0000,5.0000,1.0000,0,1,491,1161,395,0
33998289,963,-0.0039,0.0264,1.0220,-0.1221,0.4272,-0.1831,33.0000,5.0000,1.0000,0,1,490,1160,395,0
34003294,964,-0.0034,0.0259,1.0229,-0.0610,0.5493,-0.1831,33.0000,5.0000,1.0000,0,1,465,1152,397,0
34008288,965,-0.0024,0.0273,1.0220,-0.0610,0.5493,-0.1221,33.0000,5.0000,1.0000,0,1,480,1156,423,0
34013293,966,-0.0034,0.0283,1.0205,-0.1221,0.4272,0.0000,33.0000,5.0000,1.0000,0,1,464,1150,418,0
34018290,967,-0.0039,0.0283,1.0205,-0.0610,0.4883,0.0000,33.0000,5.0000,1.0000,0,1,463,1106,398,0
34023286,968,-0.0029,0.0273,1.0210,-0.0610,0.5493,-0.1221,33.0000,5.0000,1.0000,0,1,475,1105,425,0
34028289,969,-0.0020,0.0259,1.0215,0.0610,0.4883,-0.1831,33.0000,5.0000,1.0000,0,1,467,1073,422,0
34033287,970,-0.0024,0.0234,1.0205,0.0000,0.5493,-0.1831,33.0000,5.0000,1.0000,0,1,471,1128,417,0
34038287,971,-0.0024,0.0239,1.0210,0.0610,0.4272,-0.1831,33.0000,5.0000,1.0000,0,1,475,1138,396,0
34043290,972,-0.0024,0.0254,1.0215,0.1831,0.3662,-0.1221,33.0000,5.0000,1.0000,0,1,480,1183,395,0
34048288,973,-0.0024,0.0264,1.0215,0.0000,0.4272,-0.2441,33.0000,5.0000,1.0000,0,1,463,1151,412,0
34053290,974,-0.0029,0.0273,1.0205,0.0610,0.3052,-0.2441,33.0000,5.0000,1.0000,0,1,467,1108,407,0
34058287,975,-0.0034,0.0269,1.0190,0.0610,0.4272,-0.3052,33.0000,5.0000,1.0000,0,1,491,1179,412,0
34063294,976,-0.0029,0.0269,1.0190,-0.0610,0.3662,-0.3052,32.0000,4.0000,4.0000,1,1,464,1148,412,0
34068292,977,-0.0029,0.0269,1.0205,0.0000,0.4272,-0.3052,32.0000,4.0000,4.0000,0,1,480,1067,806,0
34073288,978,-0.0020,0.0259,1.0215,0.0000,0.3662,-0.2441,32.0000,4.0000,4.0000,0,1,491,1087,398,0
34078288,979,-0.0020,0.0259,1.0220,0.0000,0.4272,-0.2441,32.0000,4.0000,4.0000,0,1,487,1127,413,0
34083290,980,-0.0024,0.0254,1.0229,0.0610,0.3662,-0.2441,32.0000,4.0000,4.0000,0,1,475,1089,409,0
34088288,981,-0.0024,0.0254,1.0234,0.1221,0.2441,-0.1831,32.0000,4.0000,4.0000,0,1,481,1158,396,0
34093287,982,-0.0020,0.0259,1.0220,-0.0610,0.3662,-0.1831,32.0000,4.0000,4.0000,0,1,490,1158,395,0
34098289,983,-0.0020,0.0264,1.0215,0.0610,0.4272,-0.1221,32.0000,4.0000,4.0000,0,1,462,1163,395,0
34103286,984,-0.0029,0.0264,1.0215,-0.0610,0.3052,-0.2441,32.0000,4.0000,4.0000,0,1,464,1140,401,0
34108294,985,-0.0024,0.0264,1.0220,0.0000,0.2441,-0.3052,32.0000,4.0000,4.0000,0,1,480,1170,423,0
34113287,986,-0.0015,0.0269,1.0220,0.0000,0.3052,-0.2441,32.0000,4.0000,4.0000,0,1,465,1128,409,0
34118294,987,-0.0015,0.0269,1.0220,-0.1221,0.3662,-0.2441,32.0000,4.0000,4.0000,0,1,468,1092,399,0
34123291,988,-0.0020,0.0273,1.0210,-0.1221,0.2441,-0.1831,32.0000,4.0000,4.0000,0,1,470,1141,423,0
34128291,989,-0.0020,0.0273,1.0205,0.0610,0.4272,-0.3052,32.0000,4.0000,4.0000,0,1,479,1145,423,0
34133294,990,-0.0020,0.0259,1.0205,0.0000,0.3662,-0.2441,32.0000,4.0000,4.0000,0,1,466,1123,414,0
34138286,991,-0.0020,0.0244,1.0200,-0.0610,0.3052,-0.1831,32.0000,4.0000,4.0000,0,1,466,1100,397,0
34143287,992,-0.0034,0.0244,1.0210,-0.0610,0.2441,-0.1221,32.0000,4.0000,4.0000,0,1,480,1162,395,0
34148289,993,-0.0039,0.0259,1.0229,0.0000,0.3052,-0.1831,32.0000,4.0000,4.0000,0,1,463,1165,412,0
34153286,994,-0.0034,0.0269,1.0229,0.0610,0.3662,-0.2441,32.0000,4.0000,4.0000,0,1,465,1100,412,0
34158293,995,-0.0020,0.0273,1.0220,0.0610,0.3662,-0.1831,32.0000,4.0000,4.0000,0,1,491,1151,413,0
34163291,996,-0.0015,0.0273,1.0210,-0.0610,0.3662,-0.1831,32.0000,6.0000,2.0000,1,1,465,1146,414,0
34168286,997,-0.0024,0.0269,1.0210,0.0000,0.4883,-0.2441,32.0000,6.0000,2.0000,0,1,472,1124,794,0
34173295,998,-0.0029,0.0269,1.0220,-0.0610,0.4272,-0.1831,32.0000,6.0000,2.0000,0,1,489,1087,412,0
34178287,999,-0.0034,0.0269,1.0229,0.0000,0.3052,-0.3052,32.0000,6.0000,2.0000,0,1,472,1171,396,0
34183293,1000,-0.0039,0.0273,1.0234,0.0610,0.4272,-0.3662,32.0000,6.0000,2.0000,0,1,471,1084,396,0
34188290,1001,-0.0054,0.0273,1.0225,0.0000,0.5493,-0.3052,32.0000,6.0000,2.0000,0,1,489,1158,397,0
34193290,1002,-0.0044,0.0273,1.0210,0.0610,0.3662,-0.2441,32.0000,6.0000,2.0000,0,1,463,1113,422,0
34198289,1003,-0.0024,0.0269,1.0215,0.0610,0.3052,-0.1831,32.0000,6.0000,2.0000,0,1,479,1134,423,0
34203295,1004,-0.0029,0.0264,1.0215,0.1221,0.3662,-0.2441,32.0000,6.0000,2.0000,0,1,463,1171,418,0
34208286,1005,-0.0039,0.0264,1.0215,0.1221,0.4272,-0.2441,32.0000,6.0000,2.0000,0,1,480,1144,423,0
34213292,1006,-0.0044,0.0264,1.0215,0.1221,0.4883,-0.2441,32.0000,6.0000,2.0000,0,1,479,1144,420,0
34218289,1007,-0.0054,0.0254,1.0205,-0.0610,0.4272,-0.1831,32.0000,6.0000,2.0000,0,1,480,1169,423,0
34223295,1008,-0.0068,0.0254,1.0200,-0.0610,0.3662,-0.2441,32.0000,6.0000,2.0000,0,1,467,1144,423,0
34228289,1009,-0.0063,0.0269,1.0215,0.0000,0.3662,-0.1831,32.0000,6.0000,2.0000,0,1,467,1070,423,0
34233292,1010,-0.0049,0.0283,1.0215,0.0610,0.2441,-0.1221,32.0000,6.0000,2.0000,0,1,479,1071,414,0
34238288,1011,-0.0044,0.0283,1.0220,0.0610,0.2441,-0.1831,32.0000,6.0000,2.0000,0,1,478,1139,397,0
34243286,1012,-0.0029,0.0278,1.0220,0.0610,0.2441,-0.1831,32.0000,6.0000,2.0000,0,1,463,1168,395,0
34248289,1013,-0.0029,0.0269,1.0234,0.0610,0.1221,-0.1831,32.0000,6.0000,2.0000,0,1,489,1148,413,0
34253293,1014,-0.0039,0.0259,1.0239,0.0610,0.2441,-0.2441,32.0000,6.0000,2.0000,0,1,465,1173,412,0
34258289,1015,-0.0044,0.0259,1.0225,0.0610,0.2441,-0.1831,32.0000,6.0000,2.0000,0,1,491,1149,413,0
34263294,1016,-0.0039,0.0259,1.0215,-0.0610,0.2441,-0.3052,32.0000,6.0000,2.0000,0,1,484,1144,404,0
34268295,1017,-0.0034,0.0259,1.0210,-0.0610,0.2441,-0.3662,33.0000,5.0000,5.0000,1,1,485,1169,412,0
34273289,1018,-0.0029,0.0264,1.0220,0.0610,0.2441,-0.1831,33.0000,5.0000,5.0000,0,1,473,1136,808,0
34278288,1019,-0.0034,0.0273,1.0234,0.0000,0.3052,-0.1221,33.0000,5.0000,5.0000,0,1,489,1144,412,0
34283286,1020,-0.0039,0.0273,1.0244,-0.0610,0.3662,-0.1221,33.0000,5.0000,5.0000,0,1,479,1095,414,0
34288287,1021,-0.0039,0.0269,1.0234,0.1221,0.2441,-0.1831,33.0000,5.0000,5.0000,0,1,488,1163,396,0
34293294,1022,-0.0029,0.0259,1.0225,0.0000,0.3052,-0.3662,33.0000,5.0000,5.0000,0,1,463,1195,395,0
34298292,1023,-0.0024,0.0254,1.0220,0.0000,0.4272,-0.3052,33.0000,5.0000,5.0000,0,1,480,1104,395,0
34303292,1024,-0.0029,0.0254,1.0215,-0.1221,0.3052,-0.1221,33.0000,5.0000,5.0000,0,1,464,1106,410,0
34308290,1025,-0.0039,0.0264,1.0210,-0.0610,0.3662,-0.1221,33.0000,5.0000,5.0000,0,1,480,1142,423,0
34313292,1026,-0.0039,0.0273,1.0200,-0.0610,0.4272,-0.1221,33.0000,5.0000,5.0000,0,1,477,1148,413,0
34318295,1027,-0.0034,0.0278,1.0200,-0.1831,0.3662,-0.1221,33.0000,5.0000,5.0000,0,1,464,1151,397,0
34323294,1028,-0.0044,0.0273,1.0210,-0.0610,0.3052,-0.1221,33.0000,5.0000,5.0000,0,1,467,1155,423,0
34328288,1029,-0.0054,0.0264,1.0215,-0.1831,0.2441,0.0000,33.0000,5.0000,5.0000,0,1,476,1143,423,0
34333288,1030,-0.0054,0.0244,1.0220,-0.1221,0.2441,-0.2441,33.0000,5.0000,5.0000,0,1,468,1078,424,0
34338288,1031,-0.0044,0.0234,1.0210,-0.0610,0.4883,-0.2441,33.0000,5.0000,5.0000,0,1,480,1153,395,0
34343294,1032,-0.0034,0.0239,1.0210,-0.0610,0.4272,-0.1221,33.0000,5.0000,5.0000,0,1,463,1177,412,0
34348291,1033,-0.0034,0.0249,1.0210,0.0000,0.2441,-0.2441,33.0000,5.0000,5.0000,0,1,490,1151,412,0
34353294,1034,-0.0049,0.0254,1.0195,-0.0610,0.3052,-0.1831,33.0000,5.0000,5.0000,0,1,466,1114,413,0
34358290,1035,-0.0044,0.0259,1.0190,-0.0610,0.1221,-0.2441,33.0000,5.0000,5.0000,0,1,491,1149,412,0
34363295,1036,-0.0039,0.0264,1.0200,0.0610,0.1831,-0.1221,33.0000,5.0000,5.0000,0,1,479,1149,412,0
34368289,1037,-0.0063,0.0259,1.0205,0.0610,0.1831,-0.1221,34.0000,6.0000,5.0000,1,1,477,1147,398,0
34373288,1038,-0.0068,0.0254,1.0220,0.1221,0.1221,-0.2441,34.0000,6.0000,5.0000,0,1,475,1147,781,0
34378292,1039,-0.0039,0.0264,1.0220,0.1221,0.1831,-0.0610,34.0000,6.0000,5.0000,0,1,489,1173,396,0
34383292,1040,-0.0015,0.0269,1.0215,0.1831,0.1831,-0.2441,34.0000,6.0000,5.0000,0,1,477,1155,397,0
34388311,1041,-0.0010,0.0259,1.0210,0.1831,0.3052,-0.3052,34.0000,6.0000,5.0000,0,1,490,1162,395,0
34393289,1042,-0.0024,0.0259,1.0210,0.1831,0.1221,-0.1831,34.0000,6.0000,5.0000,0,1,463,1156,422,0
34398294,1043,-0.0039,0.0264,1.0210,0.0000,0.0610,-0.1221,34.0000,6.0000,5.0000,0,1,464,1152,397,0
34403292,1044,-0.0049,0.0254,1.0220,0.0000,0.2441,-0.2441,34.0000,6.0000,5.0000,0,1,480,1100,418,0
34408291,1045,-0.0054,0.0254,1.0220,0.0610,0.3052,-0.2441,34.0000,6.0000,5.0000,0,1,464,1137,398,0
34413289,1046,-0.0054,0.0269,1.0220,0.1221,0.2441,-0.2441,34.0000,6.0000,5.0000,0,1,466,1146,423,0
34418286,1047,-0.0049,0.0288,1.0215,0.1221,0.1831,-0.2441,34.0000,6.0000,5.0000,0,1,476,1149,410,0
34423289,1048,-0.0034,0.0278,1.0210,0.0000,0.2441,-0.1831,34.0000,6.0000,5.0000,0,1,467,1048,397,0
34428293,1049,-0.0024,0.0249,1.0220,0.0610,0.2441,-0.1221,34.0000,6.0000,5.0000,0,1,474,1082,401,0
34433293,1050,-0.0029,0.0239,1.0229,0.0610,0.2441,-0.1831,34.0000,6.0000,5.0000,0,1,473,1150,397,0
34438315,1051,-0.0029,0.0249,1.0229,0.0610,0.1831,-0.1221,34.0000,6.0000,5.0000,0,1,479,1185,395,0
34443287,1052,-0.0029,0.0254,1.0225,0.0000,0.1221,-0.1221,34.0000,6.0000,5.0000,0,1,463,1181,412,0
34448293,1053,-0.0034,0.0254,1.0220,0.0610,0.1221,-0.2441,34.0000,6.0000,5.0000,0,1,464,1098,414,0
34453289,1054,-0.0044,0.0254,1.0215,0.1221,0.1221,-0.2441,34.0000,6.0000,5.0000,0,1,491,1149,412,0
34458292,1055,-0.0044,0.0259,1.0210,0.1831,0.1831,-0.3052,34.0000,6.0000,5.0000,0,1,476,1143,411,0
34463291,1056,-0.0029,0.0269,1.0210,0.1221,0.1221,-0.2441,34.0000,6.0000,5.0000,0,1,487,1175,412,0
34468293,1057,-0.0020,0.0269,1.0215,0.1831,0.1221,-0.2441,32.0000,5.0000,9.0000,1,1,489,1134,405,0
34473287,1058,-0.0029,0.0269,1.0220,0.1831,0.1831,-0.3662,32.0000,5.0000,9.0000,0,1,479,1173,765,0
34478289,1059,-0.0039,0.0264,1.0225,0.1831,0.1221,-0.2441,32.0000,5.0000,9.0000,0,1,476,1206,414,0
34483295,1060,-0.0049,0.0264,1.0220,0.2441,0.0610,-0.1831,32.0000,5.0000,9.0000,0,1,481,1157,396,0
34488292,1061,-0.0044,0.0259,1.0205,0.1831,0.1221,-0.1221,32.0000,5.0000,9.0000,0,1,490,1186,395,0
34493287,1062,-0.0039,0.0269,1.0200,0.2441,0.0610,-0.2441,32.0000,5.0000,9.0000,0,1,479,1130,423,0
34498287,1063,-0.0034,0.0273,1.0215,0.2441,0.0610,-0.1221,32.0000,5.0000,9.0000,0,1,464,1177,405,0
34503291,1064,-0.0044,0.0269,1.0220,0.1221,0.1221,-0.2441,32.0000,5.0000,9.0000,0,1,480,1147,423,0
34508293,1065,-0.0059,0.0264,1.0210,0.0610,0.1221,-0.2441,32.0000,5.0000,9.0000,0,1,473,1141,406,0
34513288,1066,-0.0059,0.0264,1.0205,0.0610,0.1221,-0.1221,32.0000,5.0000,9.0000,0,1,478,1169,423,0
34518294,1067,-0.0044,0.0264,1.0200,0.0610,0.0610,-0.3662,32.0000,5.0000,9.0000,0,1,469,1063,425,0
34523294,1068,-0.0020,0.0273,1.0210,0.1831,0.2441,-0.2441,32.0000,5.0000,9.0000,0,1,469,1039,397,0
34528290,1069,-0.0005,0.0273,1.0220,0.1221,0.3052,-0.1831,32.0000,5.0000,9.0000,0,1,474,1047,424,0
34533290,1070,-0.0010,0.0269,1.0234,0.1221,0.1221,-0.1831,32.0000,5.0000,9.0000,0,1,476,1136,397,0
34538314,1071,-0.0024,0.0264,1.0239,0.1221,0.1221,-0.1831,32.0000,5.0000,9.0000,0,1,463,1139,395,0
34543288,1072,-0.0039,0.0264,1.0225,0.1831,0.0610,-0.2441,32.0000,5.0000,9.0000,0,1,463,1145,412,0
34548295,1073,-0.0049,0.0273,1.0215,0.0610,0.1221,-0.1831,32.0000,5.0000,9.0000,0,1,464,1151,410,0
34553286,1074,-0.0049,0.0264,1.0210,0.0000,0.1831,-0.1221,32.0000,5.0000,9.0000,0,1,491,1144,412,0
34558295,1075,-0.0039,0.0264,1.0205,0.1831,0.1221,-0.1831,32.0000,5.0000,9.0000,0,1,472,1095,412,0
34563295,1076,-0.0029,0.0264,1.0200,0.2441,0.1221,-0.1831,32.0000,5.0000,9.0000,0,1,476,1177,413,0
34568294,1077,-0.0029,0.0259,1.0195,0.1831,0.1221,-0.1221,32.0000,6.0000,3.0000,1,1,476,1136,405,0
34573295,1078,-0.0029,0.0264,1.0205,0.1221,0.2441,-0.0610,32.0000,6.0000,3.0000,0,1,486,1137,782,0
34578287,1079,-0.0029,0.0259,1.0225,0.1221,0.2441,-0.1221,32.0000,6.0000,3.0000,0,1,475,1192,409,0
34583290,1080,-0.0029,0.0254,1.0229,0.1221,0.1831,-0.2441,32.0000,6.0000,3.0000,0,1,468,1147,396,0
34588293,1081,-0.0039,0.0259,1.0220,0.1221,0.2441,-0.3052,32.0000,6.0000,3.0000,0,1,490,1182,395,0
34593292,1082,-0.0044,0.0269,1.0215,0.0610,0.2441,-0.2441,32.0000,6.0000,3.0000,0,1,479,1126,422,0
34598290,1083,-0.0044,0.0259,1.0220,0.1221,0.1831,-0.3052,32.0000,6.0000,3.0000,0,1,464,1144,417,0
34603286,1084,-0.0039,0.0249,1.0220,0.2441,0.1831,-0.3052,32.0000,6.0000,3.0000,0,1,480,1137,425,0
34608294,1085,-0.0044,0.0254,1.0210,0.1831,0.2441,-0.1831,32.0000,6.0000,3.0000,0,1,469,1145,403,0
34613294,1086,-0.0049,0.0264,1.0215,0.1221,0.4272,-0.1831,32.0000,6.0000,3.0000,0,1,470,1145,423,0
34618292,1087,-0.0044,0.0269,1.0229,0.0610,0.3662,-0.2441,32.0000,6.0000,3.0000,0,1,474,1139,403,0
34623290,1088,-0.0034,0.0273,1.0234,0.0610,0.3662,-0.1831,32.0000,6.0000,3.0000,0,1,464,1041,397,0
34628290,1089,-0.0024,0.0278,1.0239,0.1221,0.2441,-0.1221,32.0000,6.0000,3.0000,0,1,470,1045,423,0
34633294,1090,-0.0024,0.0273,1.0220,0.1221,0.3052,-0.1831,32.0000,6.0000,3.0000,0,1,473,1115,396,0
34638309,1091,-0.0039,0.0264,1.0190,0.0610,0.3662,-0.1831,32.0000,6.0000,3.0000,0,1,480,1139,395,0
34643291,1092,-0.0049,0.0259,1.0190,0.1221,0.2441,-0.1831,32.0000,6.0000,3.0000,0,1,463,1145,412,0
34648295,1093,-0.0044,0.0259,1.0205,0.0000,0.3052,-0.3052,32.0000,6.0000,3.0000,0,1,491,1143,398,0
34653291,1094,-0.0044,0.0269,1.0220,0.0610,0.3052,-0.3052,32.0000,6.0000,3.0000,0,1,487,1087,412,0
34658291,1095,-0.0044,0.0273,1.0234,0.1221,0.1221,-0.1831,32.0000,6.0000,3.0000,0,1,464,1131,414,0
34663292,1096,-0.0039,0.0249,1.0225,0.0610,0.1831,-0.2441,32.0000,6.0000,3.0000,0,1,472,1140,398,0
34668291,1097,-0.0049,0.0254,1.0220,0.0610,0.2441,-0.1831,32.0000,6.0000,1.0000,1,1,472,1138,407,0
34673290,1098,-0.0034,0.0264,1.0220,0.0610,0.1831,-0.1221,32.0000,6.0000,1.0000,0,1,481,1139,781,0
34678291,1099,-0.0034,0.0273,1.0210,0.1831,0.1831,-0.1831,32.0000,6.0000,1.0000,0,1,472,1194,410,0
34683286,1100,-0.0044,0.0269,1.0205,0.1221,0.2441,-0.1831,32.0000,6.0000,1.0000,0,1,479,1157,396,0
34688288,1101,-0.0039,0.0259,1.0200,0.1831,0.2441,-0.0610,32.0000,6.0000,1.0000,0,1,491,1179,395,0
34693288,1102,-0.0034,0.0264,1.0205,0.0610,0.2441,-0.3052,32.0000,6.0000,1.0000,0,1,463,1162,422,0
34698293,1103,-0.0044,0.0269,1.0215,0.0000,0.1831,-0.3052,32.0000,6.0000,1.0000,0,1,463,1142,408,0
34703295,1104,-0.0049,0.0269,1.0220,0.0000,0.1831,-0.2441,32.0000,6.0000,1.0000,0,1,480,1093,411,0
34708291,1105,-0.0054,0.0259,1.0215,0.0000,0.1221,-0.2441,32.0000,6.0000,1.0000,0,1,463,1098,397,0
34713290,1106,-0.0044,0.0244,1.0215,0.0610,0.1221,-0.1221,32.0000,6.0000,1.0000,0,1,464,1092,423,0
34718288,1107,-0.0020,0.0239,1.0210,0.1221,0.2441,-0.3052,32.0000,6.0000,1.0000,0,1,471,1135,401,0
34723289,1108,-0.0015,0.0249,1.0210,0.1221,0.1831,-0.3052,32.0000,6.0000,1.0000,0,1,479,1041,423,0
34728290,1109,-0.0024,0.0269,1.0220,0.0610,0.1221,-0.2441,32.0000,6.0000,1.0000,0,1,463,1059,419,0
34733294,1110,-0.0034,0.0273,1.0234,0.0000,0.2441,-0.2441,32.0000,6.0000,1.0000,0,1,468,1111,397,0
34738301,1111,-0.0029,0.0269,1.0234,0.1221,0.1831,-0.1831,32.0000,6.0000,1.0000,0,1,480,1133,395,0
34743292,1112,-0.0024,0.0269,1.0210,0.0610,0.1831,-0.3052,32.0000,6.0000,1.0000,0,1,463,1144,412,0
34748291,1113,-0.0034,0.0273,1.0190,0.1221,0.1831,-0.3052,32.0000,6.0000,1.0000,0,1,490,1139,397,0
34753293,1114,-0.0044,0.0269,1.0190,0.1831,0.1831,-0.1221,32.0000,6.0000,1.0000,0,1,483,1143,413,0
34758289,1115,-0.0044,0.0269,1.0195,0.0610,0.2441,-0.1831,32.0000,6.0000,1.0000,0,1,465,1141,408,0
34763289,1116,-0.0039,0.0264,1.0210,-0.1221,0.2441,-0.2441,32.0000,6.0000,1.0000,0,1,490,1144,412,0
34768288,1117,-0.0034,0.0269,1.0220,-0.0610,0.1831,-0.1831,31.0000,6.0000,1.0000,1,1,479,1133,405,0
34773291,1118,-0.0024,0.0269,1.0205,-0.0610,0.2441,-0.2441,31.0000,6.0000,1.0000,0,1,481,1144,782,0
34778289,1119,-0.0024,0.0264,1.0205,0.0610,0.2441,-0.1831,31.0000,6.0000,1.0000,0,1,490,1185,397,0
34783286,1120,-0.0029,0.0254,1.0229,0.1221,0.2441,-0.1221,31.0000,6.0000,1.0000,0,1,484,1153,397,0
34788286,1121,-0.0039,0.0244,1.0239,0.0610,0.2441,-0.1831,31.0000,6.0000,1.0000,0,1,490,1179,395,0
34793292,1122,-0.0054,0.0249,1.0225,0.1221,0.1831,-0.1831,31.0000,6.0000,1.0000,0,1,480,1167,422,0
34798286,1123,-0.0044,0.0264,1.0215,0.0610,0.1831,-0.3052,31.0000,6.0000,1.0000,0,1,464,1144,405,0
34803286,1124,-0.0039,0.0264,1.0205,0.1831,0.0610,-0.1831,31.0000,6.0000,1.0000,0,1,480,1137,419,0
34808292,1125,-0.0034,0.0259,1.0205,0.1221,0.1831,-0.2441,31.0000,6.0000,1.0000,0,1,464,1145,396,0
34813291,1126,-0.0034,0.0254,1.0205,0.1221,0.2441,-0.2441,31.0000,6.0000,1.0000,0,1,468,1146,423,0
34818290,1127,-0.0029,0.0249,1.0205,0.1831,0.2441,-0.1831,31.0000,6.0000,1.0000,0,1,474,1144,399,0
34823290,1128,-0.0034,0.0254,1.0215,0.0610,0.2441,-0.2441,31.0000,6.0000,1.0000,0,1,464,1055,423,0
34828294,1129,-0.0044,0.0254,1.0225,0.0610,0.3052,-0.1831,31.0000,6.0000,1.0000,0,1,467,1050,419,0
34833293,1130,-0.0054,0.0254,1.0225,0.0610,0.3662,-0.2441,31.0000,6.0000,1.0000,0,1,466,1107,424,0
34838291,1131,-0.0054,0.0259,1.0225,0.0610,0.1221,-0.1831,31.0000,6.0000,1.0000,0,1,480,1142,395,0
34843286,1132,-0.0049,0.0259,1.0225,0.0610,0.1221,-0.1831,31.0000,6.0000,1.0000,0,1,463,1138,412,0
34848294,1133,-0.0054,0.0254,1.0220,0.0000,0.2441,-0.3052,31.0000,6.0000,1.0000,0,1,490,1138,398,0
34853288,1134,-0.0054,0.0264,1.0210,0.0610,0.2441,-0.3662,31.0000,6.0000,1.0000,0,1,470,1091,413,0
34858290,1135,-0.0044,0.0264,1.0205,0.1831,0.1831,-0.2441,31.0000,6.0000,1.0000,0,1,463,1140,408,0
34863293,1136,-0.0039,0.0269,1.0205,0.1221,0.1831,-0.3052,31.0000,6.0000,1.0000,0,1,481,1146,412,0
34868293,1137,-0.0044,0.0273,1.0210,0.1221,0.2441,-0.2441,32.0000,6.0000,3.0000,1,1,491,1129,398,0
34873291,1138,-0.0044,0.0273,1.0205,0.1221,0.3052,-0.2441,32.0000,6.0000,3.0000,0,1,471,1139,781,0
34878292,1139,-0.0039,0.0269,1.0200,0.1831,0.1831,-0.2441,32.0000,6.0000,3.0000,0,1,485,1193,398,0
34883291,1140,-0.0034,0.0273,1.0205,0.1831,0.2441,-0.3052,32.0000,6.0000,3.0000,0,1,476,1155,396,0
34888287,1141,-0.0039,0.0273,1.0220,0.1221,0.2441,-0.2441,32.0000,6.0000,3.0000,0,1,490,1184,395,0
34893289,1142,-0.0049,0.0273,1.0220,0.0610,0.1831,-0.1831,32.0000,6.0000,3.0000,0,1,479,1163,422,0
34898287,1143,-0.0049,0.0278,1.0215,0.1221,0.2441,-0.2441,32.0000,6.0000,3.0000,0,1,464,1144,408,0
34903291,1144,-0.0039,0.0278,1.0215,0.2441,0.1221,-0.1831,32.0000,6.0000,3.0000,0,1,480,1143,418,0
34908288,1145,-0.0024,0.0273,1.0220,0.1831,-0.0610,-0.1831,32.0000,6.0000,3.0000,0,1,465,1145,396,0
34913293,1146,-0.0015,0.0273,1.0220,0.1831,0.1221,-0.3052,32.0000,6.0000,3.0000,0,1,471,1149,423,0
34918288,1147,-0.0015,0.0278,1.0215,0.1831,0.2441,-0.3052,32.0000,6.0000,3.0000,0,1,471,1135,397,0
34923292,1148,-0.0020,0.0273,1.0210,0.0000,0.3052,-0.2441,32.0000,6.0000,3.0000,0,1,464,1068,422,0
34928294,1149,-0.0029,0.0278,1.0210,-0.0610,0.3052,-0.1831,32.0000,6.0000,3.0000,0,1,465,1063,417,0
34933289,1150,-0.0034,0.0283,1.0210,0.0610,0.3052,-0.0610,32.0000,6.0000,3.0000,0,1,470,1110,423,0
34938301,1151,-0.0034,0.0273,1.0210,0.0000,0.3662,-0.0610,32.0000,6.0000,3.0000,0,1,480,1136,395,0
34943294,1152,-0.0029,0.0273,1.0210,0.1221,0.3052,-0.0610,32.0000,6.0000,3.0000,0,1,463,1098,412,0
34948289,1153,-0.0029,0.0278,1.0210,0.0000,0.3662,-0.1831,32.0000,6.0000,3.0000,0,1,490,1134,398,0
34953293,1154,-0.0034,0.0283,1.0205,-0.0610,0.4883,-0.1831,32.0000,6.0000,3.0000,0,1,491,1100,413,0
34958286,1155,-0.0034,0.0278,1.0210,0.0000,0.3052,-0.2441,32.0000,6.0000,3.0000,0,1,464,1145,412,0
34963288,1156,-0.0034,0.0269,1.0215,0.1221,0.2441,-0.3052,32.0000,6.0000,3.0000,0,1,479,1087,397,0
34968292,1157,-0.0029,0.0269,1.0205,0.1221,0.2441,-0.1221,32.0000,5.0000,4.0000,1,1,490,1129,412,0
34973293,1158,-0.0029,0.0273,1.0205,0.1221,0.2441,-0.2441,32.0000,5.0000,4.0000,0,1,472,1141,764,0
34978294,1159,-0.0024,0.0269,1.0220,0.1221,0.3052,-0.1831,32.0000,5.0000,4.0000,0,1,483,1189,414,0
34983289,1160,-0.0029,0.0269,1.0225,0.0000,0.3662,-0.1831,32.0000,5.0000,4.0000,0,1,467,1151,396,0
34988287,1161,-0.0039,0.0278,1.0215,0.0610,0.3662,-0.1831,32.0000,5.0000,4.0000,0,1,490,1119,395,0
34993294,1162,-0.0039,0.0273,1.0205,0.0610,0.3662,-0.3052,32.0000,5.0000,4.0000,0,1,480,1169,423,0
34998292,1163,-0.0039,0.0278,1.0200,0.0610,0.3662,-0.2441,32.0000,5.0000,4.0000,0,1,466,1146,423,0
35003292,1164,-0.0024,0.0278,1.0210,0.0000,0.4883,-0.0610,32.0000,5.0000,4.0000,0,1,464,1150,423,0
35008295,1165,-0.0024,0.0269,1.0215,0.0000,0.3662,-0.1221,32.0000,5.0000,4.0000,0,1,463,1099,411,0
35013289,1166,-0.0034,0.0269,1.0210,0.0610,0.3052,-0.1831,32.0000,5.0000,4.0000,0,1,471,1099,423,0
35018290,1167,-0.0039,0.0269,1.0215,0.0000,0.2441,-0.3052,32.0000,5.0000,4.0000,0,1,464,1142,423,0
35023288,1168,-0.0044,0.0259,1.0225,0.0000,0.3662,-0.3052,32.0000,5.0000,4.0000,0,1,466,1069,397,0
35028292,1169,-0.0039,0.0254,1.0229,0.1221,0.3662,-0.3052,32.0000,5.0000,4.0000,0,1,475,1067,424,0
35033292,1170,-0.0044,0.0264,1.0225,-0.0610,0.4883,-0.2441,32.0000,5.0000,4.0000,0,1,480,1143,394,0
35038318,1171,-0.0049,0.0273,1.0215,-0.1221,0.4883,-0.1221,32.0000,5.0000,4.0000,0,1,463,1142,412,0
35043288,1172,-0.0039,0.0278,1.0220,0.0000,0.4883,-0.1831,32.0000,5.0000,4.0000,0,1,462,1140,412,0
35048289,1173,-0.0029,0.0273,1.0229,0.0000,0.4272,0.0000,32.0000,5.0000,4.0000,0,1,465,1104,412,0
35053291,1174,-0.0024,0.0269,1.0229,0.0000,0.5493,-0.2441,32.0000,5.0000,4.0000,0,1,491,1058,396,0
35058294,1175,-0.0024,0.0278,1.0220,-0.0610,0.5493,-0.1831,32.0000,5.0000,4.0000,0,1,475,1106,412,0
35063291,1176,-0.0020,0.0278,1.0210,-0.1221,0.6104,-0.0610,32.0000,5.0000,4.0000,0,1,484,1152,398,0
35068292,1177,-0.0029,0.0283,1.0220,0.0000,0.4883,-0.1221,32.0000,5.0000,4.0000,0,1,479,1128,412,0
35073295,1178,-0.0039,0.0273,1.0234,-0.1221,0.3662,-0.1831,30.0000,4.0000,3.0000,1,1,480,1088,396,0
35078288,1179,-0.0039,0.0269,1.0239,-0.0610,0.4272,-0.1831,30.0000,4.0000,3.0000,0,1,487,1166,782,0
35083299,1180,-0.0044,0.0273,1.0225,-0.1221,0.6714,-0.1221,30.0000,4.0000,3.0000,0,1,477,1175,396,0
35088290,1181,-0.0034,0.0288,1.0215,-0.1831,0.6104,-0.0610,30.0000,4.0000,3.0000,0,1,490,1115,395,0
35093288,1182,-0.0029,0.0293,1.0210,-0.1831,0.6104,-0.0610,30.0000,4.0000,3.0000,0,1,479,1150,423,0
35098293,1183,-0.0034,0.0283,1.0210,0.0610,0.7324,-0.0610,30.0000,4.0000,3.0000,0,1,475,1129,418,0
35103287,1184,-0.0049,0.0259,1.0210,0.0000,0.5493,-0.1221,30.0000,4.0000,3.0000,0,1,464,1134,396,0
35108287,1185,-0.0059,0.0244,1.0205,0.0610,0.5493,-0.1221,30.0000,4.0000,3.0000,0,1,473,1080,408,0
35113292,1186,-0.0063,0.0254,1.0210,0.1221,0.6104,-0.1221,30.0000,4.0000,3.0000,0,1,480,1128,423,0
35118292,1187,-0.0059,0.0264,1.0210,0.0610,0.5493,-0.0610,30.0000,4.0000,3.0000,0,1,463,1116,421,0
35123288,1188,-0.0039,0.0259,1.0210,0.0610,0.5493,-0.1221,30.0000,4.0000,3.0000,0,1,465,1107,397,0
35128286,1189,-0.0029,0.0249,1.0220,0.0000,0.5493,-0.2441,30.0000,4.0000,3.0000,0,1,473,1109,424,0
35133290,1190,-0.0039,0.0244,1.0239,-0.0610,0.6714,-0.1221,30.0000,4.0000,3.0000,0,1,480,1091,395,0
35138316,1191,-0.0054,0.0259,1.0244,-0.0610,0.6104,-0.1831,30.0000,4.0000,3.0000,0,1,463,1151,412,0
35143295,1192,-0.0068,0.0273,1.0225,-0.0610,0.4883,-0.2441,30.0000,4.0000,3.0000,0,1,462,1131,412,0
35148293,1193,-0.0068,0.0283,1.0205,0.0000,0.4272,-0.1221,30.0000,4.0000,3.0000,0,1,490,1164,399,0
35153292,1194,-0.0054,0.0278,1.0205,0.0000,0.4272,-0.1221,30.0000,4.0000,3.0000,0,1,489,1088,412,0
35158291,1195,-0.0039,0.0264,1.0205,0.0000,0.4883,-0.1831,30.0000,4.0000,3.0000,0,1,464,1083,412,0
35163287,1196,-0.0029,0.0259,1.0215,0.0000,0.4883,-0.1221,30.0000,4.0000,3.0000,0,1,473,1078,397,0
35168289,1197,-0.0024,0.0264,1.0244,0.0000,0.3052,-0.1221,30.0000,4.0000,3.0000,0,1,489,1080,415,0
35173293,1198,-0.0020,0.0273,1.0249,0.0000,0.2441,0.0000,31.0000,6.0000,5.0000,1,1,487,1073,396,0
35178288,1199,-0.0020,0.0273,1.0234,0.0000,0.3662,-0.0610,31.0000,6.0000,5.0000,0,1,476,1057,782,0
35183295,1200,-0.0034,0.0269,1.0220,0.0000,0.4272,-0.1221,31.0000,6.0000,5.0000,0,1,467,1090,396,0
35188288,1201,-0.0054,0.0269,1.0210,-0.0610,0.6104,-0.1221,31.0000,6.0000,5.0000,0,1,490,1115,395,0
35193295,1202,-0.0054,0.0273,1.0210,0.0000,0.5493,-0.1831,31.0000,6.0000,5.0000,0,1,480,1150,422,0
35198290,1203,-0.0054,0.0264,1.0220,0.0000,0.4883,-0.1831,31.0000,6.0000,5.0000,0,1,466,1101,418,0
35203286,1204,-0.0059,0.0254,1.0215,-0.0610,0.5493,-0.1221,31.0000,6.0000,5.0000,0,1,463,1126,397,0
35208294,1205,-0.0054,0.0259,1.0210,-0.1221,0.5493,-0.1221,31.0000,6.0000,5.0000,0,1,474,1168,404,0
35213288,1206,-0.0049,0.0269,1.0220,-0.0610,0.6104,-0.1831,31.0000,6.0000,5.0000,0,1,470,1137,423,0
35218289,1207,-0.0054,0.0273,1.0229,-0.1221,0.6714,-0.1221,31.0000,6.0000,5.0000,0,1,465,1139,425,0
35223291,1208,-0.0063,0.0269,1.0225,-0.1221,0.6104,-0.2441,31.0000,6.0000,5.0000,0,1,464,1121,397,0
35228287,1209,-0.0063,0.0264,1.0215,-0.1221,0.4883,-0.1221,31.0000,6.0000,5.0000,0,1,472,1112,422,0
35233293,1210,-0.0054,0.0264,1.0215,0.0000,0.4883,-0.0610,31.0000,6.0000,5.0000,0,1,480,1140,395,0
35238306,1211,-0.0039,0.0264,1.0229,0.0000,0.6104,-0.0610,31.0000,6.0000,5.0000,0,1,463,1092,412,0
35243292,1212,-0.0034,0.0264,1.0234,-0.1831,0.6104,-0.1831,31.0000,6.0000,5.0000,0,1,463,1126,396,0
35248291,1213,-0.0034,0.0264,1.0220,-0.0610,0.6104,-0.0610,31.0000,6.0000,5.0000,0,1,490,1150,405,0
35253291,1214,-0.0044,0.0259,1.0195,-0.0610,0.5493,-0.1221,31.0000,6.0000,5.0000,0,1,491,1139,397,0
35258292,1215,-0.0059,0.0254,1.0190,0.0000,0.4883,-0.1831,31.0000,6.0000,5.0000,0,1,465,1142,412,0
35263292,1216,-0.0049,0.0259,1.0200,0.0610,0.3662,-0.1831,31.0000,6.0000,5.0000,0,1,473,1010,398,0
35268295,1217,-0.0029,0.0264,1.0220,-0.0610,0.3662,-0.1221,31.0000,6.0000,5.0000,0,1,487,1133,410,0
35273293,1218,-0.0029,0.0269,1.0229,-0.0610,0.4883,-0.1831,31.0000,4.0000,1.0000,1,1,471,1168,395,0
35278295,1219,-0.0029,0.0264,1.0234,-0.0610,0.4272,-0.3052,31.0000,4.0000,1.0000,0,1,475,1167,782,0
35283289,1220,-0.0039,0.0259,1.0229,-0.0610,0.3052,-0.1221,31.0000,4.0000,1.0000,0,1,482,1152,397,0
35288287,1221,-0.0044,0.0254,1.0215,0.0000,0.3662,-0.0610,31.0000,4.0000,1.0000,0,1,490,1157,395,0
35293286,1222,-0.0039,0.0259,1.0215,0.0000,0.3662,-0.0610,31.0000,4.0000,1.0000,0,1,480,1096,422,0
35298294,1223,-0.0049,0.0269,1.0220,-0.0610,0.6104,-0.0610,31.0000,4.0000,1.0000,0,1,468,1099,412,0
35303287,1224,-0.0063,0.0254,1.0205,-0.1221,0.4883,-0.0610,31.0000,4.0000,1.0000,0,1,480,1136,423,0
35308292,1225,-0.0059,0.0259,1.0190,0.0000,0.4272,-0.0610,31.0000,4.0000,1.0000,0,1,463,1170,400,0
35313291,1226,-0.0049,0.0283,1.0195,0.0000,0.6104,-0.1221,31.0000,4.0000,1.0000,0,1,463,1094,423,0
35318288,1227,-0.0034,0.0278,1.0215,0.0000,0.5493,-0.0610,31.0000,4.0000,1.0000,0,1,471,991,401,0
35323295,1228,-0.0024,0.0264,1.0229,0.0000,0.4272,-0.1221,31.0000,4.0000,1.0000,0,1,481,1016,423,0
35328286,1229,-0.0034,0.0264,1.0234,-0.0610,0.6104,-0.1831,31.0000,4.0000,1.0000,0,1,463,1072,419,0
