t_us, seq, ax, ay, az, gx, gy, gz, mx, my, mz, valid_mag_reading, valid, t_imu_us, t_serial_us, last_t_mag, missed
106083294,15096,-0.0322,0.0205,1.0195,-0.2441,0.6104,-0.3662,5.0000,-20.0000,-67.0000,0,1,491,1161,396,284
106088291,15097,-0.0308,0.0210,1.0200,-0.2441,0.6104,-0.3662,5.0000,-20.0000,-67.0000,0,1,507,1167,397,284
106093293,15098,-0.0298,0.0210,1.0220,-0.3662,0.6714,-0.3052,5.0000,-20.0000,-67.0000,0,1,477,1157,396,284
106098289,15099,-0.0308,0.0210,1.0220,-0.3052,0.4883,-0.3052,6.0000,-19.0000,-71.0000,1,1,501,1155,397,284
106103288,15100,-0.0327,0.0220,1.0205,-0.1221,0.6104,-0.3662,6.0000,-19.0000,-71.0000,0,1,508,1063,810,284
106108290,15101,-0.0327,0.0225,1.0200,-0.0610,0.6714,-0.3662,6.0000,-19.0000,-71.0000,0,1,490,1172,396,284
106113292,15102,-0.0327,0.0215,1.0195,-0.0610,0.5493,-0.3052,6.0000,-19.0000,-71.0000,0,1,490,1171,397,284
106118293,15103,-0.0317,0.0210,1.0200,-0.1221,0.4883,-0.3662,6.0000,-19.0000,-71.0000,0,1,507,1173,397,284
106123290,15104,-0.0308,0.0215,1.0215,-0.1831,0.5493,-0.3052,6.0000,-19.0000,-71.0000,0,1,506,1169,397,284
106128294,15105,-0.0312,0.0225,1.0239,-0.1221,0.7324,-0.2441,6.0000,-19.0000,-71.0000,0,1,507,1168,395,284
106133293,15106,-0.0312,0.0234,1.0249,-0.1221,0.7935,-0.2441,6.0000,-19.0000,-71.0000,0,1,462,1201,440,284
106138292,15107,-0.0308,0.0225,1.0244,-0.4272,0.7935,-0.3662,6.0000,-19.0000,-71.0000,0,1,463,1199,412,284
106143293,15108,-0.0308,0.0215,1.0249,-0.3662,0.7935,-0.3662,6.0000,-19.0000,-71.0000,0,1,463,1172,441,284
106148290,15109,-0.0303,0.0220,1.0249,-0.3052,1.0376,-0.3662,6.0000,-19.0000,-71.0000,0,1,463,1173,408,284
106153290,15110,-0.0317,0.0229,1.0249,-0.4883,1.0376,-0.4272,6.0000,-19.0000,-71.0000,0,1,463,1167,436,284
106158290,15111,-0.0327,0.0229,1.0239,-0.7324,1.1597,-0.4272,6.0000,-19.0000,-71.0000,0,1,463,1205,399,284
106163294,15112,-0.0327,0.0229,1.0239,-0.6714,1.0986,-0.3052,6.0000,-19.0000,-71.0000,0,1,463,1209,437,284
106168295,15113,-0.0317,0.0225,1.0239,-0.6104,1.0376,-0.3662,6.0000,-19.0000,-71.0000,0,1,463,1166,439,284
106173293,15114,-0.0322,0.0225,1.0225,-0.6104,1.0986,-0.4272,6.0000,-19.0000,-71.0000,0,1,463,1076,430,284
106178294,15115,-0.0337,0.0220,1.0200,-0.6714,1.1597,-0.4272,6.0000,-19.0000,-71.0000,0,1,463,1237,397,284
106183314,15116,-0.0352,0.0195,1.0195,-0.7324,0.9766,-0.4272,6.0000,-19.0000,-71.0000,0,1,462,1180,397,284
106188286,15117,-0.0347,0.0186,1.0210,-0.6714,1.0376,-0.3662,6.0000,-19.0000,-71.0000,0,1,462,1184,397,284
106193287,15118,-0.0332,0.0200,1.0220,-0.5493,1.1597,-0.3662,6.0000,-19.0000,-71.0000,0,1,462,1198,396,284
106198288,15119,-0.0337,0.0210,1.0220,-0.5493,1.0986,-0.2441,5.0000,-21.0000,-66.0000,1,1,465,1177,397,284
106203290,15120,-0.0347,0.0210,1.0205,-0.5493,1.0986,-0.3052,5.0000,-21.0000,-66.0000,0,1,507,1182,792,284
106208291,15121,-0.0352,0.0195,1.0200,-0.6104,1.2207,-0.2441,5.0000,-21.0000,-66.0000,0,1,476,1177,396,284
106213289,15122,-0.0347,0.0176,1.0205,-0.5493,1.1597,-0.3052,5.0000,-21.0000,-66.0000,0,1,498,1179,396,284
106218287,15123,-0.0342,0.0181,1.0200,-0.4883,1.0376,-0.2441,5.0000,-21.0000,-66.0000,0,1,501,1177,397,284
106223291,15124,-0.0342,0.0200,1.0195,-0.4883,1.1597,-0.3662,5.0000,-21.0000,-66.0000,0,1,508,1173,396,284
106228288,15125,-0.0337,0.0220,1.0215,-0.4883,1.2207,-0.3052,5.0000,-21.0000,-66.0000,0,1,487,1179,397,284
106233290,15126,-0.0327,0.0225,1.0239,-0.5493,1.0986,-0.3052,5.0000,-21.0000,-66.0000,0,1,496,1204,396,284
106238290,15127,-0.0312,0.0225,1.0249,-0.6104,1.0986,-0.3052,5.0000,-21.0000,-66.0000,0,1,495,1183,396,284
106243288,15128,-0.0317,0.0210,1.0229,-0.6714,1.2817,-0.3662,5.0000,-21.0000,-66.0000,0,1,507,1199,396,284
106248291,15129,-0.0337,0.0195,1.0220,-0.6104,1.1597,-0.2441,5.0000,-21.0000,-66.0000,0,1,462,1184,440,284
106253289,15130,-0.0347,0.0186,1.0225,-0.7324,1.1597,-0.2441,5.0000,-21.0000,-66.0000,0,1,463,1178,404,284
106258287,15131,-0.0347,0.0190,1.0220,-0.7324,1.1597,-0.3052,5.0000,-21.0000,-66.0000,0,1,463,1180,441,284
106263291,15132,-0.0347,0.0200,1.0210,-0.6714,1.2817,-0.3052,5.0000,-21.0000,-66.0000,0,1,463,1176,413,284
106268291,15133,-0.0342,0.0210,1.0200,-0.7935,1.2817,-0.4272,5.0000,-21.0000,-66.0000,0,1,463,1173,440,284
106273294,15134,-0.0342,0.0205,1.0190,-0.6104,1.2207,-0.2441,5.0000,-21.0000,-66.0000,0,1,462,1205,410,284
106278291,15135,-0.0342,0.0200,1.0200,-0.6714,1.3428,-0.3052,5.0000,-21.0000,-66.0000,0,1,462,1178,441,284
106283291,15136,-0.0347,0.0195,1.0215,-0.6714,1.2817,-0.3052,5.0000,-21.0000,-66.0000,0,1,463,1086,440,284
106288289,15137,-0.0347,0.0190,1.0215,-0.6104,1.2207,-0.3052,5.0000,-21.0000,-66.0000,0,1,462,1175,436,284
106293289,15138,-0.0347,0.0181,1.0190,-0.5493,1.2817,-0.2441,5.0000,-21.0000,-66.0000,0,1,463,1179,396,284
106298322,15139,-0.0352,0.0186,1.0176,-0.4883,1.3428,-0.3052,4.0000,-17.0000,-67.0000,1,1,463,1193,396,284
106303291,15140,-0.0352,0.0205,1.0190,-0.6104,1.2207,-0.3052,4.0000,-17.0000,-67.0000,0,1,463,1163,812,284
106308290,15141,-0.0347,0.0215,1.0215,-0.5493,1.1597,-0.3662,4.0000,-17.0000,-67.0000,0,1,506,1205,396,284
106313289,15142,-0.0347,0.0195,1.0234,-0.6714,1.2817,-0.2441,4.0000,-17.0000,-67.0000,0,1,495,1219,396,284
106318287,15143,-0.0356,0.0176,1.0225,-0.4883,1.2207,-0.2441,4.0000,-17.0000,-67.0000,0,1,508,1179,396,284
106323289,15144,-0.0356,0.0176,1.0200,-0.4883,1.2207,-0.3052,4.0000,-17.0000,-67.0000,0,1,479,1174,396,284
106328294,15145,-0.0342,0.0181,1.0195,-0.4272,1.1597,-0.3052,4.0000,-17.0000,-67.0000,0,1,507,1168,396,284
106333291,15146,-0.0337,0.0181,1.0195,-0.3662,1.0986,-0.2441,4.0000,-17.0000,-67.0000,0,1,507,1198,396,284
106338293,15147,-0.0347,0.0186,1.0200,-0.4272,1.0986,-0.3052,4.0000,-17.0000,-67.0000,0,1,495,1176,396,284
106343290,15148,-0.0361,0.0200,1.0200,-0.6104,1.1597,-0.2441,4.0000,-17.0000,-67.0000,0,1,500,1167,396,284
106348288,15149,-0.0376,0.0200,1.0205,-0.4883,1.0376,-0.3662,4.0000,-17.0000,-67.0000,0,1,507,1171,396,284
106353291,15150,-0.0376,0.0195,1.0210,-0.4272,1.0376,-0.3662,4.0000,-17.0000,-67.0000,0,1,504,1168,397,284
106358290,15151,-0.0371,0.0181,1.0205,-0.5493,0.9766,-0.3662,4.0000,-17.0000,-67.0000,0,1,507,1173,395,284
106363286,15152,-0.0366,0.0181,1.0195,-0.3662,0.7935,-0.2441,4.0000,-17.0000,-67.0000,0,1,463,1173,398,284
106368290,15153,-0.0366,0.0186,1.0181,-0.2441,0.7935,-0.3662,4.0000,-17.0000,-67.0000,0,1,463,1175,442,284
106373287,15154,-0.0361,0.0190,1.0176,-0.4883,0.7935,-0.2441,4.0000,-17.0000,-67.0000,0,1,463,1172,401,284
106378287,15155,-0.0361,0.0195,1.0190,-0.4883,0.6104,-0.3662,4.0000,-17.0000,-67.0000,0,1,463,1172,440,284
106383289,15156,-0.0361,0.0190,1.0215,-0.4272,0.6104,-0.3662,4.0000,-17.0000,-67.0000,0,1,463,1201,405,284
106388293,15157,-0.0356,0.0181,1.0215,-0.3052,0.6714,-0.2441,4.0000,-17.0000,-67.0000,0,1,462,1170,428,284
106393289,15158,-0.0361,0.0186,1.0200,-0.3662,0.6104,-0.2441,4.0000,-17.0000,-67.0000,0,1,463,1159,440,284
106398295,15159,-0.0366,0.0210,1.0195,-0.4272,0.6104,-0.3052,4.0000,-19.0000,-65.0000,1,1,463,1169,431,284
106403291,15160,-0.0361,0.0215,1.0205,-0.4272,0.5493,-0.1831,4.0000,-19.0000,-65.0000,0,1,463,1158,810,284
106408326,15161,-0.0356,0.0205,1.0205,-0.4883,0.5493,-0.2441,4.0000,-19.0000,-65.0000,0,1,463,1176,396,284
106413290,15162,-0.0361,0.0195,1.0195,-0.5493,0.4883,-0.1831,4.0000,-19.0000,-65.0000,0,1,462,1205,397,284
106418289,15163,-0.0381,0.0176,1.0176,-0.4883,0.5493,-0.1831,4.0000,-19.0000,-65.0000,0,1,507,1187,397,284
106423293,15164,-0.0386,0.0151,1.0156,-0.2441,0.3052,-0.1221,4.0000,-19.0000,-65.0000,0,1,464,1189,397,284
106428292,15165,-0.0386,0.0151,1.0156,-0.1221,0.2441,-0.2441,4.0000,-19.0000,-65.0000,0,1,508,1189,397,284
106433291,15166,-0.0371,0.0176,1.0166,-0.1221,0.3662,-0.2441,4.0000,-19.0000,-65.0000,0,1,474,1165,396,284
106438293,15167,-0.0371,0.0195,1.0161,-0.1831,0.2441,-0.1831,4.0000,-19.0000,-65.0000,0,1,507,1165,396,284
106443293,15168,-0.0376,0.0186,1.0161,-0.1221,-0.0610,-0.2441,4.0000,-19.0000,-65.0000,0,1,488,1172,397,284
106448289,15169,-0.0376,0.0176,1.0171,-0.0610,0.0610,-0.3052,4.0000,-19.0000,-65.0000,0,1,496,1160,396,284
106453292,15170,-0.0381,0.0186,1.0176,-0.1221,0.0000,-0.2441,4.0000,-19.0000,-65.0000,0,1,503,1151,396,284
106458291,15171,-0.0381,0.0195,1.0176,-0.1221,-0.1831,-0.1831,4.0000,-19.0000,-65.0000,0,1,503,1110,397,284
106463286,15172,-0.0366,0.0195,1.0176,-0.0610,-0.0610,-0.3052,4.0000,-19.0000,-65.0000,0,1,504,1159,398,284
106468290,15173,-0.0352,0.0195,1.0186,0.0000,-0.2441,-0.2441,4.0000,-19.0000,-65.0000,0,1,462,1186,395,284
106473290,15174,-0.0342,0.0190,1.0215,-0.0610,-0.3052,-0.3052,4.0000,-19.0000,-65.0000,0,1,463,1147,400,284
106478291,15175,-0.0342,0.0190,1.0239,-0.1221,-0.2441,-0.3052,4.0000,-19.0000,-65.0000,0,1,463,1152,443,284
106483286,15176,-0.0347,0.0215,1.0254,-0.1831,-0.2441,-0.2441,4.0000,-19.0000,-65.0000,0,1,463,1158,403,284
106488286,15177,-0.0347,0.0225,1.0244,-0.2441,-0.1831,-0.2441,4.0000,-19.0000,-65.0000,0,1,463,1164,429,284
106493291,15178,-0.0352,0.0200,1.0215,-0.2441,0.0000,-0.1831,4.0000,-19.0000,-65.0000,0,1,463,1168,440,284
106498290,15179,-0.0376,0.0171,1.0181,-0.2441,0.0610,-0.1831,4.0000,-19.0000,-65.0000,0,1,463,998,433,284
106503294,15180,-0.0400,0.0151,1.0151,-0.1221,-0.3052,-0.3662,5.0000,-17.0000,-65.0000,1,1,463,1044,439,284
106508295,15181,-0.0400,0.0137,1.0151,-0.0610,-0.6714,-0.2441,5.0000,-17.0000,-65.0000,0,1,463,1189,802,284
106513293,15182,-0.0381,0.0151,1.0171,0.0610,-0.7324,-0.1221,5.0000,-17.0000,-65.0000,0,1,463,1177,396,284
106518318,15183,-0.0361,0.0181,1.0195,0.1221,-0.6104,-0.1221,5.0000,-17.0000,-65.0000,0,1,463,1166,397,284
106523338,15184,-0.0356,0.0195,1.0220,0.0610,-0.6104,-0.1831,5.0000,-17.0000,-65.0000,0,1,463,1171,396,284
106528289,15185,-0.0356,0.0190,1.0215,-0.0610,-0.6104,-0.3052,5.0000,-17.0000,-65.0000,0,1,463,1192,396,284
106533288,15186,-0.0356,0.0186,1.0195,0.0610,-0.6104,-0.3052,5.0000,-17.0000,-65.0000,0,1,465,1186,396,284
106538294,15187,-0.0356,0.0181,1.0190,0.0000,-0.6714,-0.3052,5.0000,-17.0000,-65.0000,0,1,508,1158,397,284
106543290,15188,-0.0356,0.0181,1.0190,-0.0610,-0.6714,-0.3662,5.0000,-17.0000,-65.0000,0,1,470,1111,396,284
106548291,15189,-0.0347,0.0181,1.0195,0.0610,-0.6104,-0.4883,5.0000,-17.0000,-65.0000,0,1,500,1161,396,284
106553288,15190,-0.0347,0.0181,1.0205,0.0000,-0.6714,-0.3662,5.0000,-17.0000,-65.0000,0,1,502,1184,396,284
106558293,15191,-0.0347,0.0176,1.0205,-0.1221,-0.7324,-0.3662,5.0000,-17.0000,-65.0000,0,1,504,1114,396,284
106563289,15192,-0.0356,0.0176,1.0205,-0.0610,-0.6714,-0.3662,5.0000,-17.0000,-65.0000,0,1,502,1163,397,284
106568290,15193,-0.0356,0.0186,1.0220,-0.0610,-0.7324,-0.2441,5.0000,-17.0000,-65.0000,0,1,507,1192,397,284
106573288,15194,-0.0337,0.0205,1.0234,0.1221,-0.6714,-0.2441,5.0000,-17.0000,-65.0000,0,1,486,1164,396,284
106578286,15195,-0.0322,0.0210,1.0239,0.0000,-0.5493,-0.3052,5.0000,-17.0000,-65.0000,0,1,507,1161,395,284
106583295,15196,-0.0327,0.0195,1.0234,-0.1831,-0.3662,-0.1831,5.0000,-17.0000,-65.0000,0,1,463,1116,440,284
106588293,15197,-0.0337,0.0176,1.0225,-0.1221,-0.4272,-0.2441,5.0000,-17.0000,-65.0000,0,1,463,1172,440,284
106593288,15198,-0.0337,0.0166,1.0220,0.0000,-0.3662,-0.1831,5.0000,-17.0000,-65.0000,0,1,463,1159,429,284
106598291,15199,-0.0337,0.0166,1.0210,0.1221,-0.3662,-0.2441,5.0000,-17.0000,-65.0000,0,1,463,1118,440,284
106603291,15200,-0.0337,0.0176,1.0205,0.0610,-0.3662,-0.1831,5.0000,-19.0000,-66.0000,1,1,463,1161,433,284
106608288,15201,-0.0332,0.0181,1.0215,0.1221,-0.2441,-0.1831,5.0000,-19.0000,-66.0000,0,1,463,1178,809,284
106613294,15202,-0.0352,0.0156,1.0205,0.0000,-0.3052,-0.2441,5.0000,-19.0000,-66.0000,0,1,463,1205,433,284
106618287,15203,-0.0337,0.0171,1.0215,0.1831,-0.3052,-0.3052,5.0000,-19.0000,-66.0000,0,1,463,1018,437,284
106623293,15204,-0.0332,0.0195,1.0239,0.1831,-0.1221,-0.3662,5.0000,-19.0000,-66.0000,0,1,462,1195,405,284
106628292,15205,-0.0332,0.0210,1.0244,0.0610,-0.1221,-0.1831,5.0000,-19.0000,-66.0000,0,1,463,1180,441,284
106633289,15206,-0.0327,0.0200,1.0220,0.0000,-0.0610,-0.2441,5.0000,-19.0000,-66.0000,0,1,463,1186,396,284
106638334,15207,-0.0337,0.0181,1.0195,-0.0610,-0.0610,-0.3052,5.0000,-19.0000,-66.0000,0,1,462,1121,397,284
106643291,15208,-0.0356,0.0176,1.0195,-0.0610,-0.1221,-0.2441,5.0000,-19.0000,-66.0000,0,1,463,1209,396,284
106648293,15209,-0.0361,0.0171,1.0195,-0.0610,-0.1221,-0.2441,5.0000,-19.0000,-66.0000,0,1,465,1179,396,284
106653286,15210,-0.0352,0.0161,1.0195,0.0610,-0.2441,-0.2441,5.0000,-19.0000,-66.0000,0,1,504,1222,397,284
106658289,15211,-0.0337,0.0161,1.0205,0.1831,-0.2441,-0.3052,5.0000,-19.0000,-66.0000,0,1,508,1213,397,284
106663290,15212,-0.0342,0.0176,1.0220,0.2441,-0.1221,-0.3052,5.0000,-19.0000,-66.0000,0,1,490,1180,397,284
106668294,15213,-0.0352,0.0195,1.0210,0.0610,-0.2441,-0.2441,5.0000,-19.0000,-66.0000,0,1,492,1172,397,284
106673289,15214,-0.0356,0.0190,1.0190,0.1831,-0.3052,-0.3662,5.0000,-19.0000,-66.0000,0,1,495,1179,397,284
106678294,15215,-0.0361,0.0176,1.0195,0.1221,-0.3662,-0.2441,5.0000,-19.0000,-66.0000,0,1,504,1181,396,284
106683291,15216,-0.0361,0.0176,1.0195,0.1221,-0.3662,-0.3052,5.0000,-19.0000,-66.0000,0,1,502,1182,397,284
106688290,15217,-0.0342,0.0171,1.0195,0.1831,-0.2441,-0.3052,5.0000,-19.0000,-66.0000,0,1,483,1177,397,284
106693290,15218,-0.0317,0.0176,1.0220,0.3052,-0.3052,-0.2441,5.0000,-19.0000,-66.0000,0,1,503,1176,397,284
106698290,15219,-0.0308,0.0200,1.0249,0.2441,-0.1221,-0.3052,5.0000,-19.0000,-66.0000,0,1,507,1173,395,284
106703288,15220,-0.0317,0.0205,1.0249,0.0610,-0.1221,-0.2441,5.0000,-20.0000,-67.0000,1,1,463,1170,440,284
106708291,15221,-0.0332,0.0190,1.0239,0.0610,-0.0610,-0.2441,5.0000,-20.0000,-67.0000,0,1,463,1163,811,284
106713286,15222,-0.0342,0.0181,1.0234,-0.1221,0.1221,-0.3662,5.0000,-20.0000,-67.0000,0,1,463,1164,396,284
106718288,15223,-0.0342,0.0186,1.0229,0.0000,0.0000,-0.3662,5.0000,-20.0000,-67.0000,0,1,463,1155,413,284
106723289,15224,-0.0337,0.0200,1.0239,-0.1221,0.0610,-0.3052,5.0000,-20.0000,-67.0000,0,1,462,1060,439,284
106728292,15225,-0.0327,0.0210,1.0254,-0.2441,0.1831,-0.1831,5.0000,-20.0000,-67.0000,0,1,463,1144,416,284
106733295,15226,-0.0322,0.0195,1.0254,-0.3052,0.3662,-0.1831,5.0000,-20.0000,-67.0000,0,1,462,1156,440,284
106738290,15227,-0.0332,0.0171,1.0239,-0.3052,0.3052,-0.2441,5.0000,-20.0000,-67.0000,0,1,463,1161,409,284
106743286,15228,-0.0342,0.0161,1.0220,-0.2441,0.2441,-0.3052,5.0000,-20.0000,-67.0000,0,1,463,1073,396,284
106748306,15229,-0.0342,0.0161,1.0205,-0.1831,0.2441,-0.1831,5.0000,-20.0000,-67.0000,0,1,463,1171,396,284
106753323,15230,-0.0337,0.0171,1.0205,-0.0610,0.2441,-0.1831,5.0000,-20.0000,-67.0000,0,1,463,1206,396,284
106758289,15231,-0.0332,0.0176,1.0225,-0.1221,0.1221,-0.2441,5.0000,-20.0000,-67.0000,0,1,462,1178,397,284
106763294,15232,-0.0322,0.0181,1.0239,-0.1221,0.3662,-0.2441,5.0000,-20.0000,-67.0000,0,1,507,1176,396,284
106768288,15233,-0.0317,0.0190,1.0239,-0.3052,0.4883,-0.3052,5.0000,-20.0000,-67.0000,0,1,487,1166,398,284
106773288,15234,-0.0322,0.0195,1.0239,-0.4883,0.4272,-0.0610,5.0000,-20.0000,-67.0000,0,1,464,1159,396,284
106778292,15235,-0.0332,0.0190,1.0239,-0.4272,0.4272,-0.1221,5.0000,-20.0000,-67.0000,0,1,489,1166,397,284
106783290,15236,-0.0337,0.0186,1.0229,-0.4272,0.4272,0.0000,5.0000,-20.0000,-67.0000,0,1,489,1197,397,284
106788287,15237,-0.0332,0.0186,1.0220,-0.6104,0.4272,-0.1221,5.0000,-20.0000,-67.0000,0,1,490,1119,397,284
106793291,15238,-0.0332,0.0171,1.0210,-0.6104,0.4883,-0.1221,5.0000,-20.0000,-67.0000,0,1,496,1159,396,284
106798291,15239,-0.0332,0.0171,1.0205,-0.5493,0.4883,-0.1221,5.0000,-20.0000,-67.0000,0,1,498,1152,397,284
106803292,15240,-0.0332,0.0181,1.0215,-0.6104,0.5493,-0.1831,4.0000,-21.0000,-69.0000,1,1,501,1161,396,284
106808293,15241,-0.0337,0.0181,1.0220,-0.5493,0.6714,-0.2441,4.0000,-21.0000,-69.0000,0,1,506,1191,765,284
106813292,15242,-0.0352,0.0171,1.0220,-0.4883,0.6714,-0.2441,4.0000,-21.0000,-69.0000,0,1,462,1172,440,284
106818287,15243,-0.0347,0.0171,1.0220,-0.4272,0.5493,-0.1831,4.0000,-21.0000,-69.0000,0,1,462,1169,411,284
106823291,15244,-0.0342,0.0171,1.0220,-0.3662,0.5493,-0.1831,4.0000,-21.0000,-69.0000,0,1,463,1174,425,284
106828293,15245,-0.0347,0.0166,1.0215,-0.3662,0.6714,-0.2441,4.0000,-21.0000,-69.0000,0,1,462,1175,441,284
106833290,15246,-0.0356,0.0176,1.0220,-0.2441,0.5493,-0.1831,4.0000,-21.0000,-69.0000,0,1,462,1176,425,284
106838289,15247,-0.0356,0.0176,1.0234,-0.2441,0.5493,-0.1831,4.0000,-21.0000,-69.0000,0,1,462,1180,441,284
106843286,15248,-0.0342,0.0176,1.0244,-0.3052,0.7324,-0.0610,4.0000,-21.0000,-69.0000,0,1,463,1211,427,284
106848292,15249,-0.0332,0.0181,1.0229,-0.1831,0.8545,-0.1221,4.0000,-21.0000,-69.0000,0,1,463,1160,440,284
106853293,15250,-0.0337,0.0181,1.0215,-0.2441,0.6714,-0.1831,4.0000,-21.0000,-69.0000,0,1,463,1199,396,284
106858286,15251,-0.0352,0.0166,1.0225,-0.3052,0.6104,-0.1831,4.0000,-21.0000,-69.0000,0,1,463,1199,436,284
106863293,15252,-0.0352,0.0151,1.0229,-0.2441,0.6104,-0.0610,4.0000,-21.0000,-69.0000,0,1,463,1176,397,284
106868316,15253,-0.0337,0.0166,1.0225,-0.0610,0.7324,-0.1221,4.0000,-21.0000,-69.0000,0,1,463,1184,396,284
106873294,15254,-0.0347,0.0190,1.0210,-0.1831,0.7935,-0.0610,4.0000,-21.0000,-69.0000,0,1,462,1190,397,284
106878287,15255,-0.0356,0.0190,1.0195,-0.3052,0.6714,-0.0610,4.0000,-21.0000,-69.0000,0,1,506,1159,396,284
106883289,15256,-0.0352,0.0176,1.0205,-0.2441,0.6104,-0.0610,4.0000,-21.0000,-69.0000,0,1,489,1217,397,284
106888287,15257,-0.0347,0.0176,1.0220,-0.2441,0.7324,-0.0610,4.0000,-21.0000,-69.0000,0,1,508,1199,396,284
106893291,15258,-0.0352,0.0166,1.0229,-0.1831,0.6104,-0.1831,4.0000,-21.0000,-69.0000,0,1,471,1174,396,284
106898291,15259,-0.0356,0.0161,1.0229,-0.2441,0.6104,-0.1221,4.0000,-21.0000,-69.0000,0,1,493,1178,396,284
106903286,15260,-0.0352,0.0156,1.0215,-0.2441,0.6104,-0.1221,4.0000,-18.0000,-71.0000,1,1,496,1205,397,284
106908292,15261,-0.0342,0.0156,1.0210,-0.2441,0.5493,-0.2441,4.0000,-18.0000,-71.0000,0,1,503,1128,766,284
106913286,15262,-0.0342,0.0166,1.0215,-0.0610,0.4883,-0.1831,4.0000,-18.0000,-71.0000,0,1,502,1181,396,284
106918288,15263,-0.0347,0.0161,1.0229,0.0000,0.6714,-0.1221,4.0000,-18.0000,-71.0000,0,1,488,1175,396,284
106923292,15264,-0.0347,0.0166,1.0234,-0.1831,0.6104,-0.1831,4.0000,-18.0000,-71.0000,0,1,488,1127,397,284
106928287,15265,-0.0332,0.0171,1.0229,-0.1221,0.6104,-0.1221,4.0000,-18.0000,-71.0000,0,1,507,1178,395,284
106933290,15266,-0.0322,0.0171,1.0229,0.0610,0.5493,-0.1221,4.0000,-18.0000,-71.0000,0,1,463,1166,440,284
106938287,15267,-0.0332,0.0161,1.0220,0.0610,0.7324,-0.1831,4.0000,-18.0000,-71.0000,0,1,463,1172,409,284
106943293,15268,-0.0356,0.0151,1.0186,0.3052,0.8545,-0.1831,4.0000,-18.0000,-71.0000,0,1,463,1179,440,284
106948294,15269,-0.0376,0.0151,1.0166,0.2441,0.6714,-0.0610,4.0000,-18.0000,-71.0000,0,1,462,1175,401,284
106953287,15270,-0.0381,0.0156,1.0166,0.2441,0.5493,-0.2441,4.0000,-18.0000,-71.0000,0,1,463,1174,413,284
106958286,15271,-0.0371,0.0161,1.0171,0.3052,0.4272,-0.2441,4.0000,-18.0000,-71.0000,0,1,463,1181,440,284
106963292,15272,-0.0352,0.0176,1.0200,0.3052,0.3662,-0.1831,4.0000,-18.0000,-71.0000,0,1,463,1172,418,284
106968289,15273,-0.0337,0.0195,1.0225,0.1831,0.3662,-0.1221,4.0000,-18.0000,-71.0000,0,1,463,1161,440,284
106973289,15274,-0.0342,0.0210,1.0225,0.1221,0.4272,-0.1831,4.0000,-18.0000,-71.0000,0,1,462,1171,413,284
106978294,15275,-0.0361,0.0205,1.0210,0.0610,0.4883,-0.2441,4.0000,-18.0000,-71.0000,0,1,463,1197,440,284
106983286,15276,-0.0371,0.0190,1.0195,0.0000,0.3052,-0.1831,4.0000,-18.0000,-71.0000,0,1,463,1162,397,284
106988286,15277,-0.0361,0.0176,1.0205,-0.1221,0.3662,-0.3052,4.0000,-18.0000,-71.0000,0,1,463,1168,396,284
106993288,15278,-0.0347,0.0181,1.0234,-0.1221,0.3662,-0.1831,4.0000,-18.0000,-71.0000,0,1,463,1189,397,284
106998294,15279,-0.0332,0.0190,1.0249,-0.1221,0.3052,-0.1831,4.0000,-18.0000,-71.0000,0,1,507,1203,396,284
107003293,15280,-0.0332,0.0200,1.0244,-0.3052,0.4272,-0.2441,4.0000,-19.0000,-66.0000,1,1,464,1175,397,284
107008293,15281,-0.0347,0.0205,1.0234,-0.3662,0.4883,-0.0610,4.0000,-19.0000,-66.0000,0,1,507,1179,809,284
107013295,15282,-0.0361,0.0190,1.0234,-0.3052,0.4883,-0.0610,4.0000,-19.0000,-66.0000,0,1,474,1178,397,284
107018287,15283,-0.0376,0.0171,1.0234,-0.3662,0.4272,-0.1221,4.0000,-19.0000,-66.0000,0,1,496,1177,396,284
107023289,15284,-0.0366,0.0151,1.0220,-0.4883,0.2441,-0.2441,4.0000,-19.0000,-66.0000,0,1,484,1207,396,284
107028294,15285,-0.0337,0.0166,1.0234,-0.4272,0.4883,-0.1221,4.0000,-19.0000,-66.0000,0,1,480,1183,397,284
107033289,15286,-0.0327,0.0195,1.0244,-0.4883,0.4883,-0.0610,4.0000,-19.0000,-66.0000,0,1,496,1179,396,284
107038289,15287,-0.0347,0.0200,1.0215,-0.5493,0.4883,-0.0610,4.0000,-19.0000,-66.0000,0,1,499,1179,396,284
107043292,15288,-0.0366,0.0181,1.0171,-0.4883,0.4883,-0.1221,4.0000,-19.0000,-66.0000,0,1,500,1174,396,284
107048288,15289,-0.0371,0.0146,1.0142,-0.4272,0.2441,-0.1221,4.0000,-19.0000,-66.0000,0,1,508,1169,395,284
107053287,15290,-0.0376,0.0132,1.0151,-0.3662,0.1831,-0.1831,4.0000,-19.0000,-66.0000,0,1,507,1182,395,284
107058286,15291,-0.0371,0.0151,1.0181,-0.3662,0.1221,-0.1221,4.0000,-19.0000,-66.0000,0,1,463,1181,440,284
107063294,15292,-0.0361,0.0166,1.0220,-0.3662,0.1831,-0.1221,4.0000,-19.0000,-66.0000,0,1,463,1173,419,284
107068293,15293,-0.0352,0.0171,1.0229,-0.2441,0.1831,-0.1831,4.0000,-19.0000,-66.0000,0,1,463,1181,441,284
107073286,15294,-0.0356,0.0166,1.0210,-0.3662,0.1221,-0.1221,4.0000,-19.0000,-66.0000,0,1,463,1181,406,284
107078288,15295,-0.0366,0.0166,1.0186,-0.3662,0.1221,-0.1831,4.0000,-19.0000,-66.0000,0,1,463,1175,440,284
107083288,15296,-0.0371,0.0161,1.0166,-0.2441,0.1221,-0.3052,4.0000,-19.0000,-66.0000,0,1,463,1210,404,284
107088291,15297,-0.0376,0.0146,1.0166,-0.1221,0.0000,-0.2441,4.0000,-19.0000,-66.0000,0,1,463,1177,420,284
107093292,15298,-0.0381,0.0151,1.0166,0.0610,0.0000,-0.2441,4.0000,-19.0000,-66.0000,0,1,463,1049,440,284
107098293,15299,-0.0371,0.0161,1.0181,0.0610,-0.0610,-0.2441,4.0000,-19.0000,-66.0000,0,1,463,1094,416,284
107103291,15300,-0.0356,0.0156,1.0190,0.2441,-0.1831,-0.3052,6.0000,-19.0000,-66.0000,1,1,463,1198,396,284
107108306,15301,-0.0352,0.0142,1.0181,0.3662,-0.1221,-0.3052,6.0000,-19.0000,-66.0000,0,1,463,1178,789,284
107113287,15302,-0.0361,0.0142,1.0171,0.3662,-0.1831,-0.2441,6.0000,-19.0000,-66.0000,0,1,463,1184,396,284
107118287,15303,-0.0366,0.0146,1.0166,0.3662,-0.2441,-0.3052,6.0000,-19.0000,-66.0000,0,1,506,1198,396,284
107123288,15304,-0.0371,0.0156,1.0190,0.6104,-0.3052,-0.3052,6.0000,-19.0000,-66.0000,0,1,508,1226,396,284
107128288,15305,-0.0371,0.0171,1.0210,0.6104,-0.3052,-0.2441,6.0000,-19.0000,-66.0000,0,1,490,1199,396,284
107133286,15306,-0.0352,0.0161,1.0210,0.5493,-0.3052,-0.1831,6.0000,-19.0000,-66.0000,0,1,508,1170,396,284
107138293,15307,-0.0322,0.0161,1.0205,0.6104,-0.4883,-0.3052,6.0000,-19.0000,-66.0000,0,1,502,1174,397,284
107143288,15308,-0.0322,0.0186,1.0220,0.6104,-0.1831,-0.2441,6.0000,-19.0000,-66.0000,0,1,501,1174,396,284
107148294,15309,-0.0327,0.0200,1.0234,0.4883,-0.1831,-0.1831,6.0000,-19.0000,-66.0000,0,1,488,1178,397,284
107153294,15310,-0.0332,0.0186,1.0239,0.4272,-0.2441,-0.3052,6.0000,-19.0000,-66.0000,0,1,508,1181,396,284
107158293,15311,-0.0337,0.0176,1.0234,0.4883,-0.3662,-0.3052,6.0000,-19.0000,-66.0000,0,1,490,1179,396,284
107163289,15312,-0.0337,0.0176,1.0220,0.3052,-0.1831,-0.3052,6.0000,-19.0000,-66.0000,0,1,491,1173,397,284
107168293,15313,-0.0347,0.0186,1.0215,0.3052,-0.0610,-0.3052,6.0000,-19.0000,-66.0000,0,1,507,1168,395,284
107173293,15314,-0.0361,0.0190,1.0220,0.3052,-0.1221,-0.2441,6.0000,-19.0000,-66.0000,0,1,463,1192,396,284
107178289,15315,-0.0361,0.0181,1.0225,0.1831,-0.0610,-0.3052,6.0000,-19.0000,-66.0000,0,1,462,1174,398,284
107183289,15316,-0.0352,0.0176,1.0229,0.3052,-0.0610,-0.1831,6.0000,-19.0000,-66.0000,0,1,462,1170,442,284
107188289,15317,-0.0337,0.0176,1.0229,0.3052,-0.1831,-0.2441,6.0000,-19.0000,-66.0000,0,1,462,1201,440,284
107193294,15318,-0.0322,0.0176,1.0229,0.2441,-0.0610,-0.3052,6.0000,-19.0000,-66.0000,0,1,462,1175,423,284
107198288,15319,-0.0322,0.0181,1.0220,0.1221,0.0000,-0.2441,6.0000,-19.0000,-66.0000,0,1,463,1175,440,284
107203286,15320,-0.0337,0.0186,1.0215,-0.0610,-0.0610,-0.3052,4.0000,-21.0000,-67.0000,1,1,463,1042,426,284
107208289,15321,-0.0342,0.0186,1.0220,0.1221,-0.0610,-0.3052,4.0000,-21.0000,-67.0000,0,1,463,1165,809,284
107213290,15322,-0.0347,0.0186,1.0220,0.0610,0.0610,-0.3052,4.0000,-21.0000,-67.0000,0,1,463,1162,424,284
107218288,15323,-0.0356,0.0181,1.0215,-0.0610,0.1831,-0.4272,4.0000,-21.0000,-67.0000,0,1,463,1135,437,284
107223294,15324,-0.0352,0.0186,1.0215,0.0000,0.0610,-0.2441,4.0000,-21.0000,-67.0000,0,1,463,1183,396,284
107228332,15325,-0.0342,0.0186,1.0210,0.0610,0.1221,-0.2441,4.0000,-21.0000,-67.0000,0,1,463,1097,396,284
107233294,15326,-0.0347,0.0176,1.0200,-0.0610,0.0000,-0.2441,4.0000,-21.0000,-67.0000,0,1,462,1183,397,284
107238286,15327,-0.0352,0.0166,1.0190,-0.1221,0.1221,-0.2441,4.0000,-21.0000,-67.0000,0,1,506,1126,396,284
107243291,15328,-0.0352,0.0171,1.0176,-0.0610,0.0000,-0.1831,4.0000,-21.0000,-67.0000,0,1,502,1199,397,284
107248287,15329,-0.0361,0.0181,1.0171,-0.0610,0.0000,-0.3662,4.0000,-21.0000,-67.0000,0,1,464,1126,397,284
107253293,15330,-0.0347,0.0171,1.0176,-0.0610,-0.0610,-0.3052,4.0000,-21.0000,-67.0000,0,1,494,1154,397,284
107258294,15331,-0.0347,0.0171,1.0195,0.1221,0.0000,-0.1221,4.0000,-21.0000,-67.0000,0,1,496,1194,396,284
107263294,15332,-0.0356,0.0176,1.0200,0.0610,-0.0610,-0.1831,4.0000,-21.0000,-67.0000,0,1,492,1121,397,284
107268289,15333,-0.0356,0.0166,1.0181,0.0610,-0.0610,-0.2441,4.0000,-21.0000,-67.0000,0,1,490,1172,396,284
107273294,15334,-0.0352,0.0166,1.0186,0.0000,-0.0610,-0.3052,4.0000,-21.0000,-67.0000,0,1,500,1175,396,284
107278291,15335,-0.0342,0.0176,1.0205,0.1221,-0.1221,-0.1831,4.0000,-21.0000,-67.0000,0,1,498,1122,396,284
107283286,15336,-0.0356,0.0171,1.0220,0.2441,0.0000,-0.1221,4.0000,-21.0000,-67.0000,0,1,507,1168,395,284
107288294,15337,-0.0361,0.0161,1.0220,0.1221,0.0610,-0.1831,4.0000,-21.0000,-67.0000,0,1,490,1125,395,284
107293294,15338,-0.0342,0.0161,1.0220,0.1831,0.0000,-0.2441,4.0000,-21.0000,-67.0000,0,1,463,1172,440,284
107298288,15339,-0.0327,0.0181,1.0225,0.0610,-0.0610,-0.2441,4.0000,-21.0000,-67.0000,0,1,463,1160,418,284
107303286,15340,-0.0332,0.0195,1.0239,0.0000,-0.0610,-0.1831,5.0000,-20.0000,-70.0000,1,1,462,1199,441,284
107308295,15341,-0.0342,0.0190,1.0249,-0.0610,0.1221,-0.2441,5.0000,-20.0000,-70.0000,0,1,463,1138,795,284
107313290,15342,-0.0342,0.0190,1.0254,-0.0610,0.1831,-0.2441,5.0000,-20.0000,-70.0000,0,1,463,1149,440,284
107318292,15343,-0.0337,0.0190,1.0249,-0.0610,0.1221,-0.1831,5.0000,-20.0000,-70.0000,0,1,463,1151,426,284
107323291,15344,-0.0342,0.0181,1.0234,0.0610,0.2441,-0.2441,5.0000,-20.0000,-70.0000,0,1,463,1139,435,284
107328292,15345,-0.0342,0.0176,1.0220,0.0610,0.3052,-0.2441,5.0000,-20.0000,-70.0000,0,1,463,1122,396,284
107333288,15346,-0.0327,0.0176,1.0210,-0.0610,0.1831,-0.1831,5.0000,-20.0000,-70.0000,0,1,463,1116,436,284
107338287,15347,-0.0332,0.0166,1.0210,-0.0610,0.3662,-0.2441,5.0000,-20.0000,-70.0000,0,1,463,1159,396,284
107343318,15348,-0.0337,0.0166,1.0225,0.0610,0.4272,-0.2441,5.0000,-20.0000,-70.0000,0,1,463,1172,396,284
107348286,15349,-0.0332,0.0181,1.0234,0.0000,0.3662,-0.1831,5.0000,-20.0000,-70.0000,0,1,463,1140,396,284
107353290,15350,-0.0327,0.0190,1.0225,-0.0610,0.4883,-0.2441,5.0000,-20.0000,-70.0000,0,1,507,1137,396,284
107358288,15351,-0.0327,0.0186,1.0229,-0.1221,0.4272,-0.1221,5.0000,-20.0000,-70.0000,0,1,475,1153,396,284
107363286,15352,-0.0337,0.0190,1.0225,-0.0610,0.3662,-0.1831,5.0000,-20.0000,-70.0000,0,1,507,1149,396,284
107368287,15353,-0.0352,0.0186,1.0215,-0.0610,0.4883,-0.1221,5.0000,-20.0000,-70.0000,0,1,463,1150,397,284
107373292,15354,-0.0356,0.0181,1.0205,-0.0610,0.4883,-0.1221,5.0000,-20.0000,-70.0000,0,1,503,1170,397,284
107378286,15355,-0.0366,0.0176,1.0186,-0.0610,0.4272,-0.1221,5.0000,-20.0000,-70.0000,0,1,501,1143,397,284
107383293,15356,-0.0386,0.0161,1.0166,-0.1831,0.3662,-0.1221,5.0000,-20.0000,-70.0000,0,1,491,1148,396,284
107388294,15357,-0.0376,0.0151,1.0171,-0.0610,0.1831,-0.1831,5.0000,-20.0000,-70.0000,0,1,497,1184,396,284
107393294,15358,-0.0356,0.0161,1.0186,0.0610,0.1221,-0.2441,5.0000,-20.0000,-70.0000,0,1,498,1151,397,284
107398287,15359,-0.0347,0.0176,1.0205,0.0000,0.1831,-0.1831,5.0000,-20.0000,-70.0000,0,1,485,1151,395,284
107403294,15360,-0.0332,0.0190,1.0225,0.0610,0.1221,-0.1221,6.0000,-18.0000,-68.0000,1,1,507,1104,395,284
107408291,15361,-0.0327,0.0186,1.0234,0.0000,0.1831,-0.0610,6.0000,-18.0000,-68.0000,0,1,463,1170,808,284
107413286,15362,-0.0342,0.0161,1.0229,0.0610,0.1221,-0.2441,6.0000,-18.0000,-68.0000,0,1,462,1160,420,284
107418294,15363,-0.0347,0.0142,1.0225,0.0610,0.0000,-0.2441,6.0000,-18.0000,-68.0000,0,1,463,1174,437,284
107423289,15364,-0.0342,0.0151,1.0229,0.1221,0.1221,-0.2441,6.0000,-18.0000,-68.0000,0,1,463,1126,406,284
107428290,15365,-0.0342,0.0176,1.0234,0.1221,0.1221,-0.2441,6.0000,-18.0000,-68.0000,0,1,463,1174,439,284
107433287,15366,-0.0332,0.0190,1.0234,0.0610,0.1221,-0.1221,6.0000,-18.0000,-68.0000,0,1,463,1169,403,284
107438287,15367,-0.0322,0.0190,1.0225,-0.0610,0.3052,-0.0610,6.0000,-18.0000,-68.0000,0,1,463,1162,440,284
107443288,15368,-0.0332,0.0186,1.0215,-0.1221,0.3052,-0.1221,6.0000,-18.0000,-68.0000,0,1,463,1168,407,284
107448288,15369,-0.0352,0.0171,1.0215,-0.1221,0.2441,-0.1831,6.0000,-18.0000,-68.0000,0,1,463,1191,440,284
107453290,15370,-0.0356,0.0156,1.0220,0.0000,0.3052,-0.1831,6.0000,-18.0000,-68.0000,0,1,463,1181,396,284
107458290,15371,-0.0347,0.0156,1.0225,0.0610,0.1831,-0.0610,6.0000,-18.0000,-68.0000,0,1,462,1167,396,284
107463294,15372,-0.0332,0.0171,1.0220,0.0000,0.1831,-0.1221,6.0000,-18.0000,-68.0000,0,1,479,1191,396,284
107468287,15373,-0.0322,0.0176,1.0220,-0.0610,0.1831,-0.0610,6.0000,-18.0000,-68.0000,0,1,506,1172,397,284
107473294,15374,-0.0332,0.0181,1.0225,-0.0610,0.3052,-0.1221,6.0000,-18.0000,-68.0000,0,1,481,1202,396,284
107478290,15375,-0.0352,0.0181,1.0220,-0.1221,0.1221,-0.1221,6.0000,-18.0000,-68.0000,0,1,508,1166,396,284
107483288,15376,-0.0352,0.0171,1.0215,0.0000,0.1831,-0.1221,6.0000,-18.0000,-68.0000,0,1,494,1164,396,284
107488288,15377,-0.0342,0.0166,1.0215,0.0000,0.2441,-0.0610,6.0000,-18.0000,-68.0000,0,1,490,1124,396,284
107493290,15378,-0.0342,0.0166,1.0210,-0.1221,0.2441,-0.2441,6.0000,-18.0000,-68.0000,0,1,493,1131,397,284
107498287,15379,-0.0342,0.0161,1.0210,0.0000,0.2441,-0.1221,6.0000,-18.0000,-68.0000,0,1,489,1176,397,284
107503294,15380,-0.0337,0.0151,1.0210,0.1221,0.3662,-0.1221,5.0000,-20.0000,-68.0000,1,1,491,1128,396,284
107508291,15381,-0.0327,0.0156,1.0205,0.1221,0.1831,-0.2441,5.0000,-20.0000,-68.0000,0,1,507,1152,765,284
107513291,15382,-0.0337,0.0166,1.0215,0.1221,0.2441,-0.1831,5.0000,-20.0000,-68.0000,0,1,506,1173,398,284
107518288,15383,-0.0361,0.0166,1.0215,0.1831,0.1831,-0.1831,5.0000,-20.0000,-68.0000,0,1,462,1169,395,284
107523289,15384,-0.0376,0.0156,1.0200,0.1831,0.0610,-0.3052,5.0000,-20.0000,-68.0000,0,1,463,1174,440,284
107528292,15385,-0.0366,0.0161,1.0200,0.3052,-0.0610,-0.1831,5.0000,-20.0000,-68.0000,0,1,462,1161,417,284
107533286,15386,-0.0347,0.0176,1.0220,0.2441,0.1221,-0.3662,5.0000,-20.0000,-68.0000,0,1,462,1194,441,284
107538292,15387,-0.0337,0.0195,1.0239,0.3052,0.0610,-0.2441,5.0000,-20.0000,-68.0000,0,1,463,1165,424,284
107543295,15388,-0.0322,0.0195,1.0239,0.2441,0.0610,-0.2441,5.0000,-20.0000,-68.0000,0,1,463,1166,440,284
107548293,15389,-0.0322,0.0190,1.0229,0.1831,0.2441,-0.2441,5.0000,-20.0000,-68.0000,0,1,463,1175,418,284
107553291,15390,-0.0327,0.0186,1.0220,0.1831,0.2441,-0.1221,5.0000,-20.0000,-68.0000,0,1,462,1166,434,284
107558290,15391,-0.0332,0.0181,1.0225,0.0610,0.1221,-0.2441,5.0000,-20.0000,-68.0000,0,1,463,1092,424,284
107563287,15392,-0.0337,0.0186,1.0229,0.0610,0.1221,-0.2441,5.0000,-20.0000,-68.0000,0,1,462,1076,437,284
107568292,15393,-0.0342,0.0200,1.0225,0.1831,0.1831,-0.2441,5.0000,-20.0000,-68.0000,0,1,463,1174,397,284
107573322,15394,-0.0342,0.0195,1.0220,0.0610,0.1831,-0.1831,5.0000,-20.0000,-68.0000,0,1,463,1209,397,284
107578286,15395,-0.0332,0.0176,1.0210,0.0610,0.2441,-0.1221,5.0000,-20.0000,-68.0000,0,1,463,1186,396,284
107583292,15396,-0.0332,0.0171,1.0195,0.0610,0.3052,-0.2441,5.0000,-20.0000,-68.0000,0,1,507,1194,396,284
107588291,15397,-0.0332,0.0161,1.0195,0.3052,0.3052,-0.1831,5.0000,-20.0000,-68.0000,0,1,491,1194,397,284
107593289,15398,-0.0332,0.0161,1.0205,0.1831,0.2441,-0.3052,5.0000,-20.0000,-68.0000,0,1,509,1169,396,284
107598291,15399,-0.0337,0.0166,1.0215,0.3052,0.3662,-0.3052,5.0000,-20.0000,-68.0000,0,1,470,1172,397,284
107603295,15400,-0.0347,0.0181,1.0225,0.3662,0.4272,-0.3662,5.0000,-20.0000,-68.0000,0,1,490,1192,397,284
107608291,15401,-0.0352,0.0186,1.0220,0.3662,0.3052,-0.2441,5.0000,-17.0000,-66.0000,1,1,489,1167,396,284
107613292,15402,-0.0352,0.0161,1.0210,0.4272,0.2441,-0.3052,5.0000,-17.0000,-66.0000,0,1,492,1165,765,284
107618286,15403,-0.0347,0.0156,1.0210,0.4272,0.5493,-0.4272,5.0000,-17.0000,-66.0000,0,1,496,1177,396,284
107623294,15404,-0.0342,0.0176,1.0225,0.4883,0.4272,-0.3662,5.0000,-17.0000,-66.0000,0,1,496,1181,397,284
107628292,15405,-0.0347,0.0176,1.0229,0.4272,0.1831,-0.2441,5.0000,-17.0000,-66.0000,0,1,493,1176,395,284
107633293,15406,-0.0342,0.0181,1.0225,0.4883,0.3662,-0.2441,5.0000,-17.0000,-66.0000,0,1,491,1183,395,284
107638286,15407,-0.0332,0.0186,1.0215,0.4272,0.2441,-0.3662,5.0000,-17.0000,-66.0000,0,1,462,1175,440,284
107643294,15408,-0.0327,0.0181,1.0205,0.3662,0.3662,-0.2441,5.0000,-17.0000,-66.0000,0,1,462,1182,438,284
107648294,15409,-0.0332,0.0171,1.0215,0.3052,0.4272,-0.2441,5.0000,-17.0000,-66.0000,0,1,462,1182,439,284
107653289,15410,-0.0342,0.0181,1.0229,0.4272,0.3662,-0.2441,5.0000,-17.0000,-66.0000,0,1,462,1177,412,284
107658287,15411,-0.0342,0.0205,1.0229,0.2441,0.4272,-0.1831,5.0000,-17.0000,-66.0000,0,1,463,1180,440,284
107663289,15412,-0.0337,0.0200,1.0234,-0.0610,0.6714,-0.1221,5.0000,-17.0000,-66.0000,0,1,462,1182,413,284
107668289,15413,-0.0332,0.0181,1.0234,0.0610,0.7324,-0.1221,5.0000,-17.0000,-66.0000,0,1,463,1162,441,284
107673295,15414,-0.0337,0.0181,1.0229,0.0610,0.7324,-0.0610,5.0000,-17.0000,-66.0000,0,1,463,1173,416,284
107678289,15415,-0.0342,0.0186,1.0225,-0.1221,0.7935,-0.1831,5.0000,-17.0000,-66.0000,0,1,463,1061,440,284
107683302,15416,-0.0342,0.0186,1.0229,-0.1221,0.6714,-0.1221,5.0000,-17.0000,-66.0000,0,1,462,1182,397,284
107688305,15417,-0.0332,0.0186,1.0239,-0.1221,0.6714,-0.0610,5.0000,-17.0000,-66.0000,0,1,463,1189,397,284
107693287,15418,-0.0322,0.0181,1.0239,-0.1831,0.7935,-0.0610,5.0000,-17.0000,-66.0000,0,1,479,1165,397,284
107698290,15419,-0.0332,0.0181,1.0229,-0.1831,0.6714,-0.1221,5.0000,-17.0000,-66.0000,0,1,492,1181,397,284
107703288,15420,-0.0352,0.0181,1.0210,-0.1221,0.6714,-0.1221,5.0000,-17.0000,-66.0000,0,1,499,1207,397,284
107708287,15421,-0.0366,0.0176,1.0190,-0.2441,0.6714,-0.0610,4.0000,-17.0000,-71.0000,1,1,474,1165,396,284
107713295,15422,-0.0361,0.0176,1.0186,-0.2441,0.7324,-0.0610,4.0000,-17.0000,-71.0000,0,1,483,1082,797,284
107718295,15423,-0.0347,0.0176,1.0186,-0.1831,0.6714,-0.0610,4.0000,-17.0000,-71.0000,0,1,500,1208,396,284
107723287,15424,-0.0342,0.0161,1.0181,-0.1831,0.6714,-0.1831,4.0000,-17.0000,-71.0000,0,1,498,1171,397,284
107728292,15425,-0.0352,0.0146,1.0181,-0.1221,0.6714,-0.1831,4.0000,-17.0000,-71.0000,0,1,489,1205,396,284
107733294,15426,-0.0366,0.0151,1.0195,-0.1221,0.5493,-0.1221,4.0000,-17.0000,-71.0000,0,1,489,1173,396,284
107738289,15427,-0.0376,0.0161,1.0200,-0.0610,0.3662,0.0000,4.0000,-17.0000,-71.0000,0,1,498,1176,395,284
107743292,15428,-0.0376,0.0166,1.0181,0.1221,0.2441,-0.0610,4.0000,-17.0000,-71.0000,0,1,490,1128,395,284
107748288,15429,-0.0371,0.0166,1.0171,0.1221,0.3662,-0.1221,4.0000,-17.0000,-71.0000,0,1,463,1171,399,284
107753290,15430,-0.0366,0.0166,1.0181,0.1831,0.4272,-0.1831,4.0000,-17.0000,-71.0000,0,1,463,1172,415,284
107758289,15431,-0.0371,0.0171,1.0200,0.1831,0.2441,0.0000,4.0000,-17.0000,-71.0000,0,1,463,1181,440,284
107763294,15432,-0.0361,0.0186,1.0215,0.1831,0.1221,-0.1221,4.0000,-17.0000,-71.0000,0,1,463,1130,411,284
107768292,15433,-0.0347,0.0195,1.0215,0.1221,0.1831,-0.1831,4.0000,-17.0000,-71.0000,0,1,463,1171,440,284
107773286,15434,-0.0337,0.0200,1.0205,0.1831,0.1831,-0.1221,4.0000,-17.0000,-71.0000,0,1,463,1172,415,284
107778287,15435,-0.0342,0.0200,1.0200,0.1221,0.1831,-0.1221,4.0000,-17.0000,-71.0000,0,1,462,1163,440,284
107783289,15436,-0.0352,0.0195,1.0210,0.0610,0.3052,-0.1831,4.0000,-17.0000,-71.0000,0,1,463,1195,420,284
107788293,15437,-0.0347,0.0186,1.0220,0.0610,0.1831,-0.1831,4.0000,-17.0000,-71.0000,0,1,462,1084,419,284
107793299,15438,-0.0347,0.0171,1.0225,0.1831,0.1831,-0.0610,4.0000,-17.0000,-71.0000,0,1,463,1183,396,284
107798313,15439,-0.0347,0.0176,1.0229,0.2441,0.3052,-0.0610,4.0000,-17.0000,-71.0000,0,1,463,1191,396,284
107803289,15440,-0.0352,0.0195,1.0225,0.1221,0.2441,-0.1221,4.0000,-17.0000,-71.0000,0,1,462,1190,397,284
107808293,15441,-0.0347,0.0215,1.0234,0.1831,0.2441,-0.1221,4.0000,-19.0000,-68.0000,1,1,491,1172,396,284
107813290,15442,-0.0347,0.0205,1.0234,0.0000,0.3052,-0.2441,4.0000,-19.0000,-68.0000,0,1,497,1177,810,284
107818286,15443,-0.0356,0.0176,1.0225,0.0000,0.4272,-0.0610,4.0000,-19.0000,-68.0000,0,1,467,1133,396,284
107823288,15444,-0.0366,0.0171,1.0210,0.0000,0.3662,-0.0610,4.0000,-19.0000,-68.0000,0,1,473,1131,396,284
107828290,15445,-0.0356,0.0181,1.0210,0.0000,0.3052,-0.0610,4.0000,-19.0000,-68.0000,0,1,496,1128,396,284
107833286,15446,-0.0347,0.0190,1.0220,-0.1221,0.3052,-0.1831,4.0000,-19.0000,-68.0000,0,1,495,1123,396,284
107838288,15447,-0.0347,0.0186,1.0225,-0.1221,0.3052,-0.2441,4.0000,-19.0000,-68.0000,0,1,480,1200,397,284
107843287,15448,-0.0342,0.0176,1.0225,-0.1221,0.3662,0.0000,4.0000,-19.0000,-68.0000,0,1,479,1171,396,284
107848293,15449,-0.0342,0.0181,1.0225,0.0000,0.2441,-0.0610,4.0000,-19.0000,-68.0000,0,1,499,1128,397,284
107853293,15450,-0.0347,0.0176,1.0220,0.0610,0.3662,-0.1831,4.0000,-19.0000,-68.0000,0,1,507,1126,395,284
107858287,15451,-0.0356,0.0166,1.0215,0.0000,0.3662,-0.1831,4.0000,-19.0000,-68.0000,0,1,462,1175,440,284
107863291,15452,-0.0366,0.0171,1.0210,-0.1221,0.3052,-0.1221,4.0000,-19.0000,-68.0000,0,1,463,1137,413,284
107868294,15453,-0.0366,0.0186,1.0210,-0.0610,0.4272,-0.1831,4.0000,-19.0000,-68.0000,0,1,462,1193,441,284
107873289,15454,-0.0352,0.0200,1.0205,-0.0610,0.2441,-0.1831,4.0000,-19.0000,-68.0000,0,1,462,1176,412,284
107878294,15455,-0.0347,0.0205,1.0210,-0.0610,0.1831,-0.1831,4.0000,-19.0000,-68.0000,0,1,463,1177,440,284
107883293,15456,-0.0342,0.0195,1.0220,-0.1221,0.2441,-0.1831,4.0000,-19.0000,-68.0000,0,1,462,1175,416,284
107888291,15457,-0.0342,0.0181,1.0220,-0.1221,0.3052,-0.2441,4.0000,-19.0000,-68.0000,0,1,463,1167,434,284
107893291,15458,-0.0342,0.0176,1.0205,-0.2441,0.3052,-0.3052,4.0000,-19.0000,-68.0000,0,1,463,1195,408,284
107898290,15459,-0.0352,0.0190,1.0200,-0.3052,0.3662,-0.1831,4.0000,-19.0000,-68.0000,0,1,463,1084,423,284
107903298,15460,-0.0356,0.0200,1.0195,-0.3052,0.3052,-0.2441,4.0000,-19.0000,-68.0000,0,1,462,1185,396,284
107908315,15461,-0.0342,0.0200,1.0205,-0.2441,0.2441,-0.1831,5.0000,-18.0000,-64.0000,1,1,463,1194,396,284
107913286,15462,-0.0342,0.0205,1.0220,-0.3662,0.4272,-0.2441,5.0000,-18.0000,-64.0000,0,1,462,1176,811,284
107918288,15463,-0.0352,0.0200,1.0220,-0.3662,0.3052,-0.3052,5.0000,-18.0000,-64.0000,0,1,465,1204,397,284
107923294,15464,-0.0361,0.0190,1.0215,-0.4272,0.3052,-0.3662,5.0000,-18.0000,-64.0000,0,1,483,1164,396,284
107928290,15465,-0.0356,0.0186,1.0210,-0.4883,0.2441,-0.3052,5.0000,-18.0000,-64.0000,0,1,492,1174,396,284
107933293,15466,-0.0342,0.0176,1.0210,-0.4883,0.3052,-0.2441,5.0000,-18.0000,-64.0000,0,1,495,1168,396,284
107938293,15467,-0.0342,0.0161,1.0195,-0.4272,0.4272,-0.3052,5.0000,-18.0000,-64.0000,0,1,494,1166,396,284
107943293,15468,-0.0347,0.0161,1.0176,-0.4272,0.3052,-0.3052,5.0000,-18.0000,-64.0000,0,1,495,1174,396,284
107948294,15469,-0.0356,0.0166,1.0181,-0.4272,0.3662,-0.3052,5.0000,-18.0000,-64.0000,0,1,474,1196,397,284
107953295,15470,-0.0361,0.0171,1.0210,-0.3662,0.4272,-0.1831,5.0000,-18.0000,-64.0000,0,1,497,1173,396,284
107958291,15471,-0.0361,0.0166,1.0229,-0.4272,0.3662,-0.2441,5.0000,-18.0000,-64.0000,0,1,491,1173,397,284
107963291,15472,-0.0352,0.0171,1.0229,-0.3662,0.3662,-0.3052,5.0000,-18.0000,-64.0000,0,1,507,1182,395,284
107968287,15473,-0.0356,0.0166,1.0220,-0.2441,0.3662,-0.3052,5.0000,-18.0000,-64.0000,0,1,463,1168,440,284
107973286,15474,-0.0366,0.0166,1.0200,-0.2441,0.5493,-0.3052,5.0000,-18.0000,-64.0000,0,1,462,1175,417,284
107978289,15475,-0.0376,0.0171,1.0186,-0.2441,0.4883,-0.2441,5.0000,-18.0000,-64.0000,0,1,463,1175,441,284
107983291,15476,-0.0371,0.0171,1.0176,-0.2441,0.4883,-0.2441,5.0000,-18.0000,-64.0000,0,1,463,1168,416,284
107988295,15477,-0.0356,0.0161,1.0186,-0.2441,0.4272,-0.2441,5.0000,-18.0000,-64.0000,0,1,463,1172,435,284
107993289,15478,-0.0356,0.0166,1.0210,-0.1221,0.3662,-0.4272,5.0000,-18.0000,-64.0000,0,1,463,1209,426,284
107998290,15479,-0.0361,0.0171,1.0215,-0.2441,0.4883,-0.3662,5.0000,-18.0000,-64.0000,0,1,462,1162,441,284
108003286,15480,-0.0356,0.0171,1.0225,-0.3662,0.4272,-0.3662,5.0000,-18.0000,-64.0000,0,1,463,1200,408,284
108008289,15481,-0.0352,0.0156,1.0239,-0.1831,0.4883,-0.3052,6.0000,-20.0000,-65.0000,1,1,463,1088,440,284
108013289,15482,-0.0352,0.0151,1.0234,-0.1831,0.3052,-0.2441,6.0000,-20.0000,-65.0000,0,1,463,1177,775,284
108018334,15483,-0.0352,0.0171,1.0210,-0.3052,0.3052,-0.3052,6.0000,-20.0000,-65.0000,0,1,463,1141,396,284
108023293,15484,-0.0352,0.0181,1.0200,-0.2441,0.3662,-0.3052,6.0000,-20.0000,-65.0000,0,1,463,1105,396,284
108028286,15485,-0.0352,0.0171,1.0205,-0.2441,0.3662,-0.3052,6.0000,-20.0000,-65.0000,0,1,506,1147,397,284
108033294,15486,-0.0352,0.0166,1.0195,-0.3662,0.4883,-0.2441,6.0000,-20.0000,-65.0000,0,1,482,1147,396,284
108038288,15487,-0.0347,0.0161,1.0200,-0.3052,0.5493,-0.1831,6.0000,-20.0000,-65.0000,0,1,508,1156,396,284
108043293,15488,-0.0337,0.0156,1.0225,-0.3662,0.3052,-0.3052,6.0000,-20.0000,-65.0000,0,1,485,1150,397,284
108048287,15489,-0.0342,0.0151,1.0234,-0.3052,0.4272,-0.1831,6.0000,-20.0000,-65.0000,0,1,480,1145,397,284
108053289,15490,-0.0352,0.0166,1.0239,-0.3052,0.2441,-0.1831,6.0000,-20.0000,-65.0000,0,1,489,1153,396,284
108058289,15491,-0.0366,0.0186,1.0225,-0.2441,0.1831,-0.1221,6.0000,-20.0000,-65.0000,0,1,486,1183,396,284
108063291,15492,-0.0366,0.0176,1.0215,-0.3662,0.3052,-0.0610,6.0000,-20.0000,-65.0000,0,1,492,1151,396,284
108068290,15493,-0.0356,0.0161,1.0225,-0.4272,0.3052,-0.1831,6.0000,-20.0000,-65.0000,0,1,484,1146,397,284
108073289,15494,-0.0352,0.0161,1.0234,-0.2441,0.2441,-0.1831,6.0000,-20.0000,-65.0000,0,1,507,1152,395,284
108078294,15495,-0.0356,0.0171,1.0234,-0.2441,0.2441,-0.0610,6.0000,-20.0000,-65.0000,0,1,463,1159,439,284
108083294,15496,-0.0356,0.0166,1.0234,-0.3052,0.3662,-0.1831,6.0000,-20.0000,-65.0000,0,1,463,1152,403,284
108088289,15497,-0.0361,0.0161,1.0225,-0.3662,0.3052,-0.1831,6.0000,-20.0000,-65.0000,0,1,462,1154,415,284
108093292,15498,-0.0361,0.0156,1.0215,-0.3052,0.1831,0.0000,6.0000,-20.0000,-65.0000,0,1,463,1152,425,284
108098293,15499,-0.0352,0.0161,1.0215,-0.1831,0.1831,-0.0610,6.0000,-20.0000,-65.0000,0,1,463,1103,416,284
108103292,15500,-0.0356,0.0151,1.0215,-0.0610,0.0610,-0.1831,6.0000,-20.0000,-65.0000,0,1,462,1152,440,284
108108294,15501,-0.0361,0.0151,1.0210,-0.1831,0.0610,-0.1221,6.0000,-20.0000,-66.0000,1,1,462,1140,417,284
108113289,15502,-0.0352,0.0161,1.0205,-0.0610,0.0000,-0.1221,6.0000,-20.0000,-66.0000,0,1,462,1165,809,284
108118290,15503,-0.0352,0.0161,1.0205,0.0000,0.0610,-0.1221,6.0000,-20.0000,-66.0000,0,1,463,1078,413,284
108123295,15504,-0.0361,0.0156,1.0215,0.0000,0.1221,-0.1221,6.0000,-20.0000,-66.0000,0,1,463,1123,419,284
108128299,15505,-0.0361,0.0146,1.0225,0.0610,0.0610,-0.1221,6.0000,-20.0000,-66.0000,0,1,463,1103,396,284
108133302,15506,-0.0352,0.0151,1.0220,0.0610,-0.0610,-0.0610,6.0000,-20.0000,-66.0000,0,1,462,1179,397,284
108138288,15507,-0.0347,0.0156,1.0215,0.1221,0.0000,-0.0610,6.0000,-20.0000,-66.0000,0,1,480,1200,396,284
108143292,15508,-0.0347,0.0161,1.0220,0.0610,0.0000,-0.0610,6.0000,-20.0000,-66.0000,0,1,492,1115,396,284
108148293,15509,-0.0352,0.0156,1.0220,0.1831,0.0000,-0.0610,6.0000,-20.0000,-66.0000,0,1,486,1117,397,284
108153289,15510,-0.0347,0.0161,1.0220,0.2441,-0.0610,-0.2441,6.0000,-20.0000,-66.0000,0,1,508,1120,396,284
108158286,15511,-0.0347,0.0161,1.0220,0.1221,0.1221,-0.1221,6.0000,-20.0000,-66.0000,0,1,477,1170,396,284
108163292,15512,-0.0347,0.0156,1.0225,0.3052,0.1221,-0.1221,6.0000,-20.0000,-66.0000,0,1,479,1159,396,284
108168290,15513,-0.0347,0.0156,1.0225,0.3662,0.0000,-0.0610,6.0000,-20.0000,-66.0000,0,1,492,1155,397,284
108173292,15514,-0.0352,0.0166,1.0225,0.2441,0.0000,-0.0610,6.0000,-20.0000,-66.0000,0,1,495,1147,397,284
108178290,15515,-0.0352,0.0171,1.0229,0.2441,0.0000,-0.1221,6.0000,-20.0000,-66.0000,0,1,490,1120,397,284
108183294,15516,-0.0352,0.0171,1.0225,0.2441,0.1221,-0.1221,6.0000,-20.0000,-66.0000,0,1,490,1116,396,284
108188294,15517,-0.0352,0.0166,1.0210,0.3052,0.1831,-0.1221,6.0000,-20.0000,-66.0000,0,1,494,1157,395,284
108193291,15518,-0.0352,0.0156,1.0195,0.3052,0.0610,-0.1221,6.0000,-20.0000,-66.0000,0,1,508,1159,395,284
108198286,15519,-0.0356,0.0161,1.0205,0.3662,0.0610,-0.0610,6.0000,-20.0000,-66.0000,0,1,462,1158,412,284
108203293,15520,-0.0356,0.0166,1.0220,0.3662,0.1221,-0.0610,6.0000,-20.0000,-66.0000,0,1,463,1167,415,284
108208287,15521,-0.0352,0.0161,1.0229,0.3662,0.1831,-0.1831,6.0000,-20.0000,-68.0000,1,1,462,1165,441,284
108213290,15522,-0.0352,0.0156,1.0215,0.4883,0.1221,-0.2441,6.0000,-20.0000,-68.0000,0,1,463,1175,780,284
108218289,15523,-0.0347,0.0166,1.0205,0.4883,0.0000,-0.1221,6.0000,-20.0000,-68.0000,0,1,463,1162,439,284
108223291,15524,-0.0347,0.0166,1.0210,0.4272,0.0000,-0.1221,6.0000,-20.0000,-68.0000,0,1,463,1105,425,284
108228288,15525,-0.0352,0.0161,1.0205,0.5493,0.2441,-0.2441,6.0000,-20.0000,-68.0000,0,1,463,1109,415,284
108233293,15526,-0.0361,0.0166,1.0200,0.5493,0.1831,-0.2441,6.0000,-20.0000,-68.0000,0,1,462,1077,424,284
108238288,15527,-0.0356,0.0176,1.0200,0.4883,0.0000,-0.2441,6.0000,-20.0000,-68.0000,0,1,463,1068,414,284
108243293,15528,-0.0347,0.0186,1.0190,0.5493,0.0000,-0.2441,6.0000,-20.0000,-68.0000,0,1,463,1127,396,284
108248312,15529,-0.0342,0.0195,1.0186,0.7935,0.0610,-0.2441,6.0000,-20.0000,-68.0000,0,1,463,1109,396,284
108253298,15530,-0.0342,0.0186,1.0205,0.6714,0.1221,-0.3052,6.0000,-20.0000,-68.0000,0,1,463,1182,396,284
108258289,15531,-0.0342,0.0156,1.0215,0.5493,0.0610,-0.1831,6.0000,-20.0000,-68.0000,0,1,480,1186,396,284
108263289,15532,-0.0352,0.0156,1.0205,0.5493,0.1831,-0.2441,6.0000,-20.0000,-68.0000,0,1,492,1168,396,284
108268286,15533,-0.0347,0.0176,1.0205,0.4272,0.1831,-0.3662,6.0000,-20.0000,-68.0000,0,1,486,1171,396,284
108273288,15534,-0.0342,0.0186,1.0225,0.4883,0.2441,-0.4272,6.0000,-20.0000,-68.0000,0,1,491,1169,396,284
108278287,15535,-0.0356,0.0190,1.0225,0.3662,0.3662,-0.3052,6.0000,-20.0000,-68.0000,0,1,494,1165,396,284
108283287,15536,-0.0356,0.0190,1.0210,0.4883,0.2441,-0.3052,6.0000,-20.0000,-68.0000,0,1,493,1167,396,284
108288290,15537,-0.0347,0.0181,1.0210,0.3662,0.2441,-0.3662,6.0000,-20.0000,-68.0000,0,1,489,1163,397,284
108293290,15538,-0.0342,0.0166,1.0225,0.3662,0.3052,-0.2441,6.0000,-20.0000,-68.0000,0,1,485,1165,397,284
108298291,15539,-0.0352,0.0156,1.0225,0.3052,0.3662,-0.3052,6.0000,-20.0000,-68.0000,0,1,483,1167,396,284
108303294,15540,-0.0352,0.0161,1.0210,0.4883,0.3662,-0.3052,6.0000,-20.0000,-68.0000,0,1,503,1160,397,284
108308294,15541,-0.0352,0.0171,1.0205,0.4272,0.3662,-0.2441,4.0000,-18.0000,-66.0000,1,1,499,1161,394,284
108313286,15542,-0.0356,0.0176,1.0205,0.3052,0.3052,-0.3662,4.0000,-18.0000,-66.0000,0,1,490,1210,764,284
108318292,15543,-0.0361,0.0156,1.0205,0.3052,0.3662,-0.3052,4.0000,-18.0000,-66.0000,0,1,463,1173,398,284
108323287,15544,-0.0361,0.0151,1.0205,0.1831,0.3052,-0.2441,4.0000,-18.0000,-66.0000,0,1,463,1174,414,284
108328287,15545,-0.0361,0.0156,1.0205,0.2441,0.3052,-0.2441,4.0000,-18.0000,-66.0000,0,1,463,1182,440,284
108333286,15546,-0.0361,0.0166,1.0200,0.3052,0.3662,-0.1831,4.0000,-18.0000,-66.0000,0,1,462,1180,412,284
108338293,15547,-0.0352,0.0176,1.0200,0.2441,0.3052,-0.1221,4.0000,-18.0000,-66.0000,0,1,462,1179,440,284
108343291,15548,-0.0352,0.0171,1.0210,0.1221,0.3052,-0.2441,4.0000,-18.0000,-66.0000,0,1,462,1168,413,284
108348287,15549,-0.0356,0.0171,1.0215,0.3662,0.2441,-0.1831,4.0000,-18.0000,-66.0000,0,1,463,1157,441,284
108353290,15550,-0.0352,0.0171,1.0200,0.4272,0.4883,-0.1831,4.0000,-18.0000,-66.0000,0,1,463,1104,425,284
108358290,15551,-0.0342,0.0176,1.0195,0.4883,0.3662,-0.1831,4.0000,-18.0000,-66.0000,0,1,463,1087,411,284
108363301,15552,-0.0347,0.0176,1.0205,0.4883,0.3662,-0.1831,4.0000,-18.0000,-66.0000,0,1,463,1199,397,284
108368302,15553,-0.0352,0.0171,1.0220,0.5493,0.3052,-0.1221,4.0000,-18.0000,-66.0000,0,1,463,1215,397,284
108373286,15554,-0.0347,0.0166,1.0229,0.4883,0.3662,-0.1221,4.0000,-18.0000,-66.0000,0,1,480,1158,396,284
108378290,15555,-0.0352,0.0166,1.0229,0.4272,0.3052,-0.0610,4.0000,-18.0000,-66.0000,0,1,491,1217,396,284
108383294,15556,-0.0356,0.0166,1.0215,0.6104,0.1221,-0.0610,4.0000,-18.0000,-66.0000,0,1,493,1206,397,284
108388290,15557,-0.0352,0.0190,1.0205,0.5493,0.3052,-0.1831,4.0000,-18.0000,-66.0000,0,1,491,1173,397,284
108393290,15558,-0.0347,0.0215,1.0210,0.3662,0.2441,-0.1221,4.0000,-18.0000,-66.0000,0,1,473,1177,396,284
108398292,15559,-0.0352,0.0210,1.0215,0.3662,0.1831,-0.1221,4.0000,-18.0000,-66.0000,0,1,496,1174,397,284
108403292,15560,-0.0356,0.0186,1.0229,0.4883,0.1221,-0.1831,4.0000,-18.0000,-66.0000,0,1,476,1174,396,284
108408288,15561,-0.0361,0.0181,1.0239,0.4272,0.2441,-0.0610,4.0000,-18.0000,-65.0000,1,1,496,1179,396,284
108413293,15562,-0.0356,0.0195,1.0234,0.3662,0.2441,-0.1831,4.0000,-18.0000,-65.0000,0,1,502,1153,766,284
108418292,15563,-0.0347,0.0195,1.0225,0.3052,0.1831,-0.1831,4.0000,-18.0000,-65.0000,0,1,495,1174,396,284
108423286,15564,-0.0342,0.0186,1.0215,0.2441,0.1831,-0.0610,4.0000,-18.0000,-65.0000,0,1,502,1162,395,284
108428293,15565,-0.0347,0.0181,1.0205,0.1831,0.3052,-0.0610,4.0000,-18.0000,-65.0000,0,1,462,1160,412,284
108433287,15566,-0.0347,0.0181,1.0205,0.0610,0.2441,0.0000,4.0000,-18.0000,-65.0000,0,1,463,1155,413,284
108438293,15567,-0.0347,0.0181,1.0210,0.1831,0.1221,-0.1831,4.0000,-18.0000,-65.0000,0,1,463,1110,441,284
108443286,15568,-0.0352,0.0190,1.0229,0.2441,0.1831,-0.1221,4.0000,-18.0000,-65.0000,0,1,463,1155,412,284
108448286,15569,-0.0347,0.0190,1.0239,0.1221,0.1831,-0.0610,4.0000,-18.0000,-65.0000,0,1,463,1163,439,284
108453287,15570,-0.0342,0.0195,1.0229,0.1221,0.3052,-0.1221,4.0000,-18.0000,-65.0000,0,1,463,1159,426,284
108458290,15571,-0.0347,0.0200,1.0210,0.1831,0.3052,-0.1831,4.0000,-18.0000,-65.0000,0,1,463,1143,424,284
108463287,15572,-0.0356,0.0190,1.0195,0.0610,0.3052,-0.1831,4.0000,-18.0000,-65.0000,0,1,463,1156,425,284
108468289,15573,-0.0356,0.0186,1.0205,0.0610,0.3052,-0.0610,4.0000,-18.0000,-65.0000,0,1,462,1146,414,284
108473294,15574,-0.0356,0.0186,1.0210,0.1221,0.1831,-0.0610,4.0000,-18.0000,-65.0000,0,1,463,1164,396,284
108478303,15575,-0.0352,0.0181,1.0215,0.0610,0.3052,-0.1831,4.0000,-18.0000,-65.0000,0,1,463,1174,396,284
108483289,15576,-0.0347,0.0176,1.0215,0.0000,0.4272,-0.2441,4.0000,-18.0000,-65.0000,0,1,479,1142,397,284
108488292,15577,-0.0356,0.0176,1.0205,0.0000,0.4272,-0.2441,4.0000,-18.0000,-65.0000,0,1,507,1117,396,284
108493286,15578,-0.0356,0.0186,1.0215,0.0000,0.3052,-0.3662,4.0000,-18.0000,-65.0000,0,1,494,1122,396,284
108498288,15579,-0.0356,0.0190,1.0215,0.0000,0.2441,-0.2441,4.0000,-18.0000,-65.0000,0,1,509,1114,397,284
108503287,15580,-0.0356,0.0181,1.0205,0.0000,0.2441,-0.1831,4.0000,-18.0000,-65.0000,0,1,481,1121,396,284
108508289,15581,-0.0356,0.0171,1.0195,0.1831,0.3052,-0.1831,4.0000,-18.0000,-65.0000,0,1,487,1118,396,284
108513291,15582,-0.0361,0.0181,1.0190,0.1221,0.3662,-0.1831,4.0000,-18.0000,-69.0000,1,1,507,1163,397,284
108518288,15583,-0.0361,0.0186,1.0200,0.1831,0.3662,-0.3662,4.0000,-18.0000,-69.0000,0,1,482,1190,765,284
108523293,15584,-0.0361,0.0181,1.0200,0.1221,0.3662,-0.3052,4.0000,-18.0000,-69.0000,0,1,487,1177,397,284
108528289,15585,-0.0361,0.0186,1.0205,0.1221,0.2441,-0.1831,4.0000,-18.0000,-69.0000,0,1,480,1165,397,284
108533290,15586,-0.0361,0.0190,1.0210,0.0000,0.3052,-0.1831,4.0000,-18.0000,-69.0000,0,1,498,1174,395,284
108538289,15587,-0.0366,0.0186,1.0205,0.0000,0.3052,-0.3052,4.0000,-18.0000,-69.0000,0,1,490,1123,412,284
108543287,15588,-0.0361,0.0186,1.0205,-0.0610,0.3662,-0.2441,4.0000,-18.0000,-69.0000,0,1,463,1146,426,284
108548286,15589,-0.0352,0.0190,1.0200,0.0000,0.3662,-0.2441,4.0000,-18.0000,-69.0000,0,1,463,1175,436,284
108553291,15590,-0.0352,0.0195,1.0195,0.0000,0.3662,-0.3052,4.0000,-18.0000,-69.0000,0,1,463,1127,424,284
108558291,15591,-0.0356,0.0195,1.0210,0.0000,0.3052,-0.3052,4.0000,-18.0000,-69.0000,0,1,463,1124,412,284
108563289,15592,-0.0352,0.0195,1.0229,-0.1221,0.4272,-0.2441,4.0000,-18.0000,-69.0000,0,1,462,1109,424,284
108568294,15593,-0.0347,0.0195,1.0239,-0.1221,0.4883,-0.2441,4.0000,-18.0000,-69.0000,0,1,463,1164,415,284
108573294,15594,-0.0356,0.0190,1.0234,-0.1831,0.4883,-0.2441,4.0000,-18.0000,-69.0000,0,1,463,1162,440,284
108578287,15595,-0.0361,0.0181,1.0220,-0.1221,0.4883,-0.2441,4.0000,-18.0000,-69.0000,0,1,463,1202,412,284
108583286,15596,-0.0356,0.0181,1.0205,-0.1831,0.3052,-0.3052,4.0000,-18.0000,-69.0000,0,1,462,1117,397,284
108588294,15597,-0.0352,0.0181,1.0200,-0.1831,0.4883,-0.3662,4.0000,-18.0000,-69.0000,0,1,463,1184,397,284
108593311,15598,-0.0342,0.0176,1.0205,-0.0610,0.4883,-0.3052,4.0000,-18.0000,-69.0000,0,1,463,1186,396,284
108598288,15599,-0.0342,0.0171,1.0200,-0.1221,0.4883,-0.2441,4.0000,-18.0000,-69.0000,0,1,480,1182,397,284
108603287,15600,-0.0342,0.0176,1.0186,0.0000,0.4883,-0.3662,4.0000,-18.0000,-69.0000,0,1,491,1195,397,284
108608294,15601,-0.0347,0.0181,1.0190,0.0000,0.5493,-0.4272,4.0000,-18.0000,-69.0000,0,1,505,1124,396,284
108613291,15602,-0.0347,0.0176,1.0195,0.0610,0.4272,-0.4272,4.0000,-18.0000,-67.0000,1,1,465,1126,396,284
108618286,15603,-0.0347,0.0171,1.0200,0.2441,0.3662,-0.3662,4.0000,-18.0000,-67.0000,0,1,484,1087,795,284
108623291,15604,-0.0352,0.0176,1.0215,0.1221,0.4272,-0.3662,4.0000,-18.0000,-67.0000,0,1,490,1173,397,284
108628286,15605,-0.0356,0.0190,1.0225,0.1221,0.4272,-0.3662,4.0000,-18.0000,-67.0000,0,1,503,1170,396,284
108633288,15606,-0.0361,0.0190,1.0215,0.1221,0.3052,-0.3052,4.0000,-18.0000,-67.0000,0,1,487,1203,396,284
108638295,15607,-0.0352,0.0176,1.0205,0.0610,0.5493,-0.4272,4.0000,-18.0000,-67.0000,0,1,483,1165,397,284
108643292,15608,-0.0356,0.0166,1.0205,0.1221,0.4272,-0.3662,4.0000,-18.0000,-67.0000,0,1,494,1171,397,284
108648286,15609,-0.0371,0.0166,1.0200,0.1221,0.4883,-0.4272,4.0000,-18.0000,-67.0000,0,1,507,1176,395,284
108653286,15610,-0.0371,0.0171,1.0210,0.1831,0.2441,-0.4272,4.0000,-18.0000,-67.0000,0,1,463,1171,440,284
108658292,15611,-0.0366,0.0186,1.0210,0.1221,0.3052,-0.3662,4.0000,-18.0000,-67.0000,0,1,463,1174,425,284
108663291,15612,-0.0361,0.0190,1.0200,0.1221,0.3052,-0.4272,4.0000,-18.0000,-67.0000,0,1,463,1192,428,284
108668291,15613,-0.0352,0.0186,1.0190,0.0610,0.1831,-0.4272,4.0000,-18.0000,-67.0000,0,1,463,1168,425,284
108673287,15614,-0.0347,0.0181,1.0200,0.1221,0.2441,-0.3662,4.0000,-18.0000,-67.0000,0,1,463,1170,428,284
108678287,15615,-0.0356,0.0190,1.0215,0.1221,0.2441,-0.3052,4.0000,-18.0000,-67.0000,0,1,463,1167,426,284
108683287,15616,-0.0361,0.0200,1.0215,0.0610,0.1221,-0.3052,4.0000,-18.0000,-67.0000,0,1,462,1159,434,284
108688294,15617,-0.0361,0.0190,1.0215,0.0610,0.1831,-0.3662,4.0000,-18.0000,-67.0000,0,1,463,1088,425,284
108693291,15618,-0.0356,0.0176,1.0220,0.1831,0.1831,-0.3052,4.0000,-18.0000,-67.0000,0,1,463,1061,397,284
108698292,15619,-0.0356,0.0181,1.0220,0.0610,0.2441,-0.3662,4.0000,-18.0000,-67.0000,0,1,462,1160,424,284
108703289,15620,-0.0361,0.0176,1.0205,-0.0610,0.2441,-0.3662,4.0000,-18.0000,-67.0000,0,1,463,1211,396,284
108708290,15621,-0.0361,0.0171,1.0195,0.0610,0.1221,-0.2441,4.0000,-18.0000,-67.0000,0,1,480,1165,396,284
108713293,15622,-0.0361,0.0171,1.0200,0.0000,0.1831,-0.2441,8.0000,-19.0000,-71.0000,1,1,506,1142,397,284
108718290,15623,-0.0356,0.0186,1.0215,0.0000,0.1831,-0.2441,8.0000,-19.0000,-71.0000,0,1,482,1130,786,284
108723291,15624,-0.0361,0.0200,1.0239,-0.1831,0.3052,-0.2441,8.0000,-19.0000,-71.0000,0,1,508,1134,397,284
108728292,15625,-0.0356,0.0200,1.0239,-0.1831,0.2441,-0.2441,8.0000,-19.0000,-71.0000,0,1,498,1180,396,284
108733288,15626,-0.0356,0.0200,1.0225,-0.1221,0.1831,-0.1831,8.0000,-19.0000,-71.0000,0,1,498,1186,396,284
108738287,15627,-0.0361,0.0210,1.0225,-0.2441,0.1221,-0.2441,8.0000,-19.0000,-71.0000,0,1,481,1177,396,284
108743290,15628,-0.0366,0.0195,1.0225,-0.1831,0.1831,-0.1221,8.0000,-19.0000,-71.0000,0,1,486,1177,397,284
108748294,15629,-0.0366,0.0171,1.0215,-0.2441,0.3052,-0.2441,8.0000,-19.0000,-71.0000,0,1,503,1180,396,284
108753294,15630,-0.0371,0.0161,1.0200,-0.1221,0.1831,-0.2441,8.0000,-19.0000,-71.0000,0,1,503,1176,396,284
108758290,15631,-0.0376,0.0161,1.0181,-0.1831,0.2441,-0.2441,8.0000,-19.0000,-71.0000,0,1,504,1179,395,284
108763288,15632,-0.0376,0.0156,1.0171,0.0000,0.0610,-0.2441,8.0000,-19.0000,-71.0000,0,1,490,1209,412,284
108768294,15633,-0.0376,0.0156,1.0186,0.0610,0.0000,-0.1221,8.0000,-19.0000,-71.0000,0,1,463,1126,426,284
108773290,15634,-0.0371,0.0171,1.0200,0.0610,0.1221,-0.1831,8.0000,-19.0000,-71.0000,0,1,463,1123,419,284
108778292,15635,-0.0356,0.0190,1.0205,0.0610,0.0610,-0.1831,8.0000,-19.0000,-71.0000,0,1,462,1171,424,284
108783288,15636,-0.0352,0.0210,1.0210,0.1221,0.0610,-0.3052,8.0000,-19.0000,-71.0000,0,1,463,1176,423,284
108788290,15637,-0.0352,0.0205,1.0210,-0.1221,0.1221,-0.3052,8.0000,-19.0000,-71.0000,0,1,462,1160,425,284
108793292,15638,-0.0352,0.0181,1.0205,-0.0610,0.0610,-0.1831,8.0000,-19.0000,-71.0000,0,1,463,1153,415,284
108798291,15639,-0.0356,0.0176,1.0205,0.0000,0.0610,-0.3052,8.0000,-19.0000,-71.0000,0,1,462,1160,441,284
108803293,15640,-0.0352,0.0176,1.0220,0.0000,0.1221,-0.3052,8.0000,-19.0000,-71.0000,0,1,463,1086,414,284
108808288,15641,-0.0337,0.0181,1.0215,-0.1221,0.2441,-0.1831,8.0000,-19.0000,-71.0000,0,1,463,1127,424,284
108813311,15642,-0.0327,0.0186,1.0215,-0.1221,0.1831,-0.1831,5.0000,-20.0000,-67.0000,1,1,462,1219,397,284
108818318,15643,-0.0347,0.0181,1.0229,-0.1221,0.2441,-0.3052,5.0000,-20.0000,-67.0000,0,1,463,1163,785,284
108823289,15644,-0.0366,0.0166,1.0229,-0.1831,0.2441,-0.2441,5.0000,-20.0000,-67.0000,0,1,480,1128,396,284
108828287,15645,-0.0371,0.0161,1.0205,-0.1221,0.3052,-0.1831,5.0000,-20.0000,-67.0000,0,1,491,1175,397,284
108833286,15646,-0.0371,0.0171,1.0190,-0.1221,0.3052,-0.1831,5.0000,-20.0000,-67.0000,0,1,467,1163,397,284
108838286,15647,-0.0361,0.0176,1.0195,0.0000,0.1831,-0.0610,5.0000,-20.0000,-67.0000,0,1,491,1158,397,284
108843293,15648,-0.0356,0.0181,1.0215,0.1221,0.1831,-0.0610,5.0000,-20.0000,-67.0000,0,1,491,1118,397,284
108848288,15649,-0.0371,0.0161,1.0210,0.1221,0.2441,-0.2441,5.0000,-20.0000,-67.0000,0,1,487,1159,397,284
108853287,15650,-0.0371,0.0151,1.0200,0.2441,0.3052,-0.2441,5.0000,-20.0000,-67.0000,0,1,492,1166,396,284
108858293,15651,-0.0361,0.0146,1.0200,0.3052,0.1831,-0.2441,5.0000,-20.0000,-67.0000,0,1,473,1165,396,284
108863294,15652,-0.0356,0.0161,1.0215,0.3052,0.0610,-0.1221,5.0000,-20.0000,-67.0000,0,1,485,1165,397,284
108868291,15653,-0.0361,0.0181,1.0239,0.2441,0.0610,-0.1831,5.0000,-20.0000,-67.0000,0,1,491,1157,395,284
108873295,15654,-0.0356,0.0195,1.0249,0.2441,0.0610,-0.1831,5.0000,-20.0000,-67.0000,0,1,507,1166,395,284
108878290,15655,-0.0347,0.0190,1.0229,0.1221,0.1831,-0.3052,5.0000,-20.0000,-67.0000,0,1,463,1168,439,284
108883287,15656,-0.0337,0.0176,1.0220,0.0610,0.1221,-0.1831,5.0000,-20.0000,-67.0000,0,1,463,1158,413,284
108888288,15657,-0.0332,0.0181,1.0234,0.0610,0.0610,-0.1831,5.0000,-20.0000,-67.0000,0,1,463,1156,410,284
108893289,15658,-0.0327,0.0205,1.0249,0.0000,0.3052,-0.1831,5.0000,-20.0000,-67.0000,0,1,462,1159,425,284
108898290,15659,-0.0327,0.0215,1.0244,0.0610,0.1831,-0.1831,5.0000,-20.0000,-67.0000,0,1,463,1116,430,284
108903287,15660,-0.0337,0.0205,1.0234,0.0000,0.1831,-0.2441,5.0000,-20.0000,-67.0000,0,1,463,1165,425,284
108908290,15661,-0.0352,0.0200,1.0220,0.0610,0.3052,-0.2441,5.0000,-20.0000,-67.0000,0,1,462,1113,436,284
108913293,15662,-0.0352,0.0190,1.0215,-0.0610,0.2441,-0.2441,5.0000,-19.0000,-72.0000,1,1,463,1043,410,284
108918291,15663,-0.0347,0.0181,1.0225,-0.1831,0.3052,-0.2441,5.0000,-19.0000,-72.0000,0,1,463,1173,805,284
108923290,15664,-0.0347,0.0176,1.0225,-0.1221,0.1831,-0.1221,5.0000,-19.0000,-72.0000,0,1,463,1159,424,284
108928287,15665,-0.0356,0.0166,1.0220,0.0000,0.1221,-0.1221,5.0000,-19.0000,-72.0000,0,1,462,1182,397,284
108933289,15666,-0.0361,0.0171,1.0205,0.0610,0.2441,-0.1831,5.0000,-19.0000,-72.0000,0,1,480,1124,396,284
108938295,15667,-0.0366,0.0176,1.0205,0.0610,0.3662,-0.1221,5.0000,-19.0000,-72.0000,0,1,491,1219,397,284
108943287,15668,-0.0366,0.0181,1.0210,-0.0610,0.1831,-0.1831,5.0000,-19.0000,-72.0000,0,1,481,1171,396,284
108948292,15669,-0.0366,0.0171,1.0215,0.0000,0.2441,-0.2441,5.0000,-19.0000,-72.0000,0,1,492,1173,396,284
108953287,15670,-0.0366,0.0161,1.0215,0.1221,0.2441,-0.1831,5.0000,-19.0000,-72.0000,0,1,486,1130,396,284
108958289,15671,-0.0356,0.0161,1.0205,0.1221,0.2441,-0.2441,5.0000,-19.0000,-72.0000,0,1,494,1177,396,284
108963289,15672,-0.0352,0.0181,1.0210,0.0610,0.3662,-0.2441,5.0000,-19.0000,-72.0000,0,1,491,1178,397,284
108968290,15673,-0.0352,0.0186,1.0225,0.0610,0.2441,-0.0610,5.0000,-19.0000,-72.0000,0,1,491,1168,397,284
108973291,15674,-0.0356,0.0181,1.0234,0.2441,0.3052,-0.2441,5.0000,-19.0000,-72.0000,0,1,492,1168,397,284
108978292,15675,-0.0366,0.0190,1.0229,0.1831,0.1831,-0.1831,5.0000,-19.0000,-72.0000,0,1,487,1174,396,284
108983289,15676,-0.0371,0.0181,1.0215,0.1831,0.1221,-0.1831,5.0000,-19.0000,-72.0000,0,1,504,1182,395,284
108988288,15677,-0.0371,0.0161,1.0200,0.2441,0.2441,-0.1831,5.0000,-19.0000,-72.0000,0,1,490,1171,412,284
108993291,15678,-0.0366,0.0156,1.0195,0.1221,0.1221,-0.1831,5.0000,-19.0000,-72.0000,0,1,463,1180,426,284
108998292,15679,-0.0356,0.0171,1.0200,0.3052,0.1831,-0.3052,5.0000,-19.0000,-72.0000,0,1,463,1200,413,284
109003287,15680,-0.0356,0.0190,1.0205,0.3662,0.2441,-0.1831,5.0000,-19.0000,-72.0000,0,1,462,1164,423,284
109008286,15681,-0.0352,0.0200,1.0210,0.1831,0.1831,-0.1831,5.0000,-19.0000,-72.0000,0,1,463,1179,413,284
109013290,15682,-0.0352,0.0205,1.0229,0.2441,0.2441,-0.3662,5.0000,-18.0000,-64.0000,1,1,463,1200,426,284
109018290,15683,-0.0352,0.0200,1.0239,0.1831,0.1831,-0.1221,5.0000,-18.0000,-64.0000,0,1,462,1178,783,284
109023287,15684,-0.0347,0.0190,1.0234,0.1221,0.2441,-0.2441,5.0000,-18.0000,-64.0000,0,1,462,1085,409,284
109028291,15685,-0.0352,0.0195,1.0225,0.1221,0.3662,-0.3052,5.0000,-18.0000,-64.0000,0,1,463,1191,425,284
109033288,15686,-0.0347,0.0205,1.0220,0.0610,0.1221,-0.1831,5.0000,-18.0000,-64.0000,0,1,462,1125,409,284
109038305,15687,-0.0337,0.0215,1.0225,0.0000,0.3052,-0.1221,5.0000,-18.0000,-64.0000,0,1,463,1176,397,284
109043299,15688,-0.0347,0.0200,1.0220,-0.0610,0.4272,-0.2441,5.0000,-18.0000,-64.0000,0,1,463,1133,396,284
109048294,15689,-0.0347,0.0181,1.0210,-0.0610,0.5493,-0.1831,5.0000,-18.0000,-64.0000,0,1,479,1159,397,284
109053290,15690,-0.0342,0.0171,1.0220,0.0000,0.4272,-0.1831,5.0000,-18.0000,-64.0000,0,1,491,1208,396,284
109058292,15691,-0.0337,0.0176,1.0225,-0.1831,0.4272,-0.2441,5.0000,-18.0000,-64.0000,0,1,509,1125,396,284
109063286,15692,-0.0342,0.0186,1.0215,-0.1221,0.4272,-0.3052,5.0000,-18.0000,-64.0000,0,1,486,1176,397,284
109068293,15693,-0.0347,0.0186,1.0215,-0.1221,0.4272,-0.1831,5.0000,-18.0000,-64.0000,0,1,472,1194,397,284
109073294,15694,-0.0337,0.0181,1.0210,-0.1221,0.3662,-0.1831,5.0000,-18.0000,-64.0000,0,1,489,1171,397,284
109078292,15695,-0.0342,0.0171,1.0210,0.0610,0.3662,-0.1831,5.0000,-18.0000,-64.0000,0,1,489,1168,396,284
109083286,15696,-0.0356,0.0176,1.0210,-0.0610,0.3052,-0.3052,5.0000,-18.0000,-64.0000,0,1,495,1168,396,284
109088288,15697,-0.0366,0.0181,1.0205,-0.0610,0.4272,-0.2441,5.0000,-18.0000,-64.0000,0,1,500,1162,396,284
109093295,15698,-0.0366,0.0176,1.0195,0.0000,0.3662,-0.1831,5.0000,-18.0000,-64.0000,0,1,493,1173,397,284
109098294,15699,-0.0361,0.0190,1.0195,0.0610,0.3662,-0.3662,5.0000,-18.0000,-64.0000,0,1,491,1131,395,284
109103288,15700,-0.0356,0.0205,1.0215,0.0000,0.3662,-0.3662,5.0000,-18.0000,-64.0000,0,1,490,1176,412,284
109108286,15701,-0.0356,0.0200,1.0220,-0.1831,0.3052,-0.2441,5.0000,-18.0000,-64.0000,0,1,463,1157,425,284
109113288,15702,-0.0361,0.0181,1.0210,-0.1221,0.4272,-0.1221,4.0000,-20.0000,-68.0000,1,1,463,1173,431,284
109118289,15703,-0.0366,0.0171,1.0215,0.0000,0.3662,-0.1221,4.0000,-20.0000,-68.0000,0,1,463,1161,792,284
109123292,15704,-0.0371,0.0186,1.0215,0.0000,0.3052,-0.0610,4.0000,-20.0000,-68.0000,0,1,463,1117,413,284
109128292,15705,-0.0376,0.0205,1.0210,0.0000,0.2441,-0.0610,4.0000,-20.0000,-68.0000,0,1,463,1106,421,284
109133294,15706,-0.0371,0.0210,1.0220,-0.1221,0.2441,-0.1221,4.0000,-20.0000,-68.0000,0,1,463,1040,412,284
109138290,15707,-0.0361,0.0205,1.0220,-0.1831,0.4272,-0.1221,4.0000,-20.0000,-68.0000,0,1,463,1077,435,284
109143288,15708,-0.0361,0.0186,1.0210,-0.1831,0.4883,-0.1831,4.0000,-20.0000,-68.0000,0,1,463,1055,412,284
109148293,15709,-0.0356,0.0166,1.0205,-0.1831,0.4272,-0.1831,4.0000,-20.0000,-68.0000,0,1,463,1072,421,284
109153299,15710,-0.0347,0.0161,1.0210,-0.1221,0.4883,-0.2441,4.0000,-20.0000,-68.0000,0,1,462,1138,424,284
109158295,15711,-0.0352,0.0161,1.0210,-0.1831,0.4883,-0.3052,4.0000,-20.0000,-68.0000,0,1,463,1181,396,284
109163318,15712,-0.0366,0.0161,1.0210,-0.1221,0.4272,-0.2441,4.0000,-20.0000,-68.0000,0,1,479,1134,396,284
109168291,15713,-0.0366,0.0166,1.0210,-0.1221,0.3662,-0.1831,4.0000,-20.0000,-68.0000,0,1,480,1186,397,284
109173290,15714,-0.0361,0.0176,1.0220,-0.0610,0.3052,-0.1221,4.0000,-20.0000,-68.0000,0,1,498,1198,396,284
109178290,15715,-0.0366,0.0176,1.0225,-0.0610,0.2441,-0.1221,4.0000,-20.0000,-68.0000,0,1,488,1161,396,284
109183295,15716,-0.0371,0.0176,1.0215,-0.1221,0.3052,-0.1831,4.0000,-20.0000,-68.0000,0,1,480,1165,397,284
109188286,15717,-0.0371,0.0171,1.0205,0.0000,0.3052,-0.3052,4.0000,-20.0000,-68.0000,0,1,477,1164,396,284
109193293,15718,-0.0376,0.0176,1.0195,0.1221,0.1831,-0.2441,4.0000,-20.0000,-68.0000,0,1,487,1113,397,284
109198294,15719,-0.0371,0.0181,1.0186,0.0610,0.2441,-0.1831,4.0000,-20.0000,-68.0000,0,1,482,1170,396,284
109203287,15720,-0.0361,0.0176,1.0181,0.2441,0.2441,-0.1831,4.0000,-20.0000,-68.0000,0,1,502,1197,397,284
109208295,15721,-0.0356,0.0166,1.0190,0.1221,0.1221,-0.2441,4.0000,-20.0000,-68.0000,0,1,485,1172,397,284
109213289,15722,-0.0356,0.0161,1.0205,0.1221,0.1221,-0.3052,5.0000,-20.0000,-69.0000,1,1,487,1168,395,284
109218295,15723,-0.0371,0.0176,1.0220,0.1831,0.0610,-0.1831,5.0000,-20.0000,-69.0000,0,1,490,1159,781,284
109223290,15724,-0.0386,0.0186,1.0229,0.2441,0.1221,-0.3052,5.0000,-20.0000,-69.0000,0,1,490,1164,397,284
109228287,15725,-0.0386,0.0186,1.0210,0.1221,0.1831,-0.3052,5.0000,-20.0000,-69.0000,0,1,463,1157,415,284
109233289,15726,-0.0371,0.0181,1.0195,0.1831,-0.0610,-0.2441,5.0000,-20.0000,-69.0000,0,1,462,1153,423,284
109238291,15727,-0.0352,0.0176,1.0200,0.2441,-0.1221,-0.2441,5.0000,-20.0000,-69.0000,0,1,463,1164,412,284
109243291,15728,-0.0342,0.0176,1.0210,0.1831,0.0000,-0.2441,5.0000,-20.0000,-69.0000,0,1,463,1160,424,284
109248292,15729,-0.0342,0.0176,1.0215,0.2441,-0.1221,-0.3052,5.0000,-20.0000,-69.0000,0,1,462,1112,415,284
109253287,15730,-0.0356,0.0186,1.0220,0.1221,0.0000,-0.3052,5.0000,-20.0000,-69.0000,0,1,463,1154,415,284
109258291,15731,-0.0366,0.0186,1.0229,0.0610,0.0000,-0.3052,5.0000,-20.0000,-69.0000,0,1,463,1096,397,284
109263293,15732,-0.0366,0.0186,1.0229,0.0610,0.0000,-0.1831,5.0000,-20.0000,-69.0000,0,1,463,1100,419,284
109268293,15733,-0.0356,0.0186,1.0229,0.0000,0.1221,-0.1831,5.0000,-20.0000,-69.0000,0,1,463,1090,396,284
109273314,15734,-0.0352,0.0190,1.0229,0.0000,0.1831,-0.2441,5.0000,-20.0000,-69.0000,0,1,480,1161,396,284
109278294,15735,-0.0347,0.0200,1.0225,0.1221,0.1831,-0.1831,5.0000,-20.0000,-69.0000,0,1,480,1149,396,284
109283290,15736,-0.0342,0.0205,1.0215,0.0610,0.1221,-0.1831,5.0000,-20.0000,-69.0000,0,1,491,1191,397,284
109288286,15737,-0.0347,0.0200,1.0205,0.0000,0.1831,-0.2441,5.0000,-20.0000,-69.0000,0,1,506,1158,397,284
109293294,15738,-0.0352,0.0195,1.0205,-0.0610,0.1221,-0.3052,5.0000,-20.0000,-69.0000,0,1,502,1147,396,284
109298293,15739,-0.0356,0.0186,1.0200,-0.0610,-0.0610,-0.1831,5.0000,-20.0000,-69.0000,0,1,474,1155,396,284
109303292,15740,-0.0356,0.0181,1.0200,0.0000,0.0610,-0.2441,5.0000,-20.0000,-69.0000,0,1,477,1163,397,284
109308293,15741,-0.0347,0.0181,1.0220,0.0610,0.0610,-0.2441,5.0000,-20.0000,-69.0000,0,1,498,1114,397,284
109313288,15742,-0.0342,0.0181,1.0234,0.1221,0.1831,-0.1221,3.0000,-20.0000,-68.0000,1,1,499,1156,396,284
109318289,15743,-0.0352,0.0186,1.0229,0.1221,0.1831,-0.3662,3.0000,-20.0000,-68.0000,0,1,478,1161,765,284
109323294,15744,-0.0356,0.0186,1.0215,0.0000,0.1221,-0.2441,3.0000,-20.0000,-68.0000,0,1,489,1166,395,284
109328292,15745,-0.0356,0.0171,1.0210,0.0610,0.1221,-0.2441,3.0000,-20.0000,-68.0000,0,1,487,1117,412,284
109333293,15746,-0.0356,0.0176,1.0215,0.1221,0.1221,-0.3052,3.0000,-20.0000,-68.0000,0,1,463,1160,398,284
109338286,15747,-0.0347,0.0181,1.0220,0.0610,0.0610,-0.1831,3.0000,-20.0000,-68.0000,0,1,462,1184,412,284
109343294,15748,-0.0342,0.0190,1.0229,0.1221,0.1221,-0.1831,3.0000,-20.0000,-68.0000,0,1,463,1158,423,284
109348286,15749,-0.0342,0.0205,1.0234,0.0000,0.3052,-0.1221,3.0000,-20.0000,-68.0000,0,1,463,1163,412,284
109353294,15750,-0.0342,0.0205,1.0234,0.0610,0.1221,-0.1221,3.0000,-20.0000,-68.0000,0,1,462,1104,441,284
109358295,15751,-0.0347,0.0195,1.0225,-0.1221,0.0610,-0.1831,3.0000,-20.0000,-68.0000,0,1,462,1149,426,284
109363292,15752,-0.0361,0.0190,1.0215,0.0000,0.1831,-0.3662,3.0000,-20.0000,-68.0000,0,1,463,1085,400,284
109368295,15753,-0.0366,0.0210,1.0215,-0.1221,0.2441,-0.2441,3.0000,-20.0000,-68.0000,0,1,462,1019,423,284
109373293,15754,-0.0361,0.0210,1.0220,-0.1221,0.2441,-0.2441,3.0000,-20.0000,-68.0000,0,1,463,1125,400,284
109378301,15755,-0.0352,0.0190,1.0220,-0.1221,0.2441,-0.1221,3.0000,-20.0000,-68.0000,0,1,463,1091,396,284
109383293,15756,-0.0356,0.0171,1.0210,-0.1831,0.1221,-0.0610,3.0000,-20.0000,-68.0000,0,1,463,1178,396,284
109388311,15757,-0.0366,0.0166,1.0200,-0.3052,0.1831,-0.2441,3.0000,-20.0000,-68.0000,0,1,480,1176,397,284
109393289,15758,-0.0356,0.0166,1.0195,-0.2441,0.1831,-0.3052,3.0000,-20.0000,-68.0000,0,1,464,1208,396,284
109398294,15759,-0.0347,0.0176,1.0205,-0.2441,0.2441,-0.2441,3.0000,-20.0000,-68.0000,0,1,508,1174,397,284
109403288,15760,-0.0352,0.0181,1.0210,-0.2441,0.1831,-0.1831,3.0000,-20.0000,-68.0000,0,1,482,1171,397,284
109408293,15761,-0.0356,0.0176,1.0205,-0.2441,0.0610,-0.2441,3.0000,-20.0000,-68.0000,0,1,469,1195,397,284
109413290,15762,-0.0366,0.0181,1.0195,-0.1831,0.1221,-0.2441,5.0000,-20.0000,-69.0000,1,1,486,1170,396,284
109418288,15763,-0.0366,0.0176,1.0195,-0.0610,0.1831,-0.2441,5.0000,-20.0000,-69.0000,0,1,490,1076,783,284
109423291,15764,-0.0356,0.0166,1.0200,0.0000,0.1221,-0.2441,5.0000,-20.0000,-69.0000,0,1,494,1169,397,284
109428293,15765,-0.0347,0.0166,1.0215,0.0000,0.1221,-0.1831,5.0000,-20.0000,-69.0000,0,1,495,1118,397,284
109433294,15766,-0.0337,0.0176,1.0229,-0.1221,0.1831,-0.1831,5.0000,-20.0000,-69.0000,0,1,488,1144,397,284
109438287,15767,-0.0347,0.0181,1.0225,-0.1221,0.1831,-0.1221,5.0000,-20.0000,-69.0000,0,1,489,1193,395,284
109443286,15768,-0.0356,0.0186,1.0210,-0.0610,0.2441,-0.0610,5.0000,-20.0000,-69.0000,0,1,490,1153,412,284
109448287,15769,-0.0361,0.0186,1.0205,-0.1831,0.3052,-0.1831,5.0000,-20.0000,-69.0000,0,1,463,1158,425,284
109453295,15770,-0.0352,0.0176,1.0215,-0.3662,0.3052,-0.1831,5.0000,-20.0000,-69.0000,0,1,463,1192,437,284
109458294,15771,-0.0342,0.0166,1.0215,-0.2441,0.2441,-0.1831,5.0000,-20.0000,-69.0000,0,1,463,1158,425,284
109463291,15772,-0.0347,0.0166,1.0210,-0.3052,0.3052,-0.2441,5.0000,-20.0000,-69.0000,0,1,463,1168,413,284
109468289,15773,-0.0347,0.0176,1.0205,-0.1831,0.3052,-0.1831,5.0000,-20.0000,-69.0000,0,1,462,1155,426,284
109473292,15774,-0.0356,0.0186,1.0220,0.0000,0.2441,-0.1221,5.0000,-20.0000,-69.0000,0,1,463,1077,414,284
109478295,15775,-0.0352,0.0176,1.0239,-0.1831,0.1831,-0.2441,5.0000,-20.0000,-69.0000,0,1,463,1010,423,284
109483294,15776,-0.0342,0.0161,1.0244,-0.1221,0.1831,-0.2441,5.0000,-20.0000,-69.0000,0,1,463,1055,396,284
109488286,15777,-0.0347,0.0156,1.0234,0.0610,0.3662,-0.1831,5.0000,-20.0000,-69.0000,0,1,463,1100,407,284
109493292,15778,-0.0356,0.0176,1.0215,0.0000,0.3052,-0.2441,5.0000,-20.0000,-69.0000,0,1,462,1181,397,284
109498304,15779,-0.0361,0.0190,1.0190,-0.0610,0.4272,-0.2441,5.0000,-20.0000,-69.0000,0,1,479,1152,397,284
109503289,15780,-0.0366,0.0181,1.0181,-0.0610,0.3052,-0.1221,5.0000,-20.0000,-69.0000,0,1,463,1207,397,284
109508291,15781,-0.0361,0.0171,1.0190,-0.0610,0.3052,-0.1221,5.0000,-20.0000,-69.0000,0,1,491,1180,396,284
109513287,15782,-0.0347,0.0176,1.0215,-0.0610,0.3052,-0.1221,5.0000,-20.0000,-69.0000,0,1,471,1156,396,284
109518286,15783,-0.0347,0.0176,1.0229,-0.0610,0.3662,-0.2441,5.0000,-17.0000,-67.0000,1,1,494,1153,396,284
109523293,15784,-0.0352,0.0166,1.0220,-0.0610,0.4272,-0.1831,5.0000,-17.0000,-67.0000,0,1,493,1090,795,284
109528289,15785,-0.0356,0.0166,1.0210,0.0000,0.4272,0.0000,5.0000,-17.0000,-67.0000,0,1,489,1175,397,284
109533292,15786,-0.0366,0.0181,1.0210,-0.0610,0.3662,-0.1831,5.0000,-17.0000,-67.0000,0,1,494,1084,397,284
109538287,15787,-0.0371,0.0181,1.0205,-0.1221,0.2441,-0.1831,5.0000,-17.0000,-67.0000,0,1,491,1201,397,284
109543288,15788,-0.0366,0.0181,1.0190,-0.1221,0.3052,-0.1831,5.0000,-17.0000,-67.0000,0,1,478,1173,396,284
109548286,15789,-0.0347,0.0186,1.0190,-0.1221,0.3662,-0.1831,5.0000,-17.0000,-67.0000,0,1,501,1167,395,284
109553286,15790,-0.0342,0.0181,1.0195,-0.1221,0.3052,-0.1221,5.0000,-17.0000,-67.0000,0,1,491,1200,395,284
109558288,15791,-0.0356,0.0186,1.0205,-0.0610,0.3052,-0.2441,5.0000,-17.0000,-67.0000,0,1,490,1161,398,284
109563292,15792,-0.0361,0.0181,1.0220,-0.1221,0.3052,-0.1221,5.0000,-17.0000,-67.0000,0,1,463,1170,437,284
109568289,15793,-0.0361,0.0171,1.0225,-0.0610,0.3662,-0.1831,5.0000,-17.0000,-67.0000,0,1,462,1162,410,284
109573288,15794,-0.0366,0.0161,1.0215,-0.1221,0.4883,-0.2441,5.0000,-17.0000,-67.0000,0,1,462,1172,429,284
109578290,15795,-0.0376,0.0161,1.0205,0.0610,0.4272,-0.1831,5.0000,-17.0000,-67.0000,0,1,463,1173,431,284
109583288,15796,-0.0381,0.0161,1.0210,-0.0610,0.3052,-0.2441,5.0000,-17.0000,-67.0000,0,1,462,1175,425,284
109588286,15797,-0.0371,0.0166,1.0210,0.0000,0.2441,-0.1831,5.0000,-17.0000,-67.0000,0,1,462,1090,395,284
109593287,15798,-0.0356,0.0186,1.0205,0.0610,0.2441,-0.2441,5.0000,-17.0000,-67.0000,0,1,463,1018,423,284
109598294,15799,-0.0352,0.0195,1.0215,0.0000,0.1831,-0.1831,5.0000,-17.0000,-67.0000,0,1,463,1088,396,284
109603291,15800,-0.0381,0.0181,1.0210,0.0000,0.2441,-0.1831,5.0000,-17.0000,-67.0000,0,1,462,1119,424,284
109608294,15801,-0.0381,0.0176,1.0205,-0.0610,0.2441,-0.1221,5.0000,-17.0000,-67.0000,0,1,462,1140,396,284
109613321,15802,-0.0366,0.0166,1.0200,0.0000,0.1831,-0.1221,5.0000,-17.0000,-67.0000,0,1,479,1155,397,284
109618292,15803,-0.0361,0.0161,1.0205,-0.0610,0.3052,-0.2441,5.0000,-21.0000,-68.0000,1,1,480,1150,396,284
109623287,15804,-0.0352,0.0166,1.0215,-0.1221,0.3052,-0.1831,5.0000,-21.0000,-68.0000,0,1,482,1209,772,284
109628294,15805,-0.0352,0.0171,1.0225,0.0000,0.2441,-0.1831,5.0000,-21.0000,-68.0000,0,1,471,1177,396,284
109633288,15806,-0.0356,0.0181,1.0225,-0.0610,0.2441,-0.1831,5.0000,-21.0000,-68.0000,0,1,501,1133,397,284
109638294,15807,-0.0356,0.0176,1.0229,-0.0610,0.3662,-0.2441,5.0000,-21.0000,-68.0000,0,1,484,1210,396,284
109643291,15808,-0.0361,0.0176,1.0225,-0.0610,0.3662,-0.2441,5.0000,-21.0000,-68.0000,0,1,479,1186,397,284
109648288,15809,-0.0366,0.0171,1.0205,0.0000,0.2441,-0.1831,5.0000,-21.0000,-68.0000,0,1,502,1183,397,284
109653295,15810,-0.0366,0.0166,1.0195,0.0000,0.3052,-0.2441,5.0000,-21.0000,-68.0000,0,1,481,1137,396,284
109658289,15811,-0.0361,0.0166,1.0195,0.0000,0.1831,-0.3662,5.0000,-21.0000,-68.0000,0,1,497,1137,397,284
109663289,15812,-0.0361,0.0176,1.0200,0.0610,0.2441,-0.2441,5.0000,-21.0000,-68.0000,0,1,508,1144,395,284
109668286,15813,-0.0356,0.0176,1.0205,0.0610,0.3052,-0.1831,5.0000,-21.0000,-68.0000,0,1,487,1181,395,284
109673294,15814,-0.0361,0.0161,1.0210,0.1831,0.1221,-0.3052,5.0000,-21.0000,-68.0000,0,1,463,1176,397,284
109678292,15815,-0.0361,0.0161,1.0215,0.1831,0.1831,-0.2441,5.0000,-21.0000,-68.0000,0,1,462,1176,415,284
109683290,15816,-0.0356,0.0176,1.0220,0.1831,0.3052,-0.2441,5.0000,-21.0000,-68.0000,0,1,462,1187,441,284
109688291,15817,-0.0356,0.0166,1.0220,0.1831,0.2441,-0.2441,5.0000,-21.0000,-68.0000,0,1,463,1180,433,284
109693288,15818,-0.0352,0.0166,1.0210,0.1831,0.3052,-0.3662,5.0000,-21.0000,-68.0000,0,1,463,1187,402,284
109698286,15819,-0.0352,0.0181,1.0200,0.2441,0.2441,-0.1831,5.0000,-21.0000,-68.0000,0,1,463,1177,433,284
109703288,15820,-0.0361,0.0195,1.0210,0.2441,0.2441,-0.2441,5.0000,-21.0000,-68.0000,0,1,463,1096,412,284
109708288,15821,-0.0366,0.0190,1.0220,0.2441,0.3662,-0.2441,5.0000,-21.0000,-68.0000,0,1,463,1183,429,284
109713287,15822,-0.0366,0.0181,1.0220,0.1831,0.3662,-0.3052,5.0000,-21.0000,-68.0000,0,1,463,1089,415,284
109718289,15823,-0.0361,0.0166,1.0215,0.1831,0.1831,-0.3052,2.0000,-19.0000,-69.0000,1,1,463,1139,397,284
109723286,15824,-0.0361,0.0156,1.0210,0.2441,0.2441,-0.2441,2.0000,-19.0000,-69.0000,0,1,463,1176,812,284
109728291,15825,-0.0366,0.0166,1.0205,0.2441,0.1831,-0.2441,2.0000,-19.0000,-69.0000,0,1,464,1197,397,284
109733291,15826,-0.0366,0.0181,1.0200,0.2441,0.1831,-0.1831,2.0000,-19.0000,-69.0000,0,1,465,1221,396,284
109738292,15827,-0.0361,0.0190,1.0210,0.1831,0.1831,-0.1831,2.0000,-19.0000,-69.0000,0,1,465,1176,397,284
109743294,15828,-0.0356,0.0195,1.0229,0.1831,0.1221,-0.2441,2.0000,-19.0000,-69.0000,0,1,492,1179,396,284
109748290,15829,-0.0356,0.0195,1.0234,0.2441,0.1831,-0.2441,2.0000,-19.0000,-69.0000,0,1,476,1179,397,284
109753291,15830,-0.0356,0.0186,1.0220,0.1221,0.1831,-0.3052,2.0000,-19.0000,-69.0000,0,1,504,1213,397,284
109758295,15831,-0.0356,0.0176,1.0215,0.0610,0.2441,-0.2441,2.0000,-19.0000,-69.0000,0,1,503,1169,396,284
109763294,15832,-0.0371,0.0181,1.0210,0.2441,0.3052,-0.3052,2.0000,-19.0000,-69.0000,0,1,503,1174,397,284
109768295,15833,-0.0371,0.0186,1.0220,0.2441,0.1221,-0.2441,2.0000,-19.0000,-69.0000,0,1,485,1165,396,284
109773293,15834,-0.0361,0.0190,1.0225,0.1831,0.2441,-0.0610,2.0000,-19.0000,-69.0000,0,1,503,1174,397,284
109778286,15835,-0.0361,0.0190,1.0215,0.1831,0.1221,-0.1221,2.0000,-19.0000,-69.0000,0,1,489,1175,395,284
109783287,15836,-0.0371,0.0190,1.0205,0.1221,0.1831,-0.1831,2.0000,-19.0000,-69.0000,0,1,462,1170,424,284
109788292,15837,-0.0376,0.0176,1.0200,0.1831,0.2441,-0.2441,2.0000,-19.0000,-69.0000,0,1,462,1176,413,284
109793291,15838,-0.0366,0.0161,1.0195,0.1831,0.1221,-0.1831,2.0000,-19.0000,-69.0000,0,1,463,1174,408,284
109798293,15839,-0.0356,0.0161,1.0205,0.2441,0.1221,-0.2441,2.0000,-19.0000,-69.0000,0,1,463,1177,437,284
109803290,15840,-0.0361,0.0186,1.0220,0.2441,0.1831,-0.3662,2.0000,-19.0000,-69.0000,0,1,463,1205,414,284
109808290,15841,-0.0361,0.0205,1.0215,0.2441,0.1221,-0.3662,2.0000,-19.0000,-69.0000,0,1,462,1177,435,284
109813293,15842,-0.0356,0.0210,1.0200,0.2441,0.1831,-0.2441,2.0000,-19.0000,-69.0000,0,1,462,1090,419,284
109818287,15843,-0.0366,0.0190,1.0190,0.3052,0.1221,-0.2441,5.0000,-20.0000,-72.0000,1,1,462,1203,413,284
109823294,15844,-0.0376,0.0181,1.0195,0.1831,0.0000,-0.2441,5.0000,-20.0000,-72.0000,0,1,463,1158,771,284
109828292,15845,-0.0366,0.0176,1.0215,0.1831,0.0610,-0.1831,5.0000,-20.0000,-72.0000,0,1,463,1060,396,284
109833289,15846,-0.0356,0.0171,1.0225,0.1831,0.0610,-0.3052,5.0000,-20.0000,-72.0000,0,1,463,1153,396,284
109838289,15847,-0.0356,0.0171,1.0225,0.1831,0.0000,-0.3052,5.0000,-20.0000,-72.0000,0,1,463,1158,396,284
109843290,15848,-0.0366,0.0176,1.0225,0.1831,0.0610,-0.2441,5.0000,-20.0000,-72.0000,0,1,491,1114,396,284
109848289,15849,-0.0366,0.0186,1.0225,0.1831,0.0610,-0.3052,5.0000,-20.0000,-72.0000,0,1,465,1165,396,284
109853290,15850,-0.0361,0.0195,1.0225,0.1221,0.0610,-0.3052,5.0000,-20.0000,-72.0000,0,1,491,1159,397,284
109858286,15851,-0.0352,0.0210,1.0225,0.2441,0.0000,-0.1831,5.0000,-20.0000,-72.0000,0,1,497,1187,396,284
109863293,15852,-0.0356,0.0210,1.0215,0.1831,0.0610,-0.2441,5.0000,-20.0000,-72.0000,0,1,505,1115,396,284
109868286,15853,-0.0361,0.0195,1.0215,0.0610,0.1221,-0.1831,5.0000,-20.0000,-72.0000,0,1,498,1164,396,284
109873286,15854,-0.0366,0.0176,1.0225,0.0610,0.0610,-0.1221,5.0000,-20.0000,-72.0000,0,1,487,1162,396,284
109878289,15855,-0.0371,0.0171,1.0229,0.0000,0.0000,-0.2441,5.0000,-20.0000,-72.0000,0,1,488,1155,396,284
109883293,15856,-0.0371,0.0181,1.0225,0.0000,0.0000,-0.1831,5.0000,-20.0000,-72.0000,0,1,508,1072,395,284
109888291,15857,-0.0366,0.0190,1.0220,0.1221,-0.1221,-0.1221,5.0000,-20.0000,-72.0000,0,1,490,1067,412,284
109893288,15858,-0.0356,0.0195,1.0220,0.0610,-0.0610,-0.1831,5.0000,-20.0000,-72.0000,0,1,490,1155,398,284
109898291,15859,-0.0352,0.0195,1.0215,-0.0610,0.1221,-0.1831,5.0000,-20.0000,-72.0000,0,1,462,1163,396,284
109903290,15860,-0.0352,0.0190,1.0205,-0.0610,0.0610,-0.1831,5.0000,-20.0000,-72.0000,0,1,463,1157,425,284
109908287,15861,-0.0361,0.0186,1.0195,0.1221,0.0610,-0.1831,5.0000,-20.0000,-72.0000,0,1,462,1158,413,284
109913289,15862,-0.0366,0.0181,1.0195,0.1221,0.0000,-0.1831,5.0000,-20.0000,-72.0000,0,1,463,1160,426,284
109918289,15863,-0.0361,0.0176,1.0210,0.0610,-0.0610,-0.2441,4.0000,-18.0000,-64.0000,1,1,463,1112,413,284
109923295,15864,-0.0366,0.0181,1.0215,0.1221,-0.1221,-0.2441,4.0000,-18.0000,-64.0000,0,1,463,1199,779,284
109928293,15865,-0.0366,0.0176,1.0210,0.1221,0.0610,-0.3052,4.0000,-18.0000,-64.0000,0,1,463,1192,437,284
109933291,15866,-0.0366,0.0176,1.0215,0.0610,0.1221,-0.3052,4.0000,-18.0000,-64.0000,0,1,462,1165,407,284
109938294,15867,-0.0352,0.0186,1.0220,0.0000,0.0610,-0.1831,4.0000,-18.0000,-64.0000,0,1,463,1179,396,284
109943303,15868,-0.0342,0.0190,1.0225,0.0610,0.0610,-0.2441,4.0000,-18.0000,-64.0000,0,1,479,1123,396,284
109948290,15869,-0.0347,0.0186,1.0229,0.0000,0.0610,-0.2441,4.0000,-18.0000,-64.0000,0,1,464,1171,397,284
109953286,15870,-0.0361,0.0171,1.0220,-0.0610,0.0610,-0.2441,4.0000,-18.0000,-64.0000,0,1,492,1154,396,284
109958288,15871,-0.0361,0.0161,1.0205,0.0000,0.0610,-0.1831,4.0000,-18.0000,-64.0000,0,1,480,1171,397,284
109963286,15872,-0.0356,0.0151,1.0195,0.0610,-0.0610,-0.2441,4.0000,-18.0000,-64.0000,0,1,499,1130,396,284
109968292,15873,-0.0352,0.0156,1.0200,0.1831,-0.1831,-0.1831,4.0000,-18.0000,-64.0000,0,1,479,1176,396,284
109973287,15874,-0.0352,0.0181,1.0215,0.3052,-0.0610,-0.1221,4.0000,-18.0000,-64.0000,0,1,498,1176,396,284
109978288,15875,-0.0361,0.0200,1.0220,0.2441,0.0610,-0.2441,4.0000,-18.0000,-64.0000,0,1,481,1160,397,284
109983287,15876,-0.0356,0.0190,1.0210,0.2441,0.0610,-0.1831,4.0000,-18.0000,-64.0000,0,1,484,1174,397,284
109988290,15877,-0.0356,0.0181,1.0200,0.3052,0.0610,-0.2441,4.0000,-18.0000,-64.0000,0,1,490,1173,396,284
109993290,15878,-0.0356,0.0181,1.0195,0.2441,0.0000,-0.2441,4.0000,-18.0000,-64.0000,0,1,503,1167,395,284
109998291,15879,-0.0356,0.0176,1.0195,0.2441,0.0000,-0.2441,4.0000,-18.0000,-64.0000,0,1,487,1130,412,284
110003293,15880,-0.0352,0.0176,1.0205,0.3052,-0.0610,-0.2441,4.0000,-18.0000,-64.0000,0,1,463,1130,399,284
110008290,15881,-0.0352,0.0181,1.0215,0.3662,-0.0610,-0.2441,4.0000,-18.0000,-64.0000,0,1,463,1195,415,284
110013291,15882,-0.0356,0.0186,1.0210,0.2441,-0.0610,-0.2441,4.0000,-18.0000,-64.0000,0,1,462,1168,425,284
110018292,15883,-0.0361,0.0195,1.0205,0.1831,0.0000,-0.1831,4.0000,-20.0000,-67.0000,1,1,463,1172,413,284
110023288,15884,-0.0366,0.0200,1.0205,0.2441,0.0000,-0.2441,4.0000,-20.0000,-67.0000,0,1,462,1122,769,284
110028289,15885,-0.0366,0.0195,1.0200,0.2441,0.0000,-0.2441,4.0000,-20.0000,-67.0000,0,1,463,1036,442,284
110033292,15886,-0.0371,0.0176,1.0181,0.2441,-0.0610,-0.2441,4.0000,-20.0000,-67.0000,0,1,463,1017,408,284
110038292,15887,-0.0376,0.0161,1.0166,0.3662,-0.1831,-0.1831,4.0000,-20.0000,-67.0000,0,1,462,1189,432,284
110043286,15888,-0.0366,0.0161,1.0186,0.2441,-0.1831,-0.2441,4.0000,-20.0000,-67.0000,0,1,462,1094,406,284
110048292,15889,-0.0352,0.0186,1.0215,0.3662,-0.1831,-0.1831,4.0000,-20.0000,-67.0000,0,1,462,1161,397,284
110053297,15890,-0.0342,0.0210,1.0229,0.3662,-0.1221,-0.2441,4.0000,-20.0000,-67.0000,0,1,463,1153,396,284
110058317,15891,-0.0347,0.0200,1.0239,0.2441,-0.1831,-0.2441,4.0000,-20.0000,-67.0000,0,1,480,1178,396,284
110063294,15892,-0.0361,0.0181,1.0229,0.3052,-0.1221,-0.1831,4.0000,-20.0000,-67.0000,0,1,464,1191,396,284
110068292,15893,-0.0366,0.0171,1.0220,0.3052,-0.1831,-0.1221,4.0000,-20.0000,-67.0000,0,1,508,1160,396,284
110073287,15894,-0.0352,0.0176,1.0225,0.1831,-0.1221,-0.2441,4.0000,-20.0000,-67.0000,0,1,487,1158,396,284
110078291,15895,-0.0347,0.0176,1.0225,0.2441,0.0000,-0.1831,4.0000,-20.0000,-67.0000,0,1,464,1162,397,284
110083289,15896,-0.0342,0.0181,1.0220,0.2441,0.0000,-0.3662,4.0000,-20.0000,-67.0000,0,1,484,1117,396,284
110088289,15897,-0.0332,0.0190,1.0225,0.1831,-0.0610,-0.3052,4.0000,-20.0000,-67.0000,0,1,487,1115,397,284
110093289,15898,-0.0327,0.0200,1.0215,0.3052,0.0000,-0.1831,4.0000,-20.0000,-67.0000,0,1,490,1161,396,284
110098289,15899,-0.0332,0.0190,1.0200,0.0610,-0.0610,-0.2441,4.0000,-20.0000,-67.0000,0,1,489,1113,397,284
110103294,15900,-0.0342,0.0181,1.0200,0.1221,0.1221,-0.3052,4.0000,-20.0000,-67.0000,0,1,495,1161,395,284
110108289,15901,-0.0361,0.0181,1.0220,0.1831,0.1221,-0.2441,4.0000,-20.0000,-67.0000,0,1,474,1146,412,284
110113287,15902,-0.0361,0.0186,1.0239,0.2441,0.0000,-0.1221,4.0000,-20.0000,-67.0000,0,1,490,1161,412,284
110118289,15903,-0.0347,0.0190,1.0234,0.1221,0.0610,-0.2441,4.0000,-19.0000,-63.0000,1,1,462,1117,430,284
110123290,15904,-0.0342,0.0195,1.0220,0.1221,0.0610,-0.2441,4.0000,-19.0000,-63.0000,0,1,462,1177,767,284
110128286,15905,-0.0342,0.0186,1.0210,0.3052,-0.0610,-0.2441,4.0000,-19.0000,-63.0000,0,1,463,1174,423,284
110133288,15906,-0.0342,0.0181,1.0200,0.2441,0.0000,-0.1831,4.0000,-19.0000,-63.0000,0,1,463,1169,398,284
110138288,15907,-0.0352,0.0186,1.0205,0.3052,0.0610,-0.4272,4.0000,-19.0000,-63.0000,0,1,463,1121,426,284
110143292,15908,-0.0371,0.0186,1.0225,0.3052,-0.0610,-0.3052,4.0000,-19.0000,-63.0000,0,1,463,1086,397,284
110148288,15909,-0.0381,0.0190,1.0244,0.2441,-0.1221,-0.2441,4.0000,-19.0000,-63.0000,0,1,463,1166,423,284
110153287,15910,-0.0376,0.0190,1.0249,0.3052,-0.0610,-0.3052,4.0000,-19.0000,-63.0000,0,1,462,1081,396,284
110158291,15911,-0.0356,0.0200,1.0239,0.3052,-0.0610,-0.3052,4.0000,-19.0000,-63.0000,0,1,462,1084,415,284
110163294,15912,-0.0342,0.0190,1.0234,0.2441,0.1221,-0.1831,4.0000,-19.0000,-63.0000,0,1,463,1188,396,284
110168296,15913,-0.0347,0.0186,1.0229,0.1831,0.0610,-0.3052,4.0000,-19.0000,-63.0000,0,1,479,1168,397,284
110173289,15914,-0.0352,0.0181,1.0210,0.1221,0.1221,-0.3052,4.0000,-19.0000,-63.0000,0,1,464,1213,396,284
110178286,15915,-0.0356,0.0186,1.0205,0.0610,0.0000,-0.2441,4.0000,-19.0000,-63.0000,0,1,500,1192,397,284
110183292,15916,-0.0352,0.0186,1.0210,0.1221,-0.1831,-0.1831,4.0000,-19.0000,-63.0000,0,1,474,1133,397,284
110188287,15917,-0.0347,0.0176,1.0225,0.1221,-0.0610,-0.2441,4.0000,-19.0000,-63.0000,0,1,499,1175,396,284
110193291,15918,-0.0337,0.0176,1.0239,0.1221,-0.0610,-0.3662,4.0000,-19.0000,-63.0000,0,1,480,1173,397,284
110198292,15919,-0.0337,0.0190,1.0234,0.1221,0.0000,-0.3052,4.0000,-19.0000,-63.0000,0,1,476,1176,396,284
110203291,15920,-0.0352,0.0190,1.0225,0.1221,0.0000,-0.1831,4.0000,-19.0000,-63.0000,0,1,475,1126,396,284
110208294,15921,-0.0356,0.0190,1.0220,0.0610,0.0610,-0.2441,4.0000,-19.0000,-63.0000,0,1,496,1129,396,284
110213293,15922,-0.0347,0.0195,1.0215,0.0000,0.0610,-0.2441,4.0000,-19.0000,-63.0000,0,1,490,1178,397,284
110218290,15923,-0.0347,0.0190,1.0215,0.0000,0.1221,-0.2441,5.0000,-18.0000,-67.0000,1,1,505,1132,396,284
110223288,15924,-0.0352,0.0190,1.0215,0.0610,0.0610,-0.1831,5.0000,-18.0000,-67.0000,0,1,487,1126,764,284
110228286,15925,-0.0352,0.0195,1.0220,-0.0610,0.0610,-0.1221,5.0000,-18.0000,-67.0000,0,1,490,1169,412,284
110233291,15926,-0.0356,0.0190,1.0225,-0.0610,0.0610,-0.1831,5.0000,-18.0000,-67.0000,0,1,463,1165,432,284
110238295,15927,-0.0361,0.0181,1.0205,0.0000,0.1831,-0.1831,5.0000,-18.0000,-67.0000,0,1,463,1171,397,284
110243293,15928,-0.0361,0.0166,1.0190,0.0000,0.0000,-0.2441,5.0000,-18.0000,-67.0000,0,1,463,1129,424,284
110248293,15929,-0.0361,0.0161,1.0190,0.2441,-0.0610,-0.1221,5.0000,-18.0000,-67.0000,0,1,463,1077,413,284
110253290,15930,-0.0366,0.0171,1.0186,0.1831,-0.1831,-0.2441,5.0000,-18.0000,-67.0000,0,1,463,1204,424,284
110258287,15931,-0.0361,0.0181,1.0181,0.3052,-0.3662,-0.3052,5.0000,-18.0000,-67.0000,0,1,463,1175,443,284
110263294,15932,-0.0347,0.0190,1.0195,0.3662,-0.1831,-0.2441,5.0000,-18.0000,-67.0000,0,1,463,1162,400,284
110268295,15933,-0.0337,0.0205,1.0215,0.1831,-0.0610,-0.3052,5.0000,-18.0000,-67.0000,0,1,463,1177,426,284
110273286,15934,-0.0337,0.0200,1.0220,0.2441,-0.1221,-0.2441,5.0000,-18.0000,-67.0000,0,1,463,1082,396,284
110278308,15935,-0.0337,0.0186,1.0215,0.3052,-0.1831,-0.2441,5.0000,-18.0000,-67.0000,0,1,462,1163,397,284
110283293,15936,-0.0342,0.0190,1.0215,0.3662,-0.0610,-0.1221,5.0000,-18.0000,-67.0000,0,1,463,1199,397,284
110288287,15937,-0.0352,0.0195,1.0220,0.3052,0.1221,-0.2441,5.0000,-18.0000,-67.0000,0,1,480,1142,396,284
110293289,15938,-0.0361,0.0190,1.0220,0.3052,-0.1221,-0.1831,5.0000,-18.0000,-67.0000,0,1,465,1169,396,284
110298291,15939,-0.0361,0.0186,1.0220,0.4272,-0.1831,-0.2441,5.0000,-18.0000,-67.0000,0,1,508,1199,396,284
110303287,15940,-0.0356,0.0195,1.0220,0.4272,-0.1831,-0.2441,5.0000,-18.0000,-67.0000,0,1,467,1179,396,284
110308290,15941,-0.0352,0.0200,1.0225,0.3052,-0.0610,-0.3052,5.0000,-18.0000,-67.0000,0,1,508,1182,397,284
110313286,15942,-0.0347,0.0200,1.0229,0.3052,0.0000,-0.2441,5.0000,-18.0000,-67.0000,0,1,484,1162,396,284
110318288,15943,-0.0347,0.0190,1.0225,0.3052,-0.3052,-0.1831,6.0000,-20.0000,-65.0000,1,1,491,1124,396,284
110323291,15944,-0.0347,0.0186,1.0229,0.3662,-0.2441,-0.1831,6.0000,-20.0000,-65.0000,0,1,486,1143,793,284
110328294,15945,-0.0347,0.0205,1.0244,0.3662,-0.1831,-0.1831,6.0000,-20.0000,-65.0000,0,1,487,1157,396,284
110333295,15946,-0.0347,0.0215,1.0239,0.2441,-0.1221,-0.1221,6.0000,-20.0000,-65.0000,0,1,485,1156,396,284
110338288,15947,-0.0347,0.0205,1.0229,0.1831,0.0000,-0.2441,6.0000,-20.0000,-65.0000,0,1,508,1146,395,284
110343289,15948,-0.0342,0.0200,1.0225,0.3052,-0.0610,-0.2441,6.0000,-20.0000,-65.0000,0,1,490,1108,413,284
110348293,15949,-0.0337,0.0205,1.0220,0.1221,0.0000,-0.1831,6.0000,-20.0000,-65.0000,0,1,463,1143,426,284
110353290,15950,-0.0342,0.0205,1.0220,0.0610,0.0610,-0.1221,6.0000,-20.0000,-65.0000,0,1,463,1101,414,284
110358289,15951,-0.0352,0.0200,1.0215,0.1831,0.0000,-0.1831,6.0000,-20.0000,-65.0000,0,1,462,1142,403,284
110363293,15952,-0.0356,0.0190,1.0205,0.1831,0.0000,-0.2441,6.0000,-20.0000,-65.0000,0,1,463,1102,439,284
110368288,15953,-0.0352,0.0190,1.0200,0.1831,0.0610,-0.2441,6.0000,-20.0000,-65.0000,0,1,463,1024,402,284
110373295,15954,-0.0347,0.0195,1.0220,0.0610,-0.1221,-0.2441,6.0000,-20.0000,-65.0000,0,1,463,1140,440,284
110378295,15955,-0.0347,0.0195,1.0225,0.1831,-0.1831,-0.2441,6.0000,-20.0000,-65.0000,0,1,463,1174,400,284
110383288,15956,-0.0352,0.0190,1.0220,0.2441,-0.0610,-0.3052,6.0000,-20.0000,-65.0000,0,1,463,1181,424,284
110388293,15957,-0.0347,0.0186,1.0215,0.2441,-0.1831,-0.2441,6.0000,-20.0000,-65.0000,0,1,463,1108,397,284
110393309,15958,-0.0337,0.0181,1.0210,0.2441,-0.1221,-0.2441,6.0000,-20.0000,-65.0000,0,1,462,1152,419,284
110398289,15959,-0.0332,0.0190,1.0215,0.3052,-0.1221,-0.1831,6.0000,-20.0000,-65.0000,0,1,463,1135,397,284
110403320,15960,-0.0337,0.0205,1.0220,0.3052,-0.1221,-0.2441,6.0000,-20.0000,-65.0000,0,1,465,1170,396,284
110408292,15961,-0.0352,0.0210,1.0225,0.2441,0.0000,-0.3052,6.0000,-20.0000,-65.0000,0,1,464,1177,396,284
110413287,15962,-0.0356,0.0215,1.0220,0.2441,-0.0610,-0.1831,6.0000,-20.0000,-65.0000,0,1,508,1099,396,284
110418292,15963,-0.0337,0.0215,1.0225,0.2441,0.0000,-0.2441,6.0000,-20.0000,-65.0000,0,1,491,1154,396,284
110423287,15964,-0.0327,0.0205,1.0215,0.1831,0.0000,-0.2441,5.0000,-19.0000,-69.0000,1,1,463,1107,397,284
110428292,15965,-0.0327,0.0195,1.0225,0.1831,0.0610,-0.2441,5.0000,-19.0000,-69.0000,0,1,492,1027,809,284
110433290,15966,-0.0332,0.0195,1.0239,0.1221,0.0000,-0.1831,5.0000,-19.0000,-69.0000,0,1,488,1179,396,284
110438289,15967,-0.0337,0.0195,1.0244,0.1221,0.1221,-0.1221,5.0000,-19.0000,-69.0000,0,1,490,1130,397,284
110443289,15968,-0.0337,0.0195,1.0239,0.1221,0.1221,-0.1831,5.0000,-19.0000,-69.0000,0,1,492,1167,397,284
110448291,15969,-0.0337,0.0195,1.0229,0.0610,0.0610,-0.1831,5.0000,-19.0000,-69.0000,0,1,501,1171,395,284
110453295,15970,-0.0337,0.0195,1.0225,0.0610,0.1831,-0.1831,5.0000,-19.0000,-69.0000,0,1,482,1204,395,284
110458286,15971,-0.0327,0.0200,1.0220,0.0000,0.1831,-0.1221,5.0000,-19.0000,-69.0000,0,1,490,1173,412,284
110463291,15972,-0.0332,0.0205,1.0210,-0.0610,0.1831,-0.2441,5.0000,-19.0000,-69.0000,0,1,463,1125,437,284
110468289,15973,-0.0342,0.0205,1.0195,0.1221,0.1831,-0.2441,5.0000,-19.0000,-69.0000,0,1,462,1174,396,284
110473293,15974,-0.0347,0.0200,1.0195,0.1831,0.1221,-0.0610,5.0000,-19.0000,-69.0000,0,1,463,1173,424,284
110478286,15975,-0.0342,0.0200,1.0200,0.0000,0.0610,-0.1831,5.0000,-19.0000,-69.0000,0,1,463,1197,399,284
110483289,15976,-0.0347,0.0195,1.0200,0.1221,0.0610,-0.1831,5.0000,-19.0000,-69.0000,0,1,463,1113,426,284
110488290,15977,-0.0356,0.0195,1.0195,0.1221,0.1831,-0.2441,5.0000,-19.0000,-69.0000,0,1,463,1159,397,284
110493289,15978,-0.0366,0.0195,1.0186,0.1831,0.1221,-0.1831,5.0000,-19.0000,-69.0000,0,1,463,1176,407,284
110498290,15979,-0.0366,0.0190,1.0181,0.1221,0.0000,-0.2441,5.0000,-19.0000,-69.0000,0,1,463,1201,439,284
110503287,15980,-0.0356,0.0190,1.0195,0.1831,-0.0610,-0.2441,5.0000,-19.0000,-69.0000,0,1,463,1085,409,284
110508289,15981,-0.0342,0.0195,1.0225,0.3662,-0.0610,-0.2441,5.0000,-19.0000,-69.0000,0,1,463,1206,396,284
110513295,15982,-0.0332,0.0205,1.0244,0.2441,-0.1221,-0.2441,5.0000,-19.0000,-69.0000,0,1,479,1163,397,284
110518289,15983,-0.0337,0.0205,1.0244,0.3052,-0.1831,-0.1831,5.0000,-19.0000,-69.0000,0,1,463,1180,397,284
110523289,15984,-0.0332,0.0215,1.0234,0.3052,-0.0610,-0.2441,6.0000,-18.0000,-65.0000,1,1,491,1177,396,284
110528289,15985,-0.0327,0.0215,1.0220,0.1831,-0.1221,-0.1831,6.0000,-18.0000,-65.0000,0,1,508,1159,783,284
110533286,15986,-0.0332,0.0210,1.0220,0.2441,0.0000,-0.1831,6.0000,-18.0000,-65.0000,0,1,493,1162,396,284
110538293,15987,-0.0327,0.0215,1.0234,0.1221,-0.0610,-0.1221,6.0000,-18.0000,-65.0000,0,1,473,1118,396,284
110543287,15988,-0.0322,0.0215,1.0244,0.0610,-0.0610,-0.0610,6.0000,-18.0000,-65.0000,0,1,489,1155,396,284
110548289,15989,-0.0327,0.0215,1.0244,0.1221,0.0000,-0.1831,6.0000,-18.0000,-65.0000,0,1,492,1160,396,284
110553290,15990,-0.0342,0.0215,1.0234,0.0610,0.0000,-0.2441,6.0000,-18.0000,-65.0000,0,1,488,1116,396,284
110558293,15991,-0.0342,0.0215,1.0225,-0.0610,0.0610,-0.1831,6.0000,-18.0000,-65.0000,0,1,483,1113,397,284
110563293,15992,-0.0332,0.0215,1.0225,0.0610,0.0610,-0.2441,6.0000,-18.0000,-65.0000,0,1,495,1156,396,284
110568288,15993,-0.0322,0.0200,1.0229,0.1831,0.2441,-0.2441,6.0000,-18.0000,-65.0000,0,1,507,1158,395,284
110573293,15994,-0.0322,0.0190,1.0229,0.0610,0.1831,-0.1831,6.0000,-18.0000,-65.0000,0,1,491,1167,412,284
110578291,15995,-0.0337,0.0190,1.0225,0.0610,0.3052,-0.3052,6.0000,-18.0000,-65.0000,0,1,491,1166,398,284
110583288,15996,-0.0342,0.0200,1.0225,-0.0610,0.3052,-0.2441,6.0000,-18.0000,-65.0000,0,1,462,1150,412,284
110588289,15997,-0.0337,0.0200,1.0229,-0.0610,0.3052,-0.1831,6.0000,-18.0000,-65.0000,0,1,462,1153,422,284
110593289,15998,-0.0332,0.0205,1.0229,0.0000,0.3052,-0.1221,6.0000,-18.0000,-65.0000,0,1,463,1156,436,284
110598290,15999,-0.0332,0.0195,1.0220,0.0000,0.3052,-0.1831,6.0000,-18.0000,-65.0000,0,1,463,1101,398,284
110603295,16000,-0.0347,0.0190,1.0220,-0.0610,0.1831,-0.0610,6.0000,-18.0000,-65.0000,0,1,463,1029,426,284
110608288,16001,-0.0352,0.0186,1.0229,-0.0610,0.3052,-0.1831,6.0000,-18.0000,-65.0000,0,1,463,1147,439,284
110613295,16002,-0.0342,0.0181,1.0234,0.0000,0.2441,-0.0610,6.0000,-18.0000,-65.0000,0,1,463,1184,424,284
110618290,16003,-0.0337,0.0186,1.0229,0.0000,0.3052,-0.1831,6.0000,-18.0000,-65.0000,0,1,463,1108,395,284
110623291,16004,-0.0347,0.0186,1.0210,0.0610,0.3052,-0.1221,4.0000,-20.0000,-70.0000,1,1,463,1101,399,284
110628295,16005,-0.0342,0.0186,1.0195,0.0610,0.2441,-0.1221,4.0000,-20.0000,-70.0000,0,1,463,1137,807,284
110633291,16006,-0.0347,0.0190,1.0190,0.0000,0.3052,-0.2441,4.0000,-20.0000,-70.0000,0,1,480,1165,396,284
110638294,16007,-0.0347,0.0195,1.0200,0.0000,0.3052,-0.1831,4.0000,-20.0000,-70.0000,0,1,464,1105,396,284
110643286,16008,-0.0342,0.0200,1.0220,0.0610,0.3662,-0.0610,4.0000,-20.0000,-70.0000,0,1,466,1102,396,284
110648287,16009,-0.0337,0.0210,1.0234,0.0000,0.2441,-0.1831,4.0000,-20.0000,-70.0000,0,1,467,1147,396,284
110653288,16010,-0.0337,0.0220,1.0234,-0.0610,0.3052,-0.2441,4.0000,-20.0000,-70.0000,0,1,505,1107,397,284
110658291,16011,-0.0337,0.0220,1.0225,-0.0610,0.3662,-0.1831,4.0000,-20.0000,-70.0000,0,1,484,1150,396,284
110663287,16012,-0.0342,0.0205,1.0210,-0.1221,0.4883,-0.3052,4.0000,-20.0000,-70.0000,0,1,504,1151,397,284
110668294,16013,-0.0347,0.0190,1.0200,-0.0610,0.4883,-0.3662,4.0000,-20.0000,-70.0000,0,1,487,1140,397,284
110673286,16014,-0.0347,0.0195,1.0205,0.0610,0.2441,-0.1221,4.0000,-20.0000,-70.0000,0,1,485,1148,396,284
110678289,16015,-0.0337,0.0215,1.0205,-0.1221,0.2441,-0.1221,4.0000,-20.0000,-70.0000,0,1,485,1148,396,284
110683286,16016,-0.0342,0.0210,1.0195,-0.0610,0.1831,-0.2441,4.0000,-20.0000,-70.0000,0,1,494,1145,394,284
110688292,16017,-0.0347,0.0200,1.0186,0.0000,0.2441,-0.2441,4.0000,-20.0000,-70.0000,0,1,490,1151,412,284
110693295,16018,-0.0337,0.0200,1.0200,0.1221,0.3052,-0.3052,4.0000,-20.0000,-70.0000,0,1,490,1104,398,284
110698286,16019,-0.0332,0.0200,1.0220,0.0610,0.2441,-0.1831,4.0000,-20.0000,-70.0000,0,1,463,1136,438,284
110703287,16020,-0.0342,0.0205,1.0220,0.0000,0.3052,-0.1831,4.0000,-20.0000,-70.0000,0,1,463,1151,415,284
110708288,16021,-0.0342,0.0210,1.0225,0.0610,0.2441,-0.1221,4.0000,-20.0000,-70.0000,0,1,463,1100,439,284
110713292,16022,-0.0342,0.0205,1.0234,0.0610,0.1831,-0.1831,4.0000,-20.0000,-70.0000,0,1,462,1133,416,284
110718289,16023,-0.0342,0.0205,1.0244,0.0000,0.3052,-0.1831,4.0000,-20.0000,-70.0000,0,1,463,1143,437,284
110723289,16024,-0.0332,0.0210,1.0249,0.0610,0.3052,-0.1831,5.0000,-18.0000,-66.0000,1,1,463,998,394,284
110728287,16025,-0.0327,0.0205,1.0239,-0.0610,0.4272,-0.1831,5.0000,-18.0000,-66.0000,0,1,463,1204,802,284
110733286,16026,-0.0347,0.0200,1.0220,-0.0610,0.3052,-0.1221,5.0000,-18.0000,-66.0000,0,1,463,1089,397,284
110738287,16027,-0.0356,0.0195,1.0205,0.0610,0.2441,-0.1831,5.0000,-18.0000,-66.0000,0,1,463,1159,424,284
110743291,16028,-0.0347,0.0195,1.0200,0.0610,0.3052,-0.1831,5.0000,-18.0000,-66.0000,0,1,463,1211,397,284
110748315,16029,-0.0337,0.0200,1.0200,0.1831,0.3052,-0.2441,5.0000,-18.0000,-66.0000,0,1,480,1144,396,284
110753289,16030,-0.0337,0.0205,1.0220,0.0610,0.3662,-0.2441,5.0000,-18.0000,-66.0000,0,1,465,1177,396,284
110758291,16031,-0.0337,0.0205,1.0229,0.0610,0.2441,-0.1831,5.0000,-18.0000,-66.0000,0,1,483,1179,396,284
110763289,16032,-0.0337,0.0200,1.0225,0.1221,0.2441,-0.1221,5.0000,-18.0000,-66.0000,0,1,474,1182,397,284
110768286,16033,-0.0337,0.0195,1.0195,0.0610,0.3052,-0.1831,5.0000,-18.0000,-66.0000,0,1,504,1172,397,284
110773289,16034,-0.0347,0.0190,1.0181,0.0000,0.1221,-0.1831,5.0000,-18.0000,-66.0000,0,1,485,1177,396,284
110778291,16035,-0.0356,0.0186,1.0195,0.1831,0.0000,-0.1831,5.0000,-18.0000,-66.0000,0,1,486,1157,396,284
110783295,16036,-0.0347,0.0190,1.0210,0.1221,0.0610,-0.1831,5.0000,-18.0000,-66.0000,0,1,487,1139,396,284
110788293,16037,-0.0332,0.0210,1.0215,0.0610,0.0610,-0.2441,5.0000,-18.0000,-66.0000,0,1,502,1174,396,284
110793290,16038,-0.0332,0.0215,1.0215,0.0610,0.0610,-0.2441,5.0000,-18.0000,-66.0000,0,1,499,1175,396,284
110798287,16039,-0.0342,0.0195,1.0210,0.0000,0.1221,-0.3052,5.0000,-18.0000,-66.0000,0,1,474,1205,412,284
110803295,16040,-0.0342,0.0176,1.0210,-0.0610,0.1221,-0.1831,5.0000,-18.0000,-66.0000,0,1,490,1122,412,284
110808288,16041,-0.0347,0.0171,1.0200,0.0000,0.1831,-0.1221,5.0000,-18.0000,-66.0000,0,1,463,1170,398,284
110813292,16042,-0.0352,0.0186,1.0195,0.0000,0.3052,-0.1831,5.0000,-18.0000,-66.0000,0,1,463,1126,396,284
110818291,16043,-0.0347,0.0205,1.0205,0.0610,0.1831,-0.2441,5.0000,-18.0000,-66.0000,0,1,463,1128,425,284
110823287,16044,-0.0342,0.0210,1.0210,0.0000,0.0610,-0.1831,5.0000,-18.0000,-64.0000,1,1,463,1180,439,284
110828292,16045,-0.0342,0.0205,1.0210,0.0610,0.1221,-0.2441,5.0000,-18.0000,-64.0000,0,1,462,1119,790,284
110833294,16046,-0.0347,0.0200,1.0210,0.1221,0.1831,-0.1221,5.0000,-18.0000,-64.0000,0,1,463,1156,439,284
110838294,16047,-0.0342,0.0195,1.0215,0.0610,0.1831,-0.0610,5.0000,-18.0000,-64.0000,0,1,463,1187,415,284
110843295,16048,-0.0342,0.0200,1.0234,0.1221,0.1831,-0.1831,5.0000,-18.0000,-64.0000,0,1,463,1097,440,284
110848304,16049,-0.0347,0.0215,1.0234,0.1221,0.2441,-0.1831,5.0000,-18.0000,-64.0000,0,1,463,1077,419,284
110853291,16050,-0.0342,0.0215,1.0225,0.1221,0.1831,-0.1221,5.0000,-18.0000,-64.0000,0,1,463,1133,396,284
110858295,16051,-0.0337,0.0205,1.0210,0.0610,0.1831,-0.0610,5.0000,-18.0000,-64.0000,0,1,480,1181,397,284
110863291,16052,-0.0342,0.0195,1.0200,0.1221,0.2441,-0.1831,5.0000,-18.0000,-64.0000,0,1,464,1191,396,284
110868287,16053,-0.0347,0.0200,1.0190,0.1221,0.1831,-0.1221,5.0000,-18.0000,-64.0000,0,1,508,1195,396,284
110873293,16054,-0.0342,0.0200,1.0200,0.1831,0.3052,-0.1831,5.0000,-18.0000,-64.0000,0,1,470,1166,397,284
110878291,16055,-0.0342,0.0200,1.0220,0.1831,0.1831,-0.2441,5.0000,-18.0000,-64.0000,0,1,507,1169,397,284
110883294,16056,-0.0342,0.0200,1.0220,0.1831,0.3052,-0.3052,5.0000,-18.0000,-64.0000,0,1,470,1175,396,284
110888286,16057,-0.0347,0.0195,1.0210,0.2441,0.3052,-0.1831,5.0000,-18.0000,-64.0000,0,1,487,1164,397,284
110893291,16058,-0.0342,0.0190,1.0215,0.0610,0.1831,-0.1831,5.0000,-18.0000,-64.0000,0,1,475,1199,396,284
110898286,16059,-0.0337,0.0205,1.0220,0.1831,0.1831,-0.0610,5.0000,-18.0000,-64.0000,0,1,491,1173,396,284
110903291,16060,-0.0327,0.0210,1.0215,0.0610,0.3052,-0.1221,5.0000,-18.0000,-64.0000,0,1,492,1173,396,284
110908288,16061,-0.0332,0.0210,1.0215,0.0000,0.2441,-0.0610,5.0000,-18.0000,-64.0000,0,1,505,1163,395,284
110913292,16062,-0.0347,0.0205,1.0225,-0.1221,0.3662,-0.1831,5.0000,-18.0000,-64.0000,0,1,487,1124,412,284
110918286,16063,-0.0356,0.0195,1.0210,0.0000,0.3662,-0.1831,5.0000,-18.0000,-64.0000,0,1,463,1170,398,284
110923294,16064,-0.0352,0.0195,1.0200,0.1221,0.1831,-0.0610,5.0000,-19.0000,-69.0000,1,1,463,1128,398,284
110928294,16065,-0.0352,0.0200,1.0210,0.1221,0.1831,-0.1221,5.0000,-19.0000,-69.0000,0,1,463,1170,771,284
110933294,16066,-0.0347,0.0215,1.0234,-0.0610,0.1221,-0.1831,5.0000,-19.0000,-69.0000,0,1,462,1163,440,284
110938286,16067,-0.0337,0.0220,1.0234,-0.0610,0.1831,-0.1221,5.0000,-19.0000,-69.0000,0,1,463,1167,399,284
110943293,16068,-0.0332,0.0215,1.0225,0.0000,0.2441,-0.2441,5.0000,-19.0000,-69.0000,0,1,462,1161,439,284
110948288,16069,-0.0337,0.0200,1.0229,0.0000,0.1221,-0.1221,5.0000,-19.0000,-69.0000,0,1,463,1169,400,284
110953292,16070,-0.0342,0.0195,1.0239,-0.0610,0.1831,-0.3052,5.0000,-19.0000,-69.0000,0,1,462,1009,435,284
110958292,16071,-0.0337,0.0195,1.0234,-0.0610,0.2441,-0.2441,5.0000,-19.0000,-69.0000,0,1,463,1246,423,284
110963287,16072,-0.0337,0.0195,1.0220,-0.0610,0.2441,-0.1831,5.0000,-19.0000,-69.0000,0,1,462,1092,416,284
110968293,16073,-0.0337,0.0195,1.0210,-0.1221,0.2441,-0.1221,5.0000,-19.0000,-69.0000,0,1,463,1203,396,284
110973299,16074,-0.0337,0.0200,1.0215,-0.1221,0.3052,-0.2441,5.0000,-19.0000,-69.0000,0,1,480,1184,396,284
110978290,16075,-0.0337,0.0200,1.0220,-0.0610,0.3662,-0.2441,5.0000,-19.0000,-69.0000,0,1,464,1195,396,284
110983295,16076,-0.0332,0.0205,1.0215,-0.0610,0.1831,-0.1831,5.0000,-19.0000,-69.0000,0,1,508,1203,396,284
110988294,16077,-0.0337,0.0205,1.0210,-0.1831,0.2441,-0.1831,5.0000,-19.0000,-69.0000,0,1,471,1177,397,284
110993291,16078,-0.0352,0.0210,1.0210,-0.1831,0.2441,-0.1831,5.0000,-19.0000,-69.0000,0,1,498,1177,397,284
110998286,16079,-0.0352,0.0205,1.0205,-0.1221,0.2441,-0.2441,5.0000,-19.0000,-69.0000,0,1,481,1173,397,284
111003287,16080,-0.0342,0.0205,1.0210,-0.0610,0.3052,-0.1221,5.0000,-19.0000,-69.0000,0,1,486,1174,397,284
111008292,16081,-0.0342,0.0195,1.0200,0.0000,0.3052,-0.1831,5.0000,-19.0000,-69.0000,0,1,483,1191,397,284
111013291,16082,-0.0347,0.0186,1.0200,-0.0610,0.2441,-0.2441,5.0000,-19.0000,-69.0000,0,1,478,1123,397,284
111018286,16083,-0.0356,0.0190,1.0195,0.0000,0.3662,-0.2441,5.0000,-19.0000,-69.0000,0,1,492,1172,397,284
111023290,16084,-0.0356,0.0181,1.0195,0.0610,0.2441,-0.1831,4.0000,-17.0000,-69.0000,1,1,503,1134,395,284
111028291,16085,-0.0342,0.0181,1.0205,0.0000,0.1221,-0.2441,4.0000,-17.0000,-69.0000,0,1,476,1177,781,284
111033292,16086,-0.0332,0.0195,1.0210,0.0000,0.1831,-0.1831,4.0000,-17.0000,-69.0000,0,1,490,1151,398,284
111038287,16087,-0.0337,0.0210,1.0210,0.0000,0.3052,-0.2441,4.0000,-17.0000,-69.0000,0,1,462,1130,439,284
111043289,16088,-0.0347,0.0205,1.0220,0.0000,0.2441,-0.3052,4.0000,-17.0000,-69.0000,0,1,463,1119,411,284
111048286,16089,-0.0356,0.0205,1.0225,0.0610,0.2441,-0.1831,4.0000,-17.0000,-69.0000,0,1,462,1123,438,284
111053291,16090,-0.0356,0.0205,1.0210,0.0000,0.3052,-0.2441,4.0000,-17.0000,-69.0000,0,1,462,1175,414,284
111058289,16091,-0.0352,0.0205,1.0190,0.0610,0.1831,-0.1221,4.0000,-17.0000,-69.0000,0,1,463,1114,440,284
111063288,16092,-0.0352,0.0200,1.0190,0.1221,0.2441,-0.0610,4.0000,-17.0000,-69.0000,0,1,463,1166,398,284
111068294,16093,-0.0347,0.0200,1.0220,0.1831,0.2441,-0.1221,4.0000,-17.0000,-69.0000,0,1,463,1194,433,284
111073287,16094,-0.0337,0.0195,1.0229,0.1831,0.1831,-0.1221,4.0000,-17.0000,-69.0000,0,1,463,1077,396,284
111078312,16095,-0.0342,0.0186,1.0229,0.1831,0.3052,-0.2441,4.0000,-17.0000,-69.0000,0,1,463,1137,423,284
111083289,16096,-0.0347,0.0186,1.0225,0.1831,0.2441,-0.1221,4.0000,-17.0000,-69.0000,0,1,463,1133,396,284
111088321,16097,-0.0342,0.0186,1.0225,0.3052,0.3052,-0.1831,4.0000,-17.0000,-69.0000,0,1,464,1171,396,284
111093294,16098,-0.0337,0.0190,1.0220,0.0000,0.3052,-0.2441,4.0000,-17.0000,-69.0000,0,1,464,1167,396,284
111098294,16099,-0.0332,0.0195,1.0215,0.0610,0.3052,-0.1221,4.0000,-17.0000,-69.0000,0,1,507,1153,396,284
111103291,16100,-0.0337,0.0200,1.0210,0.1831,0.3052,-0.1221,4.0000,-17.0000,-69.0000,0,1,478,1168,396,284
111108293,16101,-0.0347,0.0200,1.0220,0.2441,0.3052,-0.3052,4.0000,-17.0000,-69.0000,0,1,507,1163,397,284
111113290,16102,-0.0347,0.0200,1.0215,0.1831,0.2441,-0.2441,4.0000,-17.0000,-69.0000,0,1,483,1165,396,284
111118286,16103,-0.0332,0.0210,1.0210,-0.0610,0.1831,-0.1831,4.0000,-17.0000,-69.0000,0,1,487,1177,396,284
111123290,16104,-0.0337,0.0215,1.0229,0.0000,0.1831,-0.1831,5.0000,-18.0000,-69.0000,1,1,472,1172,397,284
111128291,16105,-0.0342,0.0210,1.0239,-0.0610,0.2441,-0.1831,5.0000,-18.0000,-69.0000,0,1,489,1131,765,284
111133291,16106,-0.0347,0.0200,1.0229,0.0000,0.2441,-0.1831,5.0000,-18.0000,-69.0000,0,1,504,1173,397,284
111138291,16107,-0.0337,0.0190,1.0215,-0.1221,0.1221,-0.1221,5.0000,-18.0000,-69.0000,0,1,475,1130,412,284
111143292,16108,-0.0327,0.0195,1.0215,0.0000,0.3052,-0.1831,5.0000,-18.0000,-69.0000,0,1,490,1163,412,284
111148294,16109,-0.0332,0.0205,1.0215,-0.1221,0.2441,-0.1831,5.0000,-18.0000,-69.0000,0,1,463,1154,431,284
111153289,16110,-0.0337,0.0205,1.0215,-0.1221,0.2441,-0.1221,5.0000,-18.0000,-69.0000,0,1,463,1174,395,284
111158286,16111,-0.0342,0.0200,1.0215,0.0000,0.3052,-0.1221,5.0000,-18.0000,-69.0000,0,1,463,1166,424,284
111163293,16112,-0.0347,0.0195,1.0220,-0.0610,0.3052,-0.2441,5.0000,-18.0000,-69.0000,0,1,463,1113,439,284
111168294,16113,-0.0342,0.0195,1.0215,-0.1221,0.3052,-0.1831,5.0000,-18.0000,-69.0000,0,1,463,1167,417,284
111173288,16114,-0.0342,0.0200,1.0200,-0.0610,0.2441,-0.1221,5.0000,-18.0000,-69.0000,0,1,463,1159,439,284
111178287,16115,-0.0337,0.0200,1.0195,0.0610,0.3052,-0.1831,5.0000,-18.0000,-69.0000,0,1,462,1193,418,284
111183289,16116,-0.0342,0.0195,1.0195,0.0610,0.1831,-0.0610,5.0000,-18.0000,-69.0000,0,1,463,1114,397,284
111188289,16117,-0.0337,0.0195,1.0210,0.1221,0.3052,-0.1831,5.0000,-18.0000,-69.0000,0,1,462,1079,417,284
111193288,16118,-0.0332,0.0200,1.0220,0.0000,0.3052,-0.1831,5.0000,-18.0000,-69.0000,0,1,463,1167,424,284
111198289,16119,-0.0332,0.0200,1.0215,0.0610,0.2441,-0.1221,5.0000,-18.0000,-69.0000,0,1,480,1125,396,284
111203321,16120,-0.0337,0.0205,1.0215,0.0610,0.1831,-0.3052,5.0000,-18.0000,-69.0000,0,1,464,1171,396,284
111208289,16121,-0.0337,0.0205,1.0225,0.0610,0.2441,-0.2441,5.0000,-18.0000,-69.0000,0,1,463,1191,397,284
111213288,16122,-0.0342,0.0200,1.0225,0.1221,0.3662,-0.1221,5.0000,-18.0000,-69.0000,0,1,465,1202,396,284
111218292,16123,-0.0352,0.0205,1.0220,0.0610,0.4272,-0.1831,5.0000,-18.0000,-69.0000,0,1,497,1166,397,284
111223290,16124,-0.0366,0.0215,1.0215,0.0610,0.3052,-0.1831,4.0000,-18.0000,-68.0000,1,1,474,1173,397,284
111228292,16125,-0.0366,0.0220,1.0215,0.0000,0.3662,-0.3662,4.0000,-18.0000,-68.0000,0,1,475,1091,778,284
111233292,16126,-0.0352,0.0200,1.0210,0.0000,0.1831,-0.1831,4.0000,-18.0000,-68.0000,0,1,477,1136,396,284
111238289,16127,-0.0347,0.0186,1.0205,0.0610,0.2441,-0.3052,4.0000,-18.0000,-68.0000,0,1,497,1131,397,284
111243288,16128,-0.0342,0.0186,1.0210,0.0000,0.3662,-0.2441,4.0000,-18.0000,-68.0000,0,1,503,1174,397,284
111248289,16129,-0.0337,0.0186,1.0195,0.0610,0.2441,-0.1221,4.0000,-18.0000,-68.0000,0,1,495,1129,395,284
111253289,16130,-0.0337,0.0181,1.0190,0.0000,0.1831,-0.1221,4.0000,-18.0000,-68.0000,0,1,477,1175,412,284
111258294,16131,-0.0342,0.0171,1.0195,0.1221,0.0610,-0.1831,4.0000,-18.0000,-68.0000,0,1,490,1125,398,284
111263287,16132,-0.0347,0.0176,1.0210,0.1221,0.1221,-0.1221,4.0000,-18.0000,-68.0000,0,1,463,1172,415,284
111268291,16133,-0.0337,0.0190,1.0220,0.0610,0.1831,-0.0610,4.0000,-18.0000,-68.0000,0,1,462,1163,397,284
111273286,16134,-0.0327,0.0205,1.0225,0.0000,0.1831,-0.1831,4.0000,-18.0000,-68.0000,0,1,463,1173,433,284
111278293,16135,-0.0327,0.0220,1.0215,0.0610,0.2441,-0.1831,4.0000,-18.0000,-68.0000,0,1,463,1126,398,284
111283286,16136,-0.0337,0.0220,1.0205,0.0610,0.1221,-0.1221,4.0000,-18.0000,-68.0000,0,1,463,1179,426,284
111288295,16137,-0.0342,0.0210,1.0205,0.0610,0.1221,-0.0610,4.0000,-18.0000,-68.0000,0,1,463,1167,397,284
111293288,16138,-0.0347,0.0195,1.0220,0.0610,0.2441,-0.0610,4.0000,-18.0000,-68.0000,0,1,463,1194,411,284
111298289,16139,-0.0352,0.0190,1.0229,-0.0610,0.1221,-0.2441,4.0000,-18.0000,-68.0000,0,1,463,1201,423,284
111303292,16140,-0.0342,0.0190,1.0234,-0.1831,0.0610,-0.1831,4.0000,-18.0000,-68.0000,0,1,463,1101,399,284
111308286,16141,-0.0337,0.0195,1.0234,0.1221,0.0610,-0.1831,4.0000,-18.0000,-68.0000,0,1,463,1190,396,284
111313286,16142,-0.0342,0.0200,1.0234,0.0000,0.1221,-0.1831,4.0000,-18.0000,-68.0000,0,1,480,1166,397,284
111318288,16143,-0.0347,0.0190,1.0225,0.0000,0.1221,-0.1831,4.0000,-18.0000,-68.0000,0,1,464,1160,396,284
111323287,16144,-0.0347,0.0186,1.0210,-0.0610,0.1221,-0.2441,5.0000,-17.0000,-67.0000,1,1,499,1130,396,284
111328293,16145,-0.0352,0.0200,1.0190,0.0610,0.2441,-0.2441,5.0000,-17.0000,-67.0000,0,1,491,1156,770,284
111333295,16146,-0.0342,0.0220,1.0205,0.1221,-0.0610,-0.1831,5.0000,-17.0000,-67.0000,0,1,478,1174,397,284
111338286,16147,-0.0312,0.0229,1.0244,0.0610,-0.1221,-0.1221,5.0000,-17.0000,-67.0000,0,1,499,1200,396,284
111343292,16148,-0.0312,0.0215,1.0234,0.0610,0.2441,-0.1831,5.0000,-17.0000,-67.0000,0,1,507,1196,396,284
111348288,16149,-0.0347,0.0190,1.0195,-0.0610,0.2441,-0.0610,5.0000,-17.0000,-67.0000,0,1,501,1202,396,284
111353287,16150,-0.0361,0.0181,1.0171,0.0000,0.2441,-0.1831,5.0000,-17.0000,-67.0000,0,1,484,1174,396,284
111358287,16151,-0.0356,0.0190,1.0176,0.0610,0.1831,-0.2441,5.0000,-17.0000,-67.0000,0,1,484,1127,396,284
111363290,16152,-0.0347,0.0200,1.0215,0.0000,0.1831,-0.2441,5.0000,-17.0000,-67.0000,0,1,497,1176,394,284
111368294,16153,-0.0342,0.0215,1.0239,0.0000,0.2441,-0.1831,5.0000,-17.0000,-67.0000,0,1,483,1127,412,284
111373293,16154,-0.0347,0.0220,1.0234,-0.1221,0.3662,-0.1831,5.0000,-17.0000,-67.0000,0,1,490,1129,398,284
111378290,16155,-0.0361,0.0210,1.0225,-0.1221,0.1831,-0.0610,5.0000,-17.0000,-67.0000,0,1,463,1173,437,284
111383293,16156,-0.0361,0.0200,1.0225,-0.0610,0.2441,-0.1221,5.0000,-17.0000,-67.0000,0,1,463,1169,397,284
111388295,16157,-0.0352,0.0200,1.0220,0.0000,0.1831,-0.1831,5.0000,-17.0000,-67.0000,0,1,463,1169,435,284
111393286,16158,-0.0337,0.0200,1.0215,-0.0610,0.2441,-0.1831,5.0000,-17.0000,-67.0000,0,1,463,1126,439,284
111398287,16159,-0.0337,0.0200,1.0225,-0.1221,0.3052,-0.3052,5.0000,-17.0000,-67.0000,0,1,462,1169,434,284
111403292,16160,-0.0347,0.0190,1.0225,-0.1221,0.2441,-0.3052,5.0000,-17.0000,-67.0000,0,1,463,1150,439,284
111408289,16161,-0.0347,0.0186,1.0225,-0.1221,0.3052,-0.1221,5.0000,-17.0000,-67.0000,0,1,462,1193,415,284
111413290,16162,-0.0342,0.0195,1.0225,-0.1221,0.2441,-0.2441,5.0000,-17.0000,-67.0000,0,1,463,1050,422,284
111418298,16163,-0.0337,0.0210,1.0225,0.0610,0.2441,-0.1831,5.0000,-17.0000,-67.0000,0,1,462,1079,416,284
111423290,16164,-0.0337,0.0215,1.0220,0.0000,0.1831,-0.2441,5.0000,-17.0000,-67.0000,0,1,463,1104,420,284
111428294,16165,-0.0332,0.0205,1.0210,-0.1831,0.2441,-0.3052,4.0000,-17.0000,-68.0000,1,1,480,1128,396,284
111433316,16166,-0.0337,0.0200,1.0210,0.0000,0.3052,-0.1831,4.0000,-17.0000,-68.0000,0,1,464,1177,812,284
111438290,16167,-0.0342,0.0200,1.0215,-0.1221,0.3662,-0.1831,4.0000,-17.0000,-68.0000,0,1,478,1128,396,284
111443291,16168,-0.0342,0.0200,1.0225,0.0000,0.3662,-0.1831,4.0000,-17.0000,-68.0000,0,1,465,1176,396,284
111448290,16169,-0.0347,0.0205,1.0239,-0.0610,0.3662,-0.1831,4.0000,-17.0000,-68.0000,0,1,505,1134,396,284
111453292,16170,-0.0342,0.0200,1.0229,-0.0610,0.3052,-0.1831,4.0000,-17.0000,-68.0000,0,1,469,1183,397,284
111458288,16171,-0.0342,0.0195,1.0215,-0.1221,0.3662,-0.3052,4.0000,-17.0000,-68.0000,0,1,490,1174,397,284
111463292,16172,-0.0342,0.0190,1.0205,-0.1831,0.4272,-0.1221,4.0000,-17.0000,-68.0000,0,1,498,1175,396,284
111468286,16173,-0.0332,0.0195,1.0205,-0.1831,0.4272,-0.0610,4.0000,-17.0000,-68.0000,0,1,474,1179,397,284
111473288,16174,-0.0332,0.0210,1.0210,-0.1831,0.6104,-0.2441,4.0000,-17.0000,-68.0000,0,1,497,1183,396,284
111478292,16175,-0.0342,0.0205,1.0220,-0.1221,0.4272,-0.0610,4.0000,-17.0000,-68.0000,0,1,508,1176,395,284
111483290,16176,-0.0347,0.0200,1.0220,-0.1831,0.4272,-0.0610,4.0000,-17.0000,-68.0000,0,1,487,1173,412,284
111488289,16177,-0.0347,0.0205,1.0210,-0.1831,0.4272,-0.1221,4.0000,-17.0000,-68.0000,0,1,463,1177,398,284
111493290,16178,-0.0337,0.0195,1.0200,-0.1831,0.3662,-0.1831,4.0000,-17.0000,-68.0000,0,1,462,1173,439,284
111498290,16179,-0.0327,0.0181,1.0190,-0.1221,0.5493,-0.1221,4.0000,-17.0000,-68.0000,0,1,463,1183,410,284
111503290,16180,-0.0327,0.0186,1.0190,-0.1831,0.5493,-0.0610,4.0000,-17.0000,-68.0000,0,1,462,1173,439,284
111508290,16181,-0.0337,0.0200,1.0205,-0.1831,0.4883,-0.0610,4.0000,-17.0000,-68.0000,0,1,463,1180,404,284
111513291,16182,-0.0342,0.0205,1.0220,-0.1221,0.5493,-0.1831,4.0000,-17.0000,-68.0000,0,1,462,1173,439,284
111518290,16183,-0.0342,0.0200,1.0220,-0.3052,0.6104,-0.1831,4.0000,-17.0000,-68.0000,0,1,463,1176,397,284
111523291,16184,-0.0337,0.0200,1.0220,-0.1221,0.4883,-0.1221,4.0000,-17.0000,-68.0000,0,1,462,1196,435,284
111528292,16185,-0.0337,0.0205,1.0220,0.0000,0.5493,-0.0610,4.0000,-20.0000,-67.0000,1,1,463,1085,422,284
111533292,16186,-0.0332,0.0205,1.0220,-0.0610,0.6714,-0.1221,4.0000,-20.0000,-67.0000,0,1,463,1115,798,284
111538291,16187,-0.0332,0.0190,1.0210,-0.0610,0.3662,-0.1221,4.0000,-20.0000,-67.0000,0,1,463,1119,396,284
111543303,16188,-0.0327,0.0190,1.0215,-0.1221,0.5493,-0.1221,4.0000,-20.0000,-67.0000,0,1,465,1161,396,284
111548289,16189,-0.0337,0.0200,1.0210,-0.0610,0.5493,-0.1831,4.0000,-20.0000,-67.0000,0,1,471,1191,397,284
111553289,16190,-0.0342,0.0205,1.0200,-0.0610,0.5493,-0.1831,4.0000,-20.0000,-67.0000,0,1,507,1188,397,284
111558290,16191,-0.0347,0.0205,1.0190,0.0000,0.6104,-0.0610,4.0000,-20.0000,-67.0000,0,1,496,1163,397,284
111563293,16192,-0.0356,0.0200,1.0186,0.0000,0.5493,-0.1221,4.0000,-20.0000,-67.0000,0,1,496,1110,396,284
111568286,16193,-0.0361,0.0190,1.0190,0.0000,0.4272,-0.1221,4.0000,-20.0000,-67.0000,0,1,472,1114,396,284
111573291,16194,-0.0352,0.0186,1.0200,-0.0610,0.3662,-0.0610,4.0000,-20.0000,-67.0000,0,1,482,1117,396,284
111578286,16195,-0.0337,0.0200,1.0215,0.1831,0.4272,-0.0610,4.0000,-20.0000,-67.0000,0,1,497,1158,396,284
111583294,16196,-0.0337,0.0220,1.0229,0.0610,0.3662,-0.1221,4.0000,-20.0000,-67.0000,0,1,505,1163,396,284
111588289,16197,-0.0347,0.0210,1.0229,-0.1221,0.3662,-0.1831,4.0000,-20.0000,-67.0000,0,1,506,1159,395,284
111593286,16198,-0.0347,0.0200,1.0225,-0.0610,0.4272,-0.1221,4.0000,-20.0000,-67.0000,0,1,489,1162,412,284
111598293,16199,-0.0337,0.0205,1.0229,0.0610,0.4883,-0.3052,4.0000,-20.0000,-67.0000,0,1,490,1155,398,284
111603289,16200,-0.0332,0.0220,1.0239,0.0000,0.5493,-0.1831,4.0000,-20.0000,-67.0000,0,1,463,1156,414,284
111608290,16201,-0.0347,0.0229,1.0234,-0.1221,0.5493,-0.1831,4.0000,-20.0000,-67.0000,0,1,463,1122,396,284
111613288,16202,-0.0356,0.0225,1.0239,-0.1831,0.5493,-0.1831,4.0000,-20.0000,-67.0000,0,1,463,1164,437,284
111618291,16203,-0.0356,0.0210,1.0234,-0.2441,0.4272,-0.2441,4.0000,-20.0000,-67.0000,0,1,462,1169,398,284
111623290,16204,-0.0352,0.0205,1.0220,-0.2441,0.4272,-0.2441,4.0000,-20.0000,-67.0000,0,1,463,1167,425,284
111628292,16205,-0.0347,0.0195,1.0220,-0.3662,0.4883,-0.0610,3.0000,-19.0000,-66.0000,1,1,462,1156,439,284
111633294,16206,-0.0347,0.0190,1.0220,-0.4272,0.3662,-0.1831,3.0000,-19.0000,-66.0000,0,1,463,1175,778,284
111638290,16207,-0.0347,0.0200,1.0229,-0.3662,0.4272,-0.1831,3.0000,-19.0000,-66.0000,0,1,463,1206,440,284
111643295,16208,-0.0342,0.0210,1.0229,-0.4272,0.4272,-0.1221,3.0000,-19.0000,-66.0000,0,1,462,1095,397,284
111648294,16209,-0.0342,0.0210,1.0220,-0.3662,0.4272,-0.1221,3.0000,-19.0000,-66.0000,0,1,463,1073,423,284
111653288,16210,-0.0352,0.0205,1.0220,-0.3662,0.4883,-0.0610,3.0000,-19.0000,-66.0000,0,1,479,1170,397,284
111658305,16211,-0.0356,0.0195,1.0215,-0.5493,0.5493,-0.3052,3.0000,-19.0000,-66.0000,0,1,463,1176,396,284
111663289,16212,-0.0347,0.0190,1.0205,-0.4272,0.4883,-0.3052,3.0000,-19.0000,-66.0000,0,1,480,1181,396,284
111668293,16213,-0.0347,0.0195,1.0210,-0.3052,0.4883,-0.0610,3.0000,-19.0000,-66.0000,0,1,491,1173,396,284
111673292,16214,-0.0337,0.0186,1.0229,-0.4883,0.4272,-0.2441,3.0000,-19.0000,-66.0000,0,1,480,1169,396,284
111678286,16215,-0.0322,0.0171,1.0239,-0.3662,0.4883,-0.1831,3.0000,-19.0000,-66.0000,0,1,501,1179,397,284
111683294,16216,-0.0327,0.0176,1.0234,-0.3662,0.6714,-0.0610,3.0000,-19.0000,-66.0000,0,1,506,1180,396,284
111688286,16217,-0.0342,0.0186,1.0215,-0.3662,0.5493,-0.1221,3.0000,-19.0000,-66.0000,0,1,501,1178,397,284
111693288,16218,-0.0361,0.0186,1.0200,-0.3052,0.4883,-0.1831,3.0000,-19.0000,-66.0000,0,1,486,1175,397,284
111698286,16219,-0.0376,0.0186,1.0190,-0.2441,0.5493,-0.1831,3.0000,-19.0000,-66.0000,0,1,483,1175,396,284
111703286,16220,-0.0366,0.0186,1.0190,-0.3662,0.4883,-0.1831,3.0000,-19.0000,-66.0000,0,1,499,1181,395,284
