t_us, seq, ax, ay, az, gx, gy, gz, valid, t_imu_us, t_serial_us, missed
62672689,10,-0.0142,-0.0161,1.0195,0.0000,0.1221,-0.2441,1,505,776,0
62677687,11,-0.0146,-0.0171,1.0205,-0.0610,0.1831,-0.3662,1,483,780,0
62682687,12,-0.0142,-0.0176,1.0220,0.0000,0.2441,-0.2441,1,493,844,0
62687682,13,-0.0132,-0.0181,1.0229,0.0610,0.3052,-0.1221,1,466,827,0
62692690,14,-0.0132,-0.0181,1.0234,0.0610,0.1221,-0.3662,1,466,862,0
62697688,15,-0.0137,-0.0171,1.0220,0.0000,0.0610,-0.2441,1,465,868,0
62702684,16,-0.0142,-0.0166,1.0205,-0.0610,0.2441,-0.1831,1,466,822,0
62707686,17,-0.0146,-0.0166,1.0210,-0.1221,0.2441,-0.2441,1,466,875,0
62712682,18,-0.0146,-0.0166,1.0229,-0.0610,0.2441,-0.2441,1,466,875,0
62717688,19,-0.0142,-0.0166,1.0249,-0.1221,0.1831,-0.2441,1,466,880,0
62722691,20,-0.0142,-0.0166,1.0244,-0.1831,0.1221,-0.3052,1,466,877,0
62727688,21,-0.0137,-0.0161,1.0225,-0.2441,0.1831,-0.2441,1,466,871,0
62732684,22,-0.0142,-0.0161,1.0210,-0.1831,0.2441,-0.2441,1,466,879,0
62737685,23,-0.0142,-0.0176,1.0200,-0.1831,0.2441,-0.3052,1,483,876,0
62742691,24,-0.0137,-0.0181,1.0210,-0.3052,0.2441,-0.3052,1,491,868,0
62747689,25,-0.0132,-0.0181,1.0229,-0.2441,0.1831,-0.2441,1,502,850,0
62752685,26,-0.0127,-0.0181,1.0239,-0.2441,0.3052,-0.4272,1,478,873,0
62757683,27,-0.0127,-0.0176,1.0225,-0.1831,0.2441,-0.3662,1,466,840,0
62762689,28,-0.0137,-0.0161,1.0210,-0.1831,0.2441,-0.3052,1,489,844,0
62767687,29,-0.0137,-0.0146,1.0215,-0.0610,0.1221,-0.2441,1,484,795,0
62772689,30,-0.0137,-0.0146,1.0229,-0.1831,0.1831,-0.4272,1,486,823,0
62777683,31,-0.0132,-0.0151,1.0234,-0.2441,0.2441,-0.3662,1,486,859,0
62782691,32,-0.0122,-0.0156,1.0234,-0.1221,0.1831,-0.3052,1,489,834,0
62787689,33,-0.0122,-0.0171,1.0225,-0.1221,0.1221,-0.3052,1,502,825,0
62792685,34,-0.0127,-0.0181,1.0210,-0.1221,0.3052,-0.3052,1,493,832,0
62797685,35,-0.0132,-0.0171,1.0210,0.0000,0.2441,-0.1831,1,466,854,0
62802682,36,-0.0127,-0.0161,1.0215,0.0000,0.1221,-0.0610,1,466,823,0
62807687,37,-0.0117,-0.0161,1.0215,0.0610,0.1221,-0.1221,1,465,822,0
62812689,38,-0.0122,-0.0166,1.0215,0.1221,0.1831,-0.2441,1,465,866,0
62817684,39,-0.0127,-0.0166,1.0220,0.1831,0.1831,-0.1221,1,466,875,0
62822683,40,-0.0127,-0.0161,1.0220,0.0610,0.2441,-0.1221,1,466,873,0
62827688,41,-0.0132,-0.0161,1.0205,0.0610,0.3052,-0.1221,1,466,870,0
62832689,42,-0.0156,-0.0171,1.0205,0.1831,0.2441,-0.1221,1,466,866,0
62837685,43,-0.0166,-0.0195,1.0205,0.1831,0.1831,-0.1831,1,466,871,0
62842684,44,-0.0156,-0.0200,1.0210,0.1831,0.3052,-0.1221,1,466,881,0
62847699,45,-0.0146,-0.0195,1.0220,0.1221,0.1831,-0.1831,1,483,863,0
62852691,46,-0.0156,-0.0200,1.0220,0.1221,0.2441,-0.0610,1,466,873,0
62857684,47,-0.0171,-0.0186,1.0210,0.1831,0.1831,-0.0610,1,494,856,0
62862685,48,-0.0166,-0.0166,1.0215,0.1221,0.1221,-0.1221,1,487,881,0
62867686,49,-0.0156,-0.0156,1.0215,0.0610,0.3052,-0.2441,1,466,837,0
62872688,50,-0.0151,-0.0161,1.0215,0.1221,0.2441,-0.1221,1,491,847,0
62877683,51,-0.0146,-0.0176,1.0215,0.0610,0.1221,-0.0610,1,494,796,0
62882689,52,-0.0146,-0.0186,1.0215,0.0000,0.2441,-0.1831,1,481,839,0
62887687,53,-0.0146,-0.0190,1.0210,0.0000,0.2441,-0.3662,1,478,783,0
62892688,54,-0.0146,-0.0176,1.0200,0.0610,0.1831,-0.1831,1,497,782,0
62897690,55,-0.0142,-0.0161,1.0200,-0.0610,0.3052,-0.2441,1,505,826,0
62902688,56,-0.0142,-0.0156,1.0205,-0.0610,0.3052,-0.2441,1,494,839,0
62907686,57,-0.0146,-0.0156,1.0220,-0.0610,0.2441,-0.3052,1,466,868,0
62912686,58,-0.0146,-0.0166,1.0239,0.0000,0.2441,-0.3052,1,466,871,0
62917691,59,-0.0137,-0.0161,1.0234,-0.0610,0.2441,-0.3052,1,466,830,0
62922690,60,-0.0132,-0.0161,1.0225,-0.0610,0.2441,-0.3052,1,466,873,0
62927685,61,-0.0137,-0.0171,1.0210,0.0000,0.1831,-0.2441,1,466,869,0
62932690,62,-0.0142,-0.0181,1.0210,-0.1221,0.2441,-0.3662,1,466,823,0
62937684,63,-0.0142,-0.0186,1.0225,-0.1831,0.1221,-0.3052,1,466,867,0
62942689,64,-0.0146,-0.0186,1.0234,-0.1221,0.0610,-0.3052,1,465,867,0
62947701,65,-0.0151,-0.0181,1.0220,-0.0610,0.1831,-0.3052,1,465,868,0
62952689,66,-0.0151,-0.0171,1.0205,0.0000,0.3052,-0.3052,1,466,867,0
62957682,67,-0.0137,-0.0171,1.0205,0.0610,0.1221,-0.2441,1,484,807,0
62962689,68,-0.0127,-0.0171,1.0225,0.0000,0.1221,-0.2441,1,491,855,0
62967689,69,-0.0137,-0.0171,1.0244,0.0000,0.2441,-0.2441,1,484,846,0
62972688,70,-0.0146,-0.0171,1.0239,-0.0610,0.3052,-0.3662,1,494,750,0
62977683,71,-0.0132,-0.0171,1.0225,0.0610,0.3052,-0.2441,1,472,793,0
62982685,72,-0.0137,-0.0171,1.0205,0.0000,0.1831,-0.3662,1,499,843,0
62987682,73,-0.0142,-0.0161,1.0190,0.1221,0.1831,-0.2441,1,477,798,0
62992689,74,-0.0137,-0.0156,1.0195,0.0610,0.2441,-0.2441,1,484,847,0
62997683,75,-0.0142,-0.0161,1.0215,0.0000,0.3052,-0.2441,1,499,828,0
63002687,76,-0.0151,-0.0176,1.0234,0.0000,0.2441,-0.2441,1,490,777,0
63007688,77,-0.0146,-0.0190,1.0234,-0.1221,0.2441,-0.3052,1,507,785,0
63012688,78,-0.0151,-0.0181,1.0225,-0.1221,0.3052,-0.3052,1,493,845,0
63017685,79,-0.0156,-0.0161,1.0215,-0.0610,0.2441,-0.3052,1,465,860,0
63022684,80,-0.0146,-0.0156,1.0215,-0.0610,0.1831,-0.2441,1,466,871,0
63027687,81,-0.0127,-0.0166,1.0220,-0.0610,0.1221,-0.1221,1,466,877,0
63032688,82,-0.0127,-0.0181,1.0215,0.0000,0.2441,-0.2441,1,466,864,0
63037688,83,-0.0132,-0.0190,1.0210,-0.0610,0.1831,-0.1831,1,466,827,0
63042687,84,-0.0137,-0.0181,1.0200,-0.0610,0.1831,-0.2441,1,466,872,0
63047684,85,-0.0137,-0.0161,1.0195,-0.0610,0.2441,-0.2441,1,466,868,0
63052687,86,-0.0137,-0.0151,1.0200,-0.1221,0.1831,-0.2441,1,466,877,0
63057703,87,-0.0137,-0.0161,1.0215,-0.1221,0.2441,-0.3052,1,466,873,0
63062689,88,-0.0137,-0.0166,1.0229,0.0000,0.1221,-0.2441,1,466,869,0
63067682,89,-0.0127,-0.0161,1.0234,0.0610,0.1221,-0.2441,1,484,817,0
63072687,90,-0.0117,-0.0161,1.0225,0.0000,0.1831,-0.1221,1,492,860,0
63077688,91,-0.0132,-0.0151,1.0205,0.0000,0.1221,-0.1831,1,490,851,0
63082690,92,-0.0151,-0.0151,1.0200,0.1221,0.3662,-0.2441,1,490,740,0
63087690,93,-0.0146,-0.0166,1.0205,0.0610,0.3052,-0.1831,1,466,852,0
63092687,94,-0.0132,-0.0181,1.0220,0.0000,0.1221,-0.1221,1,489,834,0
63097684,95,-0.0132,-0.0176,1.0239,0.0000,0.3052,-0.1831,1,479,768,0
63102684,96,-0.0137,-0.0161,1.0244,0.1221,0.2441,-0.2441,1,505,777,0
63107683,97,-0.0142,-0.0156,1.0244,0.1221,0.1221,-0.1221,1,480,828,0
63112689,98,-0.0132,-0.0151,1.0234,0.0000,0.1831,-0.2441,1,508,818,0
63117688,99,-0.0127,-0.0151,1.0215,0.0610,0.1831,-0.1831,1,488,802,0
63122687,100,-0.0127,-0.0161,1.0225,0.0610,0.1221,-0.0610,1,466,844,0
63127688,101,-0.0127,-0.0166,1.0234,-0.0610,0.1831,-0.1831,1,466,864,0
63132684,102,-0.0137,-0.0176,1.0234,0.0000,0.1221,-0.2441,1,466,878,0
63137684,103,-0.0161,-0.0171,1.0220,0.0610,0.1221,-0.2441,1,466,827,0
63142683,104,-0.0156,-0.0166,1.0210,0.0000,0.2441,-0.2441,1,466,869,0
63147685,105,-0.0137,-0.0171,1.0200,-0.0610,0.3052,-0.3052,1,466,830,0
63152691,106,-0.0122,-0.0176,1.0200,-0.1221,0.3052,-0.3662,1,466,861,0
63157689,107,-0.0122,-0.0176,1.0210,-0.0610,0.2441,-0.1831,1,466,869,0
63162688,108,-0.0122,-0.0181,1.0220,0.0000,0.2441,-0.1831,1,466,874,0
63167689,109,-0.0127,-0.0181,1.0220,-0.0610,0.2441,-0.2441,1,466,828,0
63172711,110,-0.0127,-0.0166,1.0225,-0.0610,0.1831,-0.2441,1,483,870,0
63177684,111,-0.0132,-0.0161,1.0225,0.1221,0.2441,-0.1831,1,483,874,0
63182687,112,-0.0142,-0.0176,1.0210,0.0000,0.1831,-0.2441,1,497,863,0
63187687,113,-0.0151,-0.0195,1.0205,-0.1831,0.2441,-0.1831,1,465,740,0
63192687,114,-0.0156,-0.0195,1.0215,-0.0610,0.2441,-0.1831,1,500,896,0
63197682,115,-0.0156,-0.0186,1.0210,0.0610,0.1221,-0.1831,1,481,854,0
63202682,116,-0.0151,-0.0176,1.0200,0.0610,0.1831,-0.1221,1,491,792,0
63207689,117,-0.0142,-0.0171,1.0190,-0.0610,0.3052,-0.3052,1,492,822,0
63212685,118,-0.0142,-0.0166,1.0195,-0.0610,0.2441,-0.1831,1,489,813,0
63217686,119,-0.0142,-0.0161,1.0215,-0.0610,0.0610,-0.2441,1,489,831,0
63222684,120,-0.0137,-0.0166,1.0229,-0.0610,0.1221,-0.3052,1,502,825,0
63227685,121,-0.0142,-0.0176,1.0229,0.0610,0.1831,-0.1221,1,493,837,0
63232690,122,-0.0151,-0.0181,1.0220,0.0000,0.1831,-0.1221,1,465,868,0
63237690,123,-0.0151,-0.0181,1.0205,0.0610,0.1831,-0.1221,1,466,823,0
63242689,124,-0.0137,-0.0176,1.0200,0.0610,0.2441,-0.1831,1,466,868,0
63247687,125,-0.0137,-0.0171,1.0210,0.0000,0.1831,-0.2441,1,466,871,0
63252687,126,-0.0142,-0.0176,1.0229,0.1221,0.0610,-0.1221,1,466,824,0
63257688,127,-0.0142,-0.0186,1.0234,0.0610,0.3052,-0.1221,1,466,866,0
63262688,128,-0.0137,-0.0186,1.0229,-0.0610,0.3662,-0.3052,1,466,865,0
63267687,129,-0.0137,-0.0161,1.0244,-0.0610,0.3052,-0.3052,1,466,870,0
63272689,130,-0.0132,-0.0146,1.0239,-0.0610,0.3052,-0.2441,1,466,868,0
63277683,131,-0.0137,-0.0161,1.0215,-0.0610,0.1831,-0.1831,1,466,874,0
63282701,132,-0.0146,-0.0186,1.0205,0.0000,0.1831,-0.2441,1,483,874,0
63287688,133,-0.0151,-0.0195,1.0215,-0.0610,0.2441,-0.2441,1,466,765,0
63292684,134,-0.0137,-0.0195,1.0225,-0.0610,0.2441,-0.2441,1,506,866,0
63297682,135,-0.0122,-0.0190,1.0220,-0.1221,0.1221,-0.1221,1,484,900,0
63302689,136,-0.0122,-0.0181,1.0210,0.0000,0.1831,-0.2441,1,476,833,0
63307686,137,-0.0132,-0.0186,1.0190,0.0000,0.1831,-0.3662,1,493,751,0
63312686,138,-0.0127,-0.0176,1.0186,0.0000,0.1831,-0.1831,1,499,780,0
63317686,139,-0.0122,-0.0171,1.0210,0.0000,0.1831,-0.1831,1,501,807,0
63322689,140,-0.0122,-0.0176,1.0234,0.0000,0.1831,-0.1831,1,505,780,0
63327690,141,-0.0132,-0.0176,1.0234,0.1221,0.1831,-0.1221,1,492,785,0
63332685,142,-0.0142,-0.0171,1.0210,0.0610,0.2441,-0.1831,1,476,822,0
63337689,143,-0.0151,-0.0171,1.0190,0.0610,0.3052,-0.2441,1,493,839,0
63342684,144,-0.0156,-0.0176,1.0190,0.0610,0.1221,-0.2441,1,466,868,0
63347690,145,-0.0146,-0.0176,1.0205,0.0610,0.1831,-0.2441,1,466,868,0
63352684,146,-0.0146,-0.0176,1.0220,0.0610,0.2441,-0.1831,1,466,876,0
63357685,147,-0.0156,-0.0181,1.0229,0.0000,0.2441,-0.2441,1,466,875,0
63362687,148,-0.0146,-0.0181,1.0225,-0.0610,0.3052,-0.2441,1,466,830,0
63367682,149,-0.0137,-0.0166,1.0210,-0.1221,0.3052,-0.1831,1,466,869,0
63372685,150,-0.0146,-0.0166,1.0210,-0.1221,0.2441,-0.1831,1,466,868,0
63377686,151,-0.0146,-0.0166,1.0225,-0.1221,0.1831,-0.3052,1,466,877,0
63382702,152,-0.0127,-0.0161,1.0234,-0.0610,0.1221,-0.2441,1,465,873,0
63387684,153,-0.0122,-0.0176,1.0225,-0.0610,0.1221,-0.1831,1,466,874,0
63392716,154,-0.0127,-0.0190,1.0205,-0.0610,0.2441,-0.2441,1,483,870,0
63397687,155,-0.0127,-0.0181,1.0195,0.0610,0.1221,-0.1831,1,465,873,0
63402688,156,-0.0137,-0.0166,1.0186,0.0000,0.2441,-0.1221,1,484,856,0
63407688,157,-0.0142,-0.0156,1.0200,0.1221,0.2441,-0.1221,1,493,758,0
63412687,158,-0.0142,-0.0161,1.0220,0.0000,0.1831,-0.0610,1,484,789,0
63417682,159,-0.0132,-0.0171,1.0229,0.0000,0.3052,-0.1831,1,492,797,0
63422689,160,-0.0132,-0.0176,1.0229,0.0610,0.2441,-0.1221,1,500,797,0
63427685,161,-0.0137,-0.0176,1.0229,0.1831,0.1221,-0.0610,1,499,843,0
63432690,162,-0.0142,-0.0166,1.0234,0.1221,0.2441,-0.1831,1,483,822,0
63437686,163,-0.0156,-0.0166,1.0234,0.1221,0.1221,-0.1221,1,506,829,0
63442690,164,-0.0166,-0.0171,1.0220,0.0610,0.1221,-0.1221,1,493,839,0
63447688,165,-0.0151,-0.0176,1.0210,0.0000,0.1831,-0.1831,1,493,834,0
63452688,166,-0.0137,-0.0181,1.0215,0.1221,0.2441,-0.1831,1,466,827,0
63457684,167,-0.0127,-0.0176,1.0220,0.2441,0.1221,-0.1221,1,465,870,0
63462687,168,-0.0132,-0.0151,1.0215,0.1831,0.2441,-0.1221,1,466,867,0
63467690,169,-0.0142,-0.0137,1.0225,0.1221,0.3052,-0.2441,1,465,873,0
63472685,170,-0.0137,-0.0137,1.0234,0.1221,0.2441,-0.1221,1,466,865,0
63477689,171,-0.0132,-0.0146,1.0239,-0.0610,0.1831,-0.1221,1,466,869,0
63482688,172,-0.0127,-0.0171,1.0229,0.0000,0.2441,-0.1221,1,465,874,0
63487685,173,-0.0127,-0.0190,1.0225,0.1221,0.2441,-0.1221,1,466,824,0
63492686,174,-0.0127,-0.0190,1.0225,0.2441,0.2441,-0.1831,1,483,868,0
63497688,175,-0.0132,-0.0181,1.0215,0.0610,0.2441,-0.1831,1,465,875,0
63502690,176,-0.0137,-0.0176,1.0215,0.0000,0.1831,-0.2441,1,492,859,0
63507682,177,-0.0142,-0.0181,1.0215,0.0610,0.1831,-0.1831,1,468,742,0
63512685,178,-0.0137,-0.0186,1.0225,0.0000,0.1221,-0.1831,1,465,783,0
63517686,179,-0.0127,-0.0181,1.0234,0.0000,0.1221,-0.1831,1,467,776,0
63522691,180,-0.0122,-0.0166,1.0234,0.0610,0.1831,-0.1221,1,476,775,0
63527686,181,-0.0117,-0.0151,1.0220,0.0000,0.1221,-0.2441,1,494,828,0
63532685,182,-0.0122,-0.0146,1.0210,0.0610,0.1831,-0.1831,1,482,779,0
63537686,183,-0.0137,-0.0156,1.0215,0.0610,0.1831,-0.0610,1,502,828,0
63542685,184,-0.0142,-0.0171,1.0225,0.0610,0.1221,-0.3052,1,488,822,0
63547684,185,-0.0151,-0.0195,1.0225,0.0610,0.1831,-0.1221,1,493,832,0
63552685,186,-0.0161,-0.0210,1.0215,0.0000,0.1831,-0.1221,1,466,871,0
63557683,187,-0.0156,-0.0215,1.0200,0.0000,0.1221,-0.3662,1,466,824,0
63562689,188,-0.0142,-0.0205,1.0200,0.0000,0.2441,-0.1831,1,466,823,0
63567689,189,-0.0137,-0.0176,1.0210,0.0610,0.1221,-0.1831,1,466,828,0
63572682,190,-0.0137,-0.0161,1.0220,-0.0610,0.1221,-0.1831,1,466,866,0
63577687,191,-0.0137,-0.0166,1.0239,-0.0610,0.1221,-0.1831,1,466,870,0
63582686,192,-0.0132,-0.0166,1.0249,0.0610,0.1221,-0.2441,1,465,874,0
63587688,193,-0.0137,-0.0161,1.0225,-0.0610,0.2441,-0.3052,1,465,873,0
63592684,194,-0.0142,-0.0166,1.0200,0.0000,0.1831,-0.3052,1,466,870,0
63597697,195,-0.0146,-0.0166,1.0195,0.0000,0.1831,-0.1831,1,483,822,0
63602685,196,-0.0142,-0.0171,1.0210,-0.0610,0.0610,-0.1221,1,466,824,0
63607690,197,-0.0127,-0.0176,1.0225,-0.0610,0.1831,-0.2441,1,504,850,0
63612689,198,-0.0117,-0.0171,1.0220,0.0000,0.1221,-0.2441,1,479,869,0
63617688,199,-0.0122,-0.0171,1.0215,0.0000,0.0610,-0.2441,1,511,744,0
63622686,200,-0.0132,-0.0171,1.0220,-0.0610,0.1831,-0.3662,1,473,777,0
63627687,201,-0.0132,-0.0161,1.0234,0.0610,0.2441,-0.2441,1,502,794,0
63632684,202,-0.0127,-0.0166,1.0249,-0.0610,0.2441,-0.1831,1,484,830,0
63637682,203,-0.0127,-0.0171,1.0244,-0.0610,0.1831,-0.1831,1,493,830,0
63642682,204,-0.0132,-0.0171,1.0225,-0.1221,0.1831,-0.2441,1,494,825,0
63647683,205,-0.0137,-0.0171,1.0215,-0.1221,0.1831,-0.3052,1,493,839,0
63652690,206,-0.0132,-0.0171,1.0205,0.0610,0.2441,-0.1831,1,493,834,0
63657688,207,-0.0127,-0.0176,1.0190,0.1221,0.1831,-0.1831,1,466,871,0
63662691,208,-0.0127,-0.0171,1.0186,0.0610,0.2441,-0.1831,1,466,872,0
63667687,209,-0.0132,-0.0181,1.0205,0.0610,0.1831,-0.1831,1,466,870,0
63672688,210,-0.0137,-0.0190,1.0234,0.0610,0.2441,-0.1831,1,465,871,0
63677683,211,-0.0137,-0.0186,1.0249,0.0610,0.2441,-0.1221,1,466,876,0
63682687,212,-0.0151,-0.0166,1.0254,0.0000,0.1831,-0.1831,1,466,870,0
63687682,213,-0.0161,-0.0142,1.0249,0.1221,0.1831,-0.1831,1,466,833,0
63692685,214,-0.0151,-0.0142,1.0229,0.2441,0.2441,-0.1221,1,466,876,0
63697687,215,-0.0142,-0.0166,1.0205,0.1221,0.1831,-0.2441,1,465,878,0
63702687,216,-0.0132,-0.0186,1.0200,0.1221,0.1831,-0.1831,1,465,873,0
63707688,217,-0.0132,-0.0200,1.0215,0.1831,0.2441,-0.1221,1,492,858,0
63712689,218,-0.0146,-0.0186,1.0220,0.0610,0.2441,-0.1221,1,469,896,0
63717682,219,-0.0151,-0.0171,1.0210,0.1221,0.1831,-0.2441,1,502,895,0
63722683,220,-0.0146,-0.0166,1.0200,0.1831,0.1221,-0.1831,1,467,842,0
63727691,221,-0.0151,-0.0171,1.0220,0.1221,0.1831,-0.0610,1,472,845,0
63732683,222,-0.0151,-0.0176,1.0239,0.0610,0.1221,-0.1831,1,488,821,0
63737683,223,-0.0151,-0.0181,1.0244,0.1221,0.3052,-0.1831,1,501,824,0
63742683,224,-0.0156,-0.0186,1.0229,0.0610,0.1831,-0.0610,1,498,821,0
63747682,225,-0.0156,-0.0181,1.0200,0.1831,0.1831,-0.0610,1,486,825,0
63752686,226,-0.0156,-0.0176,1.0190,0.1221,0.2441,-0.1831,1,493,840,0
63757684,227,-0.0142,-0.0176,1.0200,-0.0610,0.1831,-0.2441,1,466,872,0
63762686,228,-0.0132,-0.0176,1.0220,0.0000,0.1221,-0.2441,1,466,872,0
63767682,229,-0.0132,-0.0181,1.0229,0.0000,0.2441,-0.2441,1,466,824,0
63772687,230,-0.0127,-0.0181,1.0225,0.0610,0.2441,-0.1831,1,465,830,0
63777683,231,-0.0137,-0.0181,1.0220,0.0610,0.3052,-0.1831,1,466,870,0
63782685,232,-0.0146,-0.0161,1.0215,0.0610,0.1831,-0.1831,1,466,865,0
63787690,233,-0.0142,-0.0156,1.0220,-0.1221,0.1221,-0.2441,1,466,879,0
63792692,234,-0.0127,-0.0176,1.0225,0.0000,0.1221,-0.2441,1,466,869,0
63797687,235,-0.0122,-0.0186,1.0225,0.0610,0.1831,-0.1831,1,466,822,0
63802713,236,-0.0127,-0.0186,1.0215,0.0610,0.2441,-0.3052,1,484,872,0
63807689,237,-0.0132,-0.0186,1.0205,0.0610,0.3662,-0.3052,1,466,864,0
63812688,238,-0.0142,-0.0181,1.0200,0.0610,0.1221,-0.1221,1,512,854,0
63817683,239,-0.0146,-0.0171,1.0210,0.0610,0.1831,-0.3052,1,492,885,0
63822687,240,-0.0137,-0.0166,1.0215,0.0610,0.2441,-0.2441,1,507,781,0
63827687,241,-0.0117,-0.0166,1.0234,0.0610,0.1831,-0.1831,1,486,846,0
63832689,242,-0.0117,-0.0161,1.0244,0.0610,0.3052,-0.2441,1,488,847,0
63837689,243,-0.0122,-0.0166,1.0239,0.1221,0.3662,-0.2441,1,492,825,0
63842683,244,-0.0137,-0.0181,1.0220,0.0000,0.2441,-0.1831,1,497,851,0
63847683,245,-0.0151,-0.0186,1.0205,0.0000,0.1221,-0.1831,1,501,778,0
63852688,246,-0.0146,-0.0186,1.0200,-0.0610,0.1831,-0.1831,1,479,799,0
63857687,247,-0.0127,-0.0181,1.0205,-0.1221,0.1831,-0.3662,1,493,845,0
63862687,248,-0.0132,-0.0181,1.0220,-0.1221,0.1221,-0.3662,1,466,870,0
63867689,249,-0.0132,-0.0181,1.0225,-0.0610,0.2441,-0.3052,1,466,866,0
63872690,250,-0.0132,-0.0176,1.0215,-0.0610,0.1831,-0.1831,1,466,865,0
63877682,251,-0.0142,-0.0186,1.0234,-0.0610,0.0610,-0.1831,1,466,873,0
63882689,252,-0.0151,-0.0186,1.0244,0.0000,0.2441,-0.3052,1,466,872,0
63887689,253,-0.0142,-0.0176,1.0215,0.0000,0.2441,-0.2441,1,466,829,0
63892689,254,-0.0137,-0.0171,1.0200,0.0610,0.1831,-0.1221,1,465,829,0
63897708,255,-0.0127,-0.0171,1.0234,0.0000,0.2441,-0.1221,1,466,866,0
63902688,256,-0.0122,-0.0176,1.0234,-0.0610,0.3052,-0.1831,1,466,823,0
63907685,257,-0.0127,-0.0190,1.0200,0.1221,0.3052,-0.1221,1,465,870,0
63912687,258,-0.0132,-0.0190,1.0181,0.0610,0.2441,-0.1221,1,492,849,0
63917690,259,-0.0132,-0.0156,1.0195,0.0610,0.1221,-0.1221,1,465,892,0
63922690,260,-0.0127,-0.0151,1.0229,0.0610,0.1221,-0.1221,1,492,904,0
63927689,261,-0.0137,-0.0161,1.0259,0.0610,0.1831,-0.1221,1,474,846,0
63932686,262,-0.0137,-0.0166,1.0264,0.0610,0.2441,-0.1831,1,479,794,0
63937686,263,-0.0137,-0.0166,1.0254,0.0610,0.3052,-0.2441,1,506,844,0
63942685,264,-0.0146,-0.0171,1.0244,0.0610,0.3052,-0.1831,1,490,822,0
63947688,265,-0.0151,-0.0171,1.0229,0.0000,0.2441,-0.1831,1,491,822,0
63952682,266,-0.0137,-0.0171,1.0220,-0.0610,0.3052,-0.2441,1,502,783,0
63957689,267,-0.0122,-0.0176,1.0210,-0.0610,0.2441,-0.3052,1,493,839,0
63962683,268,-0.0122,-0.0176,1.0215,0.0610,0.3662,-0.3052,1,466,838,0
63967689,269,-0.0127,-0.0166,1.0210,0.1831,0.1831,-0.1831,1,466,867,0
63972683,270,-0.0146,-0.0161,1.0200,0.0000,0.2441,-0.3052,1,466,877,0
63977684,271,-0.0161,-0.0156,1.0210,0.0610,0.2441,-0.2441,1,466,828,0
63982686,272,-0.0161,-0.0151,1.0229,0.0000,0.1221,-0.1831,1,466,876,0
63987689,273,-0.0137,-0.0151,1.0234,0.0610,0.2441,-0.1831,1,466,830,0
63992690,274,-0.0112,-0.0156,1.0234,0.0610,0.2441,-0.1221,1,466,876,0
63997688,275,-0.0112,-0.0156,1.0215,0.0000,0.2441,-0.1831,1,466,874,0
64002682,276,-0.0137,-0.0156,1.0186,0.0610,0.3052,-0.1831,1,466,831,0
64007683,277,-0.0151,-0.0166,1.0181,0.1221,0.1831,-0.1831,1,466,867,0
64012682,278,-0.0151,-0.0186,1.0186,0.1831,0.2441,-0.1831,1,465,872,0
64017682,279,-0.0151,-0.0200,1.0195,0.0610,0.2441,-0.1221,1,492,866,0
64022687,280,-0.0142,-0.0195,1.0220,0.0610,0.1831,-0.1221,1,511,861,0
64027687,281,-0.0137,-0.0186,1.0229,0.1831,0.0610,-0.1831,1,483,894,0
64032682,282,-0.0137,-0.0176,1.0239,0.1831,0.1221,-0.1831,1,509,787,0
64037689,283,-0.0137,-0.0176,1.0239,0.1221,0.1831,-0.0610,1,475,798,0
64042685,284,-0.0142,-0.0181,1.0229,0.0610,0.2441,-0.0610,1,492,822,0
64047682,285,-0.0132,-0.0181,1.0220,0.1221,0.2441,-0.1221,1,501,822,0
64052684,286,-0.0122,-0.0176,1.0215,0.1831,0.1831,-0.1221,1,482,816,0
64057687,287,-0.0117,-0.0171,1.0215,0.0000,0.3052,-0.1221,1,497,825,0
64062688,288,-0.0112,-0.0176,1.0215,0.0610,0.0610,-0.1221,1,480,787,0
64067688,289,-0.0117,-0.0171,1.0215,0.1831,0.1831,-0.1831,1,493,836,0
64072688,290,-0.0127,-0.0156,1.0215,0.1831,0.3052,-0.0610,1,466,873,0
64077684,291,-0.0127,-0.0142,1.0215,0.1831,0.3052,0.0000,1,466,869,0
64082689,292,-0.0122,-0.0146,1.0220,0.1831,0.1831,-0.1221,1,466,823,0
64087691,293,-0.0127,-0.0166,1.0244,0.1221,0.2441,-0.2441,1,466,876,0
64092684,294,-0.0137,-0.0171,1.0249,0.1221,0.1831,-0.1221,1,466,876,0
64097685,295,-0.0142,-0.0161,1.0234,0.0610,0.0610,-0.1221,1,466,867,0
64102689,296,-0.0142,-0.0151,1.0215,0.0000,0.2441,-0.1831,1,466,870,0
64107700,297,-0.0137,-0.0161,1.0200,0.0610,0.3052,-0.2441,1,466,831,0
64112684,298,-0.0142,-0.0186,1.0205,0.0610,0.2441,-0.1831,1,466,868,0
64117699,299,-0.0146,-0.0205,1.0225,0.0000,0.2441,-0.1831,1,465,872,0
64122686,300,-0.0137,-0.0200,1.0229,0.0000,0.3052,-0.3052,1,466,766,0
64127682,301,-0.0137,-0.0181,1.0229,0.0000,0.1831,-0.1831,1,511,843,0
64132684,302,-0.0156,-0.0181,1.0225,-0.1221,0.1831,-0.1831,1,498,742,0
64137690,303,-0.0161,-0.0186,1.0220,-0.1831,0.1831,-0.2441,1,479,849,0
64142682,304,-0.0146,-0.0181,1.0220,-0.0610,0.1221,-0.2441,1,498,840,0
64147685,305,-0.0132,-0.0181,1.0225,-0.0610,0.0610,-0.2441,1,489,822,0
64152688,306,-0.0122,-0.0190,1.0215,0.0000,0.2441,-0.3052,1,493,819,0
64157684,307,-0.0127,-0.0190,1.0210,0.0610,0.2441,-0.2441,1,487,779,0
64162688,308,-0.0146,-0.0176,1.0200,0.0610,0.1831,-0.3052,1,510,823,0
64167686,309,-0.0151,-0.0166,1.0195,-0.0610,0.1221,-0.1831,1,487,839,0
64172688,310,-0.0142,-0.0166,1.0195,-0.1221,0.1831,-0.1831,1,465,847,0
64177682,311,-0.0137,-0.0176,1.0215,-0.1831,0.0610,-0.1831,1,466,877,0
64182683,312,-0.0137,-0.0181,1.0239,-0.1831,0.1831,-0.2441,1,466,873,0
64187685,313,-0.0137,-0.0176,1.0254,-0.0610,0.2441,-0.3662,1,466,877,0
64192683,314,-0.0132,-0.0166,1.0239,0.0000,0.1831,-0.2441,1,465,873,0
64197689,315,-0.0127,-0.0166,1.0225,-0.0610,0.1831,-0.2441,1,466,835,0
64202689,316,-0.0127,-0.0171,1.0210,-0.0610,0.0000,-0.3052,1,466,876,0
64207690,317,-0.0142,-0.0166,1.0210,-0.1221,0.1831,-0.2441,1,466,816,0
64212689,318,-0.0137,-0.0176,1.0220,-0.1221,0.0610,-0.2441,1,466,874,0
64217683,319,-0.0127,-0.0190,1.0229,-0.1831,0.1221,-0.2441,1,466,869,0
64222682,320,-0.0122,-0.0181,1.0229,-0.1831,0.1221,-0.2441,1,484,874,0
64227684,321,-0.0127,-0.0166,1.0215,-0.0610,0.2441,-0.2441,1,465,862,0
64232689,322,-0.0132,-0.0166,1.0205,0.0000,0.1831,-0.2441,1,473,863,0
64237690,323,-0.0137,-0.0171,1.0200,0.0000,0.1831,-0.2441,1,465,745,0
64242682,324,-0.0142,-0.0171,1.0210,0.0000,0.1831,-0.2441,1,498,738,0
64247686,325,-0.0142,-0.0181,1.0225,0.0610,0.1221,-0.1831,1,484,749,0
64252684,326,-0.0146,-0.0181,1.0234,0.0610,0.2441,-0.1221,1,504,836,0
64257687,327,-0.0146,-0.0171,1.0220,0.1221,0.3052,-0.1831,1,488,823,0
64262682,328,-0.0142,-0.0166,1.0205,0.0610,0.2441,-0.1831,1,488,840,0
64267689,329,-0.0142,-0.0171,1.0210,0.0610,0.3052,-0.1831,1,488,828,0
64272683,330,-0.0127,-0.0181,1.0225,0.1221,0.1831,-0.0610,1,507,816,0
64277690,331,-0.0122,-0.0186,1.0234,0.0000,0.0610,-0.1221,1,492,835,0
64282686,332,-0.0137,-0.0176,1.0229,0.0610,0.1221,-0.2441,1,465,795,0
64287683,333,-0.0142,-0.0161,1.0225,0.0610,0.2441,-0.0610,1,466,868,0
64292682,334,-0.0132,-0.0151,1.0225,0.1221,0.2441,-0.1831,1,466,872,0
64297691,335,-0.0122,-0.0156,1.0225,0.0000,0.3052,-0.2441,1,466,873,0
64302690,336,-0.0112,-0.0181,1.0225,-0.1221,0.1831,-0.2441,1,466,827,0
64307689,337,-0.0122,-0.0190,1.0210,0.0000,0.1831,-0.1831,1,466,873,0
64312690,338,-0.0132,-0.0190,1.0210,-0.1221,0.3052,-0.1221,1,466,830,0
64317689,339,-0.0132,-0.0186,1.0215,0.0000,0.1831,-0.3052,1,466,862,0
64322684,340,-0.0142,-0.0171,1.0215,0.1831,0.2441,-0.2441,1,466,823,0
64327685,341,-0.0146,-0.0166,1.0205,0.1831,0.3052,-0.1221,1,466,874,0
64332690,342,-0.0142,-0.0161,1.0195,0.1221,0.1831,-0.0610,1,484,871,0
64337686,343,-0.0146,-0.0171,1.0205,0.1221,0.1831,0.0000,1,465,860,0
64342685,344,-0.0156,-0.0190,1.0225,0.2441,0.2441,-0.1221,1,507,812,0
64347687,345,-0.0156,-0.0200,1.0239,0.1221,0.1221,-0.1831,1,470,899,0
64352690,346,-0.0151,-0.0186,1.0239,0.0000,0.3052,-0.1831,1,496,931,0
64357686,347,-0.0156,-0.0166,1.0229,0.1221,0.3052,-0.2441,1,474,797,0
64362684,348,-0.0156,-0.0156,1.0205,0.1221,0.2441,-0.1831,1,505,797,0
64367691,349,-0.0151,-0.0166,1.0195,0.1221,0.1831,-0.1221,1,487,828,0
64372689,350,-0.0137,-0.0181,1.0200,0.0000,0.3052,-0.2441,1,482,826,0
64377682,351,-0.0122,-0.0186,1.0210,-0.1221,0.1831,-0.3662,1,504,772,0
64382687,352,-0.0127,-0.0181,1.0229,-0.2441,0.2441,-0.3052,1,477,843,0
64387684,353,-0.0146,-0.0176,1.0239,-0.0610,0.1221,-0.2441,1,491,845,0
64392682,354,-0.0161,-0.0166,1.0234,-0.0610,0.1221,-0.1831,1,466,871,0
64397684,355,-0.0156,-0.0161,1.0229,-0.1221,0.1831,-0.3052,1,466,874,0
64402683,356,-0.0137,-0.0161,1.0225,-0.0610,0.2441,-0.3052,1,466,874,0
64407683,357,-0.0132,-0.0166,1.0225,-0.0610,0.1831,-0.1831,1,466,872,0
64412684,358,-0.0132,-0.0171,1.0215,-0.0610,0.0610,-0.1221,1,466,875,0
64417690,359,-0.0132,-0.0176,1.0215,0.0000,0.1221,-0.1831,1,466,862,0
64422684,360,-0.0122,-0.0171,1.0225,0.0610,0.2441,-0.2441,1,466,823,0
64427682,361,-0.0122,-0.0171,1.0234,0.0610,0.1831,-0.2441,1,466,873,0
64432686,362,-0.0127,-0.0176,1.0249,0.1221,0.2441,-0.1831,1,466,875,0
64437686,363,-0.0117,-0.0181,1.0239,0.1221,0.3052,-0.0610,1,483,873,0
64442683,364,-0.0117,-0.0181,1.0225,0.1221,0.3662,-0.1221,1,465,852,0
64447685,365,-0.0137,-0.0176,1.0225,0.1221,0.2441,-0.1221,1,511,854,0
64452686,366,-0.0142,-0.0166,1.0225,0.0610,0.1831,-0.1221,1,474,904,0
64457684,367,-0.0142,-0.0156,1.0225,0.0000,0.3052,-0.1221,1,500,931,0
64462682,368,-0.0142,-0.0151,1.0229,0.0000,0.1221,-0.3052,1,484,772,0
64467686,369,-0.0137,-0.0166,1.0225,-0.1831,0.1831,-0.3052,1,491,775,0
64472689,370,-0.0132,-0.0190,1.0220,-0.0610,0.3052,-0.1221,1,495,826,0
64477689,371,-0.0127,-0.0190,1.0210,0.0610,0.4272,-0.1831,1,472,816,0
64482683,372,-0.0127,-0.0176,1.0220,0.1221,0.3052,-0.2441,1,499,823,0
64487688,373,-0.0137,-0.0161,1.0234,0.1221,0.3052,-0.3052,1,489,835,0
64492687,374,-0.0151,-0.0166,1.0244,0.1831,0.2441,-0.1831,1,493,836,0
64497686,375,-0.0161,-0.0181,1.0234,0.1221,0.2441,-0.2441,1,466,882,0
64502689,376,-0.0171,-0.0195,1.0229,-0.0610,0.3662,-0.2441,1,466,876,0
64507691,377,-0.0171,-0.0200,1.0229,0.0000,0.1831,-0.3052,1,466,876,0
64512686,378,-0.0161,-0.0195,1.0220,-0.0610,0.2441,-0.1831,1,466,823,0
64517690,379,-0.0146,-0.0181,1.0205,0.0000,0.3052,-0.1831,1,466,878,0
64522686,380,-0.0122,-0.0156,1.0195,0.0610,0.1831,-0.2441,1,466,825,0
64527689,381,-0.0122,-0.0151,1.0195,0.1221,0.2441,-0.1831,1,466,878,0
64532693,382,-0.0132,-0.0171,1.0205,0.1221,0.2441,-0.2441,1,465,879,0
64537685,383,-0.0137,-0.0181,1.0220,0.0000,0.2441,-0.2441,1,466,870,0
64542698,384,-0.0142,-0.0176,1.0229,-0.0610,0.2441,-0.2441,1,483,814,0
64547687,385,-0.0151,-0.0166,1.0234,-0.1831,0.1831,-0.3052,1,466,862,0
64552682,386,-0.0146,-0.0171,1.0220,-0.3662,0.1221,-0.3052,1,511,867,0
64557686,387,-0.0142,-0.0181,1.0205,-0.2441,0.0000,-0.3662,1,482,905,0
64562688,388,-0.0137,-0.0190,1.0210,-0.3052,0.0610,-0.3662,1,508,705,0
64567687,389,-0.0137,-0.0190,1.0220,-0.2441,0.2441,-0.3662,1,489,838,0
64572687,390,-0.0132,-0.0181,1.0220,-0.1831,0.2441,-0.3662,1,494,846,0
64577687,391,-0.0127,-0.0166,1.0205,-0.2441,0.1831,-0.3662,1,499,827,0
64582689,392,-0.0137,-0.0156,1.0186,-0.1831,0.1831,-0.3052,1,481,859,0
64587684,393,-0.0132,-0.0166,1.0205,-0.1831,0.3052,-0.2441,1,509,824,0
64592689,394,-0.0137,-0.0171,1.0234,-0.1221,0.3052,-0.3052,1,471,845,0
64597685,395,-0.0142,-0.0176,1.0239,0.0000,0.1831,-0.2441,1,493,833,0
64602691,396,-0.0142,-0.0171,1.0229,0.0610,0.2441,-0.3052,1,466,833,0
64607690,397,-0.0142,-0.0171,1.0225,0.0000,0.2441,-0.2441,1,466,868,0
64612687,398,-0.0137,-0.0161,1.0220,-0.0610,0.2441,-0.2441,1,466,827,0
64617688,399,-0.0132,-0.0151,1.0210,0.1831,0.0610,-0.1831,1,466,876,0
64622687,400,-0.0127,-0.0166,1.0220,0.0610,0.3052,-0.1831,1,466,872,0
64627689,401,-0.0122,-0.0181,1.0234,0.1221,0.3052,-0.1831,1,466,868,0
64632688,402,-0.0112,-0.0181,1.0234,0.1831,0.1831,-0.1831,1,466,871,0
64637682,403,-0.0117,-0.0166,1.0225,0.3662,0.2441,-0.1221,1,466,878,0
64642690,404,-0.0137,-0.0146,1.0210,0.2441,0.3052,-0.1221,1,466,875,0
64647710,405,-0.0142,-0.0146,1.0205,0.1831,0.3052,-0.2441,1,483,867,0
64652685,406,-0.0142,-0.0166,1.0220,0.1221,0.2441,-0.2441,1,466,863,0
64657691,407,-0.0146,-0.0181,1.0229,0.1831,0.2441,-0.1221,1,465,871,0
64662687,408,-0.0142,-0.0186,1.0229,0.1831,0.3662,-0.1221,1,482,900,0
64667687,409,-0.0142,-0.0186,1.0225,0.2441,0.3662,-0.2441,1,510,792,0
64672688,410,-0.0142,-0.0171,1.0210,0.2441,0.3052,-0.1831,1,491,846,0
64677691,411,-0.0127,-0.0156,1.0200,0.0610,0.4272,-0.2441,1,491,821,0
64682691,412,-0.0112,-0.0156,1.0210,0.0610,0.3662,-0.1831,1,493,824,0
64687685,413,-0.0112,-0.0156,1.0229,0.0000,0.3662,-0.1221,1,477,826,0
64692685,414,-0.0127,-0.0156,1.0239,0.0610,0.2441,-0.1221,1,501,782,0
64697689,415,-0.0146,-0.0171,1.0234,0.1221,0.2441,-0.1831,1,491,842,0
64702688,416,-0.0161,-0.0171,1.0225,0.1221,0.1221,-0.1831,1,493,845,0
64707686,417,-0.0156,-0.0176,1.0215,0.0610,0.2441,-0.0610,1,465,867,0
64712683,418,-0.0156,-0.0181,1.0205,0.0000,0.1831,-0.1221,1,466,871,0
64717682,419,-0.0151,-0.0181,1.0205,0.1221,0.3052,-0.1831,1,466,823,0
64722686,420,-0.0142,-0.0181,1.0215,0.1221,0.1831,-0.0610,1,465,868,0
64727685,421,-0.0142,-0.0176,1.0220,0.0610,0.2441,-0.1831,1,466,865,0
64732691,422,-0.0151,-0.0176,1.0205,0.0610,0.1831,-0.1221,1,466,872,0
64737689,423,-0.0142,-0.0176,1.0210,0.1221,0.1221,-0.0610,1,466,871,0
64742689,424,-0.0137,-0.0166,1.0225,0.1831,0.3052,0.0000,1,465,862,0
64747686,425,-0.0137,-0.0151,1.0225,0.1831,0.3052,-0.1221,1,466,825,0
64752691,426,-0.0132,-0.0166,1.0225,0.0610,0.3662,-0.1221,1,483,868,0
64757701,427,-0.0137,-0.0181,1.0229,0.1221,0.2441,-0.0610,1,465,858,0
64762690,428,-0.0146,-0.0181,1.0225,0.1831,0.3052,-0.1221,1,483,856,0
64767691,429,-0.0137,-0.0181,1.0215,0.2441,0.2441,-0.1831,1,511,801,0
64772683,430,-0.0132,-0.0176,1.0205,0.1221,0.1831,-0.1831,1,499,899,0
64777684,431,-0.0137,-0.0156,1.0200,0.1221,0.3052,-0.2441,1,467,842,0
64782690,432,-0.0142,-0.0146,1.0210,0.1221,0.2441,-0.1221,1,491,791,0
64787690,433,-0.0142,-0.0156,1.0229,0.1831,0.1831,-0.1221,1,488,820,0
64792682,434,-0.0137,-0.0166,1.0244,0.1221,0.3662,-0.2441,1,491,828,0
64797685,435,-0.0127,-0.0161,1.0239,0.2441,0.3052,-0.2441,1,494,828,0
64802684,436,-0.0117,-0.0151,1.0225,0.1831,0.1831,-0.1831,1,501,828,0
64807689,437,-0.0117,-0.0161,1.0220,0.1831,0.3052,-0.1221,1,486,849,0
64812682,438,-0.0122,-0.0176,1.0220,0.1831,0.3052,-0.0610,1,493,839,0
64817690,439,-0.0117,-0.0186,1.0229,0.1831,0.2441,-0.1831,1,465,869,0
64822685,440,-0.0122,-0.0181,1.0239,0.1831,0.2441,-0.1221,1,466,878,0
64827686,441,-0.0132,-0.0166,1.0244,0.0610,0.1831,-0.1221,1,466,875,0
64832684,442,-0.0142,-0.0156,1.0244,-0.0610,0.1831,-0.1831,1,466,872,0
64837685,443,-0.0132,-0.0156,1.0234,0.0610,0.2441,-0.1221,1,466,876,0
64842687,444,-0.0127,-0.0146,1.0229,0.0610,0.1831,-0.1831,1,465,872,0
64847690,445,-0.0122,-0.0146,1.0234,0.0610,0.1831,-0.1831,1,466,879,0
64852685,446,-0.0132,-0.0151,1.0229,0.0000,0.2441,-0.0610,1,466,879,0
64857686,447,-0.0146,-0.0166,1.0215,0.0000,0.3052,-0.1831,1,466,829,0
64862686,448,-0.0142,-0.0176,1.0195,0.0610,0.3662,-0.1831,1,484,828,0
64867703,449,-0.0137,-0.0176,1.0190,-0.0610,0.2441,-0.3052,1,465,873,0
64872686,450,-0.0142,-0.0176,1.0205,-0.1221,0.1221,-0.3662,1,477,855,0
64877688,451,-0.0137,-0.0176,1.0220,0.0000,0.1221,-0.2441,1,511,802,0
64882687,452,-0.0132,-0.0186,1.0220,-0.1221,0.3052,-0.2441,1,501,745,0
64887688,453,-0.0132,-0.0190,1.0229,-0.2441,0.1831,-0.1831,1,481,744,0
64892687,454,-0.0137,-0.0186,1.0244,-0.0610,0.3052,-0.2441,1,486,859,0
64897691,455,-0.0142,-0.0181,1.0239,-0.1221,0.3052,-0.3052,1,489,823,0
64902686,456,-0.0142,-0.0171,1.0220,-0.1221,0.1831,-0.3662,1,489,815,0
64907688,457,-0.0142,-0.0176,1.0205,-0.0610,0.2441,-0.2441,1,491,822,0
64912688,458,-0.0151,-0.0186,1.0205,-0.1221,0.1831,-0.1831,1,505,825,0
64917682,459,-0.0156,-0.0190,1.0210,-0.1221,0.2441,-0.1831,1,487,846,0
64922690,460,-0.0156,-0.0186,1.0220,0.0000,0.0610,-0.1831,1,466,844,0
64927686,461,-0.0142,-0.0171,1.0229,-0.0610,0.1221,-0.2441,1,466,823,0
64932686,462,-0.0137,-0.0171,1.0229,0.0610,0.2441,-0.1831,1,466,871,0
64937684,463,-0.0137,-0.0166,1.0225,0.0610,0.1221,-0.1221,1,466,873,0
64942684,464,-0.0137,-0.0166,1.0220,0.0610,0.0610,-0.0610,1,466,865,0
64947687,465,-0.0137,-0.0171,1.0225,0.0610,0.1831,-0.1831,1,465,869,0
64952685,466,-0.0146,-0.0181,1.0234,0.0000,0.1831,-0.1831,1,466,869,0
64957687,467,-0.0161,-0.0176,1.0234,-0.0610,0.3052,-0.1831,1,466,831,0
64962693,468,-0.0161,-0.0171,1.0215,-0.0610,0.2441,-0.3052,1,466,873,0
64967688,469,-0.0146,-0.0171,1.0195,-0.0610,0.1831,-0.2441,1,466,870,0
64972688,470,-0.0132,-0.0181,1.0205,0.0610,0.2441,-0.2441,1,483,876,0
64977682,471,-0.0132,-0.0181,1.0225,0.0610,0.2441,-0.1831,1,465,858,0
64982685,472,-0.0137,-0.0176,1.0229,0.0610,0.1831,-0.2441,1,510,858,0
64987685,473,-0.0142,-0.0171,1.0229,-0.0610,0.0610,-0.3052,1,479,898,0
64992689,474,-0.0151,-0.0171,1.0229,0.0610,0.1221,-0.3662,1,502,931,0
64997690,475,-0.0146,-0.0166,1.0225,0.0000,0.2441,-0.2441,1,477,776,0
65002687,476,-0.0142,-0.0166,1.0220,-0.1221,0.3662,-0.3052,1,480,787,0
65007688,477,-0.0137,-0.0176,1.0225,-0.2441,0.3052,-0.2441,1,488,822,0
65012687,478,-0.0122,-0.0190,1.0234,-0.2441,0.2441,-0.3662,1,485,850,0
65017682,479,-0.0127,-0.0186,1.0229,-0.1221,0.3052,-0.4272,1,499,862,0
65022682,480,-0.0142,-0.0176,1.0215,-0.2441,0.3052,-0.3662,1,492,821,0
65027682,481,-0.0151,-0.0166,1.0205,-0.2441,0.2441,-0.4272,1,488,842,0
65032687,482,-0.0142,-0.0161,1.0210,-0.2441,0.1831,-0.3662,1,466,852,0
65037684,483,-0.0127,-0.0166,1.0225,-0.1831,0.3052,-0.3662,1,466,876,0
65042685,484,-0.0122,-0.0171,1.0225,-0.2441,0.1831,-0.3662,1,466,875,0
65047689,485,-0.0127,-0.0171,1.0234,-0.1831,0.1221,-0.4272,1,466,877,0
65052686,486,-0.0137,-0.0156,1.0239,-0.1221,0.2441,-0.3052,1,466,872,0
65057682,487,-0.0151,-0.0151,1.0229,-0.1831,0.1831,-0.3052,1,466,871,0
65062690,488,-0.0146,-0.0166,1.0210,-0.1831,0.2441,-0.3052,1,466,879,0
65067690,489,-0.0132,-0.0186,1.0190,-0.1221,0.2441,-0.3662,1,466,876,0
65072689,490,-0.0132,-0.0190,1.0190,-0.1831,0.3052,-0.3052,1,466,874,0
65077689,491,-0.0137,-0.0190,1.0215,-0.1831,0.1221,-0.2441,1,483,867,0
65082684,492,-0.0137,-0.0186,1.0225,-0.1221,0.0610,-0.2441,1,466,860,0
65087683,493,-0.0146,-0.0161,1.0220,-0.0610,0.1221,-0.2441,1,510,857,0
65092685,494,-0.0156,-0.0151,1.0215,0.0000,0.2441,-0.3052,1,472,911,0
65097686,495,-0.0156,-0.0166,1.0220,0.0610,0.1831,-0.3052,1,498,705,0
65102689,496,-0.0156,-0.0186,1.0225,0.0000,0.1831,-0.2441,1,479,776,0
65107682,497,-0.0156,-0.0190,1.0234,-0.0610,0.1831,-0.1831,1,482,782,0
65112689,498,-0.0156,-0.0181,1.0239,-0.0610,0.1831,-0.1221,1,474,830,0
65117682,499,-0.0151,-0.0161,1.0225,-0.0610,0.2441,-0.1221,1,489,823,0
65122688,500,-0.0132,-0.0156,1.0210,0.0610,0.3052,-0.1831,1,491,825,0
65127683,501,-0.0122,-0.0166,1.0200,0.0000,0.1831,-0.1221,1,488,836,0
65132685,502,-0.0122,-0.0171,1.0215,-0.0610,0.1831,-0.1831,1,493,796,0
65137685,503,-0.0132,-0.0166,1.0225,0.0000,0.1831,-0.1831,1,466,844,0
65142686,504,-0.0137,-0.0156,1.0229,0.0610,0.2441,-0.1831,1,466,829,0
65147688,505,-0.0137,-0.0142,1.0225,0.0610,0.2441,-0.1221,1,466,876,0
65152690,506,-0.0146,-0.0137,1.0220,-0.0610,0.3052,-0.2441,1,466,868,0
65157688,507,-0.0156,-0.0156,1.0215,0.0610,0.2441,-0.2441,1,466,872,0
65162689,508,-0.0151,-0.0176,1.0220,0.0610,0.2441,-0.1831,1,466,877,0
65167688,509,-0.0146,-0.0195,1.0220,-0.0610,0.1831,-0.1221,1,465,875,0
65172686,510,-0.0142,-0.0190,1.0225,0.1221,0.1221,-0.2441,1,466,875,0
65177682,511,-0.0127,-0.0181,1.0225,0.1221,0.2441,-0.2441,1,465,869,0
65182685,512,-0.0122,-0.0166,1.0220,0.1831,0.3662,-0.1221,1,483,869,0
65187704,513,-0.0127,-0.0156,1.0210,0.2441,0.2441,-0.0610,1,465,876,0
65192685,514,-0.0137,-0.0156,1.0205,0.1221,0.1831,-0.1831,1,466,860,0
65197688,515,-0.0151,-0.0156,1.0220,0.1221,0.1831,-0.2441,1,511,860,0
65202683,516,-0.0156,-0.0161,1.0239,0.1221,0.2441,-0.2441,1,466,930,0
65207687,517,-0.0151,-0.0176,1.0249,0.1221,0.2441,-0.1831,1,493,792,0
65212687,518,-0.0156,-0.0181,1.0249,0.0610,0.3052,-0.1831,1,467,856,0
65217688,519,-0.0156,-0.0181,1.0234,0.0610,0.1831,-0.1221,1,489,821,0
65222685,520,-0.0146,-0.0176,1.0205,0.1831,0.1221,-0.1221,1,490,823,0
65227686,521,-0.0137,-0.0176,1.0181,0.1221,0.1221,0.0000,1,496,822,0
65232687,522,-0.0127,-0.0176,1.0181,0.0610,0.2441,-0.0610,1,504,768,0
65237685,523,-0.0127,-0.0176,1.0195,0.1221,0.1831,-0.1221,1,471,835,0
65242686,524,-0.0132,-0.0176,1.0215,0.1221,0.1221,-0.1831,1,493,838,0
65247686,525,-0.0137,-0.0171,1.0220,0.0000,0.1831,-0.1831,1,466,864,0
65252688,526,-0.0142,-0.0166,1.0220,0.0000,0.3052,-0.1221,1,466,825,0
65257682,527,-0.0151,-0.0156,1.0239,0.1221,0.1831,-0.1831,1,466,821,0
65262685,528,-0.0151,-0.0161,1.0249,0.1221,0.1831,-0.1831,1,466,878,0
65267689,529,-0.0142,-0.0176,1.0244,0.1831,0.2441,-0.2441,1,465,879,0
65272685,530,-0.0137,-0.0181,1.0229,0.2441,0.1831,-0.1221,1,466,880,0
65277682,531,-0.0132,-0.0176,1.0210,0.0000,0.2441,-0.2441,1,466,872,0
65282690,532,-0.0127,-0.0171,1.0195,0.0000,0.1221,-0.0610,1,466,828,0
65287682,533,-0.0127,-0.0166,1.0195,0.0610,0.2441,-0.1221,1,466,820,0
65292688,534,-0.0132,-0.0156,1.0205,0.0000,0.1221,-0.3052,1,483,872,0
65297688,535,-0.0137,-0.0171,1.0210,0.0610,0.2441,-0.2441,1,465,754,0
65302689,536,-0.0137,-0.0186,1.0225,0.0610,0.2441,-0.1831,1,484,857,0
65307685,537,-0.0137,-0.0181,1.0229,0.0610,0.1831,-0.2441,1,511,805,0
65312688,538,-0.0137,-0.0171,1.0220,0.0000,0.1221,-0.2441,1,474,931,0
65317686,539,-0.0142,-0.0171,1.0210,-0.0610,0.1831,-0.2441,1,495,792,0
65322690,540,-0.0137,-0.0186,1.0210,-0.1831,0.3052,-0.3052,1,499,748,0
65327688,541,-0.0122,-0.0190,1.0215,-0.1221,0.2441,-0.2441,1,478,816,0
65332682,542,-0.0122,-0.0181,1.0225,0.0000,0.3052,-0.2441,1,503,828,0
65337686,543,-0.0122,-0.0161,1.0220,-0.0610,0.2441,-0.3662,1,483,775,0
65342685,544,-0.0132,-0.0151,1.0225,-0.1831,0.1221,-0.3662,1,499,830,0
65347688,545,-0.0146,-0.0156,1.0234,0.0000,0.1831,-0.2441,1,490,844,0
65352685,546,-0.0132,-0.0171,1.0234,0.0000,0.1221,-0.2441,1,493,806,0
65357684,547,-0.0117,-0.0171,1.0229,-0.0610,0.1831,-0.2441,1,466,823,0
65362683,548,-0.0122,-0.0176,1.0234,-0.0610,0.1831,-0.2441,1,466,873,0
65367688,549,-0.0137,-0.0181,1.0239,0.1221,0.1221,-0.2441,1,466,879,0
65372682,550,-0.0146,-0.0176,1.0225,0.1831,0.1831,-0.2441,1,466,868,0
65377686,551,-0.0146,-0.0166,1.0220,0.0610,0.2441,-0.2441,1,466,879,0
65382690,552,-0.0137,-0.0166,1.0220,-0.0610,0.2441,-0.1831,1,466,880,0
65387682,553,-0.0137,-0.0171,1.0220,0.0610,0.2441,-0.1831,1,465,875,0
65392689,554,-0.0137,-0.0161,1.0229,0.0610,0.3052,-0.1831,1,466,871,0
65397690,555,-0.0142,-0.0151,1.0239,0.0610,0.1831,-0.0610,1,466,872,0
65402688,556,-0.0142,-0.0146,1.0229,0.1221,0.1831,-0.0610,1,465,874,0
65407688,557,-0.0137,-0.0156,1.0229,0.0610,0.2441,-0.3052,1,466,871,0
65412683,558,-0.0137,-0.0161,1.0225,-0.0610,0.3052,-0.2441,1,485,859,0
65417684,559,-0.0142,-0.0171,1.0225,-0.0610,0.1831,-0.2441,1,511,859,0
65422682,560,-0.0142,-0.0171,1.0229,0.1831,0.2441,-0.1831,1,472,930,0
65427689,561,-0.0137,-0.0156,1.0234,0.0610,0.1221,-0.0610,1,499,811,0
65432685,562,-0.0142,-0.0146,1.0229,0.0000,0.1831,-0.1831,1,472,846,0
65437684,563,-0.0151,-0.0146,1.0220,0.1221,0.1221,-0.1831,1,502,787,0
65442690,564,-0.0151,-0.0161,1.0215,0.0610,0.0610,-0.2441,1,481,825,0
65447684,565,-0.0146,-0.0171,1.0220,-0.0610,0.2441,-0.1831,1,474,827,0
65452686,566,-0.0127,-0.0181,1.0234,0.0610,0.2441,-0.0610,1,506,826,0
65457684,567,-0.0127,-0.0186,1.0234,-0.0610,0.3052,-0.2441,1,492,839,0
65462684,568,-0.0137,-0.0176,1.0220,-0.1221,0.1221,-0.2441,1,488,840,0
65467683,569,-0.0137,-0.0166,1.0210,-0.1221,0.2441,-0.2441,1,493,837,0
65472682,570,-0.0137,-0.0171,1.0200,0.0610,0.2441,-0.3052,1,466,873,0
65477690,571,-0.0132,-0.0171,1.0205,0.1221,0.2441,-0.3052,1,466,865,0
65482689,572,-0.0122,-0.0166,1.0215,-0.0610,0.2441,-0.1831,1,466,865,0
65487682,573,-0.0117,-0.0151,1.0220,-0.0610,0.1831,-0.2441,1,466,877,0
65492682,574,-0.0137,-0.0142,1.0215,0.0000,0.2441,-0.3052,1,466,876,0
65497685,575,-0.0151,-0.0151,1.0205,-0.0610,0.2441,-0.2441,1,466,822,0
65502688,576,-0.0151,-0.0156,1.0205,0.1221,0.0610,-0.3052,1,466,879,0
65507689,577,-0.0132,-0.0161,1.0215,0.0610,0.1221,-0.3052,1,466,867,0
65512689,578,-0.0122,-0.0171,1.0225,0.0610,0.2441,-0.1831,1,466,865,0
65517694,579,-0.0137,-0.0176,1.0234,0.0610,0.1831,-0.1831,1,465,872,0
65522690,580,-0.0142,-0.0186,1.0234,0.1831,0.1221,-0.1831,1,473,863,0
65527686,581,-0.0142,-0.0195,1.0210,0.1221,0.2441,-0.1831,1,510,863,0
65532689,582,-0.0146,-0.0190,1.0190,0.0000,0.2441,-0.1831,1,493,897,0
65537687,583,-0.0151,-0.0176,1.0205,0.0610,0.2441,-0.2441,1,484,710,0
65542684,584,-0.0146,-0.0166,1.0229,0.1221,0.2441,-0.0610,1,482,762,0
65547687,585,-0.0137,-0.0171,1.0239,0.1831,0.1221,-0.1221,1,489,846,0
65552685,586,-0.0132,-0.0176,1.0239,0.0610,0.2441,-0.1831,1,488,819,0
65557690,587,-0.0127,-0.0171,1.0225,0.0000,0.2441,-0.1221,1,475,828,0
65562684,588,-0.0132,-0.0166,1.0205,0.1831,0.1831,-0.1221,1,504,774,0
65567689,589,-0.0146,-0.0166,1.0195,0.0610,0.1831,-0.1221,1,482,844,0
65572684,590,-0.0156,-0.0166,1.0190,0.0610,0.1831,-0.1831,1,476,846,0
65577684,591,-0.0151,-0.0176,1.0205,0.1221,0.1221,-0.1221,1,493,848,0
65582685,592,-0.0132,-0.0176,1.0225,0.0000,0.1221,-0.1831,1,466,865,0
65587689,593,-0.0127,-0.0171,1.0225,0.0000,0.2441,-0.2441,1,466,823,0
65592688,594,-0.0132,-0.0171,1.0215,0.0610,0.1221,-0.1221,1,466,827,0
65597683,595,-0.0132,-0.0171,1.0205,0.0610,0.2441,-0.1831,1,466,862,0
65602689,596,-0.0137,-0.0171,1.0195,-0.0610,0.2441,-0.2441,1,466,872,0
65607688,597,-0.0137,-0.0171,1.0210,-0.1221,0.2441,-0.2441,1,466,874,0
65612685,598,-0.0127,-0.0181,1.0234,-0.1221,0.3052,-0.3662,1,466,869,0
65617696,599,-0.0127,-0.0190,1.0239,-0.0610,0.3052,-0.4272,1,466,867,0
65622683,600,-0.0137,-0.0186,1.0229,-0.1221,0.1831,-0.3662,1,466,872,0
65627682,601,-0.0142,-0.0171,1.0220,-0.1221,0.2441,-0.2441,1,483,874,0
65632702,602,-0.0142,-0.0156,1.0220,-0.1221,0.1831,-0.2441,1,465,859,0
65637689,603,-0.0146,-0.0161,1.0215,-0.1831,0.1831,-0.1831,1,484,862,0
65642685,604,-0.0146,-0.0171,1.0220,-0.1221,0.1221,-0.1221,1,492,872,0
65647689,605,-0.0146,-0.0181,1.0234,-0.1221,0.1221,-0.2441,1,492,932,0
65652686,606,-0.0146,-0.0181,1.0239,0.1221,0.3052,-0.2441,1,492,748,0
65657686,607,-0.0151,-0.0176,1.0239,0.1221,0.1221,-0.1831,1,472,850,0
65662688,608,-0.0156,-0.0166,1.0225,0.0610,0.1831,-0.2441,1,477,825,0
65667688,609,-0.0151,-0.0176,1.0210,0.0000,0.1831,-0.1831,1,480,829,0
65672686,610,-0.0142,-0.0195,1.0215,-0.0610,0.1221,-0.2441,1,496,781,0
65677688,611,-0.0142,-0.0205,1.0220,-0.0610,0.1831,-0.2441,1,509,823,0
65682682,612,-0.0142,-0.0200,1.0210,0.0610,0.2441,-0.2441,1,471,844,0
65687685,613,-0.0132,-0.0186,1.0200,-0.0610,0.2441,-0.1831,1,493,841,0
65692682,614,-0.0127,-0.0171,1.0200,0.0610,0.1831,-0.1831,1,466,842,0
65697685,615,-0.0127,-0.0166,1.0210,0.1221,0.3052,-0.1221,1,466,867,0
65702682,616,-0.0137,-0.0156,1.0220,0.1221,0.1221,-0.0610,1,466,862,0
65707691,617,-0.0142,-0.0151,1.0229,0.1221,0.0610,-0.1831,1,466,865,0
65712683,618,-0.0137,-0.0166,1.0239,0.0000,0.1221,-0.3052,1,466,873,0
65717686,619,-0.0137,-0.0176,1.0234,0.0610,0.3662,-0.3052,1,466,823,0
65722690,620,-0.0137,-0.0176,1.0229,-0.0610,0.3662,-0.2441,1,465,870,0
65727702,621,-0.0137,-0.0176,1.0220,0.0610,0.3052,-0.2441,1,466,875,0
65732685,622,-0.0132,-0.0171,1.0200,0.0000,0.2441,-0.2441,1,466,867,0
65737688,623,-0.0132,-0.0171,1.0200,0.0000,0.1221,-0.3662,1,484,814,0
65742686,624,-0.0127,-0.0176,1.0215,-0.0610,0.1831,-0.1831,1,470,764,0
65747689,625,-0.0127,-0.0176,1.0225,-0.0610,0.3052,-0.2441,1,485,859,0
65752685,626,-0.0137,-0.0161,1.0225,-0.1831,0.3052,-0.2441,1,479,905,0
65757688,627,-0.0142,-0.0156,1.0225,-0.1221,0.1831,-0.2441,1,506,930,0
65762689,628,-0.0137,-0.0166,1.0239,-0.0610,0.1831,-0.2441,1,505,748,0
65767686,629,-0.0142,-0.0176,1.0244,0.0610,0.1221,-0.1831,1,486,812,0
65772688,630,-0.0151,-0.0176,1.0239,-0.0610,0.1831,-0.1221,1,493,823,0
65777689,631,-0.0151,-0.0176,1.0234,0.0610,0.2441,-0.1831,1,494,825,0
65782683,632,-0.0146,-0.0186,1.0229,0.1221,0.1831,-0.2441,1,504,829,0
65787687,633,-0.0146,-0.0190,1.0210,-0.0610,0.2441,-0.2441,1,478,847,0
65792687,634,-0.0137,-0.0181,1.0205,-0.1221,0.1831,-0.1221,1,493,846,0
65797685,635,-0.0132,-0.0171,1.0229,0.0000,0.2441,-0.3052,1,493,837,0
65802687,636,-0.0142,-0.0171,1.0249,-0.1831,0.3662,-0.2441,1,466,824,0
65807683,637,-0.0146,-0.0166,1.0239,-0.0610,0.2441,-0.2441,1,466,878,0
65812683,638,-0.0142,-0.0156,1.0220,0.0000,0.1831,-0.3052,1,466,881,0
65817683,639,-0.0132,-0.0156,1.0225,0.0610,0.1831,-0.1831,1,465,826,0
65822685,640,-0.0132,-0.0171,1.0229,0.0000,0.0610,-0.1831,1,466,874,0
65827690,641,-0.0142,-0.0176,1.0215,-0.1221,0.1831,-0.2441,1,466,825,0
65832686,642,-0.0151,-0.0176,1.0210,0.0000,0.3662,-0.3052,1,466,872,0
65837682,643,-0.0142,-0.0181,1.0220,-0.0610,0.2441,-0.2441,1,466,824,0
65842689,644,-0.0127,-0.0186,1.0229,-0.1221,0.0610,-0.3052,1,483,871,0
65847699,645,-0.0127,-0.0181,1.0215,-0.1221,0.1221,-0.1831,1,465,854,0
65852690,646,-0.0132,-0.0171,1.0205,0.0610,0.1221,-0.2441,1,484,853,0
65857688,647,-0.0137,-0.0166,1.0229,0.0610,0.2441,-0.3052,1,511,800,0
65862684,648,-0.0137,-0.0171,1.0249,-0.0610,0.1831,-0.3052,1,481,930,0
65867683,649,-0.0132,-0.0171,1.0259,-0.1221,0.1831,-0.1831,1,510,802,0
65872689,650,-0.0142,-0.0181,1.0244,0.0610,0.3052,-0.1221,1,474,822,0
65877687,651,-0.0146,-0.0195,1.0229,0.1221,0.3662,-0.1221,1,491,815,0
65882685,652,-0.0142,-0.0200,1.0215,0.0610,0.2441,-0.1831,1,499,827,0
65887682,653,-0.0127,-0.0190,1.0200,0.0610,0.1831,-0.1831,1,491,845,0
65892686,654,-0.0122,-0.0181,1.0190,0.1221,0.3052,-0.1831,1,500,824,0
65897686,655,-0.0117,-0.0181,1.0200,0.1221,0.3052,-0.0610,1,473,839,0
65902688,656,-0.0122,-0.0186,1.0229,0.0000,0.1831,-0.1831,1,493,830,0
65907682,657,-0.0132,-0.0181,1.0244,0.1831,0.0610,-0.1221,1,466,804,0
65912688,658,-0.0146,-0.0166,1.0249,0.1221,0.1831,-0.3052,1,466,867,0
65917688,659,-0.0156,-0.0146,1.0244,0.0000,0.1221,-0.2441,1,466,874,0
65922690,660,-0.0151,-0.0151,1.0225,0.0000,0.3052,-0.2441,1,466,831,0
65927684,661,-0.0142,-0.0176,1.0220,0.1221,0.2441,-0.1831,1,466,828,0
65932683,662,-0.0132,-0.0195,1.0229,0.0610,0.1831,-0.1831,1,466,872,0
65937682,663,-0.0127,-0.0200,1.0229,0.0610,0.2441,-0.2441,1,466,876,0
65942682,664,-0.0127,-0.0186,1.0225,0.1221,0.1831,-0.1831,1,466,874,0
65947687,665,-0.0127,-0.0171,1.0215,0.1221,0.0610,-0.1831,1,466,871,0
65952689,666,-0.0132,-0.0161,1.0210,0.1221,0.1221,-0.1831,1,484,865,0
65957706,667,-0.0137,-0.0156,1.0220,0.0000,0.2441,-0.1221,1,465,856,0
65962683,668,-0.0137,-0.0166,1.0244,0.1221,0.1221,-0.1831,1,477,812,0
65967687,669,-0.0146,-0.0171,1.0249,0.1221,0.1221,-0.1831,1,511,805,0
65972684,670,-0.0137,-0.0166,1.0234,0.0000,0.2441,-0.1831,1,480,931,0
65977689,671,-0.0122,-0.0156,1.0225,0.0610,0.2441,-0.1221,1,510,711,0
65982688,672,-0.0127,-0.0161,1.0215,-0.1221,0.3052,-0.2441,1,484,851,0
65987689,673,-0.0142,-0.0166,1.0205,-0.0610,0.2441,-0.1831,1,487,821,0
65992683,674,-0.0142,-0.0166,1.0210,0.0000,0.1221,-0.1831,1,492,829,0
65997682,675,-0.0137,-0.0166,1.0215,0.0000,0.1831,-0.0610,1,497,776,0
66002682,676,-0.0142,-0.0171,1.0225,0.0000,0.2441,-0.2441,1,476,779,0
66007686,677,-0.0142,-0.0166,1.0225,-0.0610,0.1831,-0.2441,1,482,796,0
66012682,678,-0.0142,-0.0161,1.0215,0.0000,0.3052,-0.3052,1,493,846,0
66017691,679,-0.0146,-0.0166,1.0220,-0.0610,0.3662,-0.3052,1,466,818,0
66022687,680,-0.0156,-0.0181,1.0234,-0.1221,0.3052,-0.3052,1,466,871,0
66027685,681,-0.0161,-0.0186,1.0244,-0.1221,0.2441,-0.3662,1,466,864,0
66032689,682,-0.0142,-0.0190,1.0234,-0.0610,0.3052,-0.3052,1,466,876,0
66037687,683,-0.0127,-0.0190,1.0205,-0.0610,0.1831,-0.1831,1,466,865,0
66042689,684,-0.0127,-0.0186,1.0190,0.0000,0.2441,-0.1831,1,466,874,0
66047687,685,-0.0132,-0.0171,1.0190,0.0610,0.2441,-0.1221,1,466,828,0
66052686,686,-0.0132,-0.0161,1.0200,0.0610,0.1221,-0.3052,1,465,867,0
66057684,687,-0.0127,-0.0156,1.0225,-0.0610,0.2441,-0.3052,1,466,864,0
66062687,688,-0.0122,-0.0171,1.0244,0.0000,0.1221,-0.1831,1,483,869,0
66067691,689,-0.0132,-0.0181,1.0254,-0.0610,0.1831,-0.1831,1,465,815,0
66072684,690,-0.0146,-0.0181,1.0254,-0.0610,0.3052,-0.1831,1,484,858,0
66077684,691,-0.0151,-0.0176,1.0244,-0.1221,0.3662,-0.1831,1,492,895,0
66082690,692,-0.0151,-0.0181,1.0225,-0.1221,0.1831,-0.1831,1,472,864,0
66087689,693,-0.0142,-0.0190,1.0215,0.0000,0.1831,-0.2441,1,493,750,0
66092686,694,-0.0117,-0.0176,1.0210,0.0610,0.3052,-0.1831,1,496,782,0
66097685,695,-0.0103,-0.0166,1.0205,-0.0610,0.3052,-0.2441,1,505,818,0
66102685,696,-0.0103,-0.0171,1.0215,0.0000,0.2441,-0.2441,1,487,822,0
66107686,697,-0.0112,-0.0166,1.0225,0.1221,0.0610,-0.0610,1,508,776,0
66112687,698,-0.0122,-0.0156,1.0229,0.2441,0.1831,-0.1831,1,474,838,0
66117687,699,-0.0127,-0.0151,1.0239,0.1831,0.3052,-0.1831,1,477,852,0
66122687,700,-0.0132,-0.0156,1.0259,0.1221,0.1831,-0.1831,1,494,847,0
66127687,701,-0.0137,-0.0171,1.0264,0.0000,0.3052,-0.1831,1,466,873,0
66132688,702,-0.0146,-0.0186,1.0254,-0.0610,0.2441,-0.1831,1,466,819,0
66137688,703,-0.0156,-0.0190,1.0225,0.1221,0.2441,-0.1221,1,466,876,0
66142685,704,-0.0156,-0.0190,1.0200,0.1221,0.3662,-0.1831,1,466,869,0
66147685,705,-0.0142,-0.0186,1.0190,0.1221,0.2441,-0.1831,1,466,872,0
66152686,706,-0.0117,-0.0176,1.0210,0.1221,0.1831,-0.1831,1,466,873,0
66157684,707,-0.0107,-0.0181,1.0239,-0.0610,0.2441,-0.2441,1,466,871,0
66162686,708,-0.0112,-0.0186,1.0249,-0.0610,0.3052,-0.1831,1,466,874,0
66167682,709,-0.0127,-0.0181,1.0234,0.0610,0.3052,-0.1831,1,466,872,0
66172686,710,-0.0146,-0.0171,1.0234,0.1221,0.2441,-0.2441,1,466,866,0
66177689,711,-0.0166,-0.0156,1.0234,-0.0610,0.0610,-0.2441,1,484,865,0
66182686,712,-0.0161,-0.0166,1.0225,-0.0610,0.1831,-0.2441,1,484,864,0
66187688,713,-0.0146,-0.0186,1.0220,-0.0610,0.1221,-0.1221,1,472,931,0
66192688,714,-0.0137,-0.0200,1.0220,0.0000,0.1221,-0.1831,1,495,855,0
66197684,715,-0.0142,-0.0186,1.0220,0.0000,0.2441,-0.1221,1,498,802,0
66202687,716,-0.0142,-0.0161,1.0215,0.1221,0.2441,-0.2441,1,507,776,0
66207689,717,-0.0142,-0.0146,1.0205,0.0610,0.3052,-0.2441,1,485,827,0
66212685,718,-0.0142,-0.0146,1.0205,0.0000,0.3052,-0.1831,1,481,844,0
66217688,719,-0.0137,-0.0166,1.0229,0.0610,0.2441,-0.1831,1,509,779,0
66222690,720,-0.0122,-0.0166,1.0234,0.0000,0.1831,-0.2441,1,473,850,0
66227685,721,-0.0132,-0.0161,1.0229,0.0610,0.1221,-0.1831,1,493,805,0
66232682,722,-0.0137,-0.0171,1.0210,0.0610,0.1221,-0.1221,1,494,843,0
66237686,723,-0.0137,-0.0181,1.0195,0.0610,0.2441,-0.1221,1,465,860,0
66242682,724,-0.0132,-0.0186,1.0200,0.0000,0.1831,-0.1221,1,466,868,0
66247684,725,-0.0127,-0.0176,1.0215,0.1221,0.1831,-0.1221,1,466,821,0
66252683,726,-0.0137,-0.0166,1.0225,0.0610,0.1831,-0.1831,1,466,866,0
66257683,727,-0.0146,-0.0171,1.0229,0.0610,0.1831,-0.2441,1,466,875,0
66262691,728,-0.0146,-0.0171,1.0234,0.0610,0.2441,-0.2441,1,466,876,0
66267682,729,-0.0146,-0.0166,1.0220,0.0610,0.1221,-0.1831,1,466,878,0
66272689,730,-0.0137,-0.0156,1.0215,0.0610,0.1221,-0.2441,1,466,873,0
66277686,731,-0.0137,-0.0161,1.0229,-0.0610,0.3052,-0.1221,1,483,869,0
66282695,732,-0.0122,-0.0176,1.0239,0.0000,0.2441,-0.2441,1,465,857,0
66287683,733,-0.0122,-0.0181,1.0225,0.0000,0.1221,-0.2441,1,484,822,0
66292687,734,-0.0132,-0.0181,1.0205,0.0000,0.2441,-0.1831,1,492,880,0
66297683,735,-0.0142,-0.0171,1.0195,0.1221,0.2441,-0.1221,1,485,815,0
66302688,736,-0.0142,-0.0156,1.0200,0.1221,0.1831,-0.1221,1,510,855,0
66307686,737,-0.0127,-0.0156,1.0215,0.1221,0.1221,-0.1831,1,466,846,0
66312689,738,-0.0132,-0.0161,1.0239,0.1221,0.2441,-0.1221,1,489,819,0
66317686,739,-0.0146,-0.0166,1.0244,0.1831,0.2441,-0.1221,1,491,824,0
66322682,740,-0.0151,-0.0166,1.0239,0.0000,0.3052,-0.1831,1,493,832,0
66327682,741,-0.0142,-0.0166,1.0229,0.0000,0.2441,-0.1831,1,509,783,0
66332689,742,-0.0137,-0.0161,1.0225,0.0610,0.2441,-0.1221,1,491,804,0
66337687,743,-0.0146,-0.0166,1.0225,0.0000,0.3052,-0.1831,1,486,841,0
66342685,744,-0.0142,-0.0176,1.0215,-0.1221,0.2441,-0.1831,1,493,800,0
66347690,745,-0.0127,-0.0190,1.0205,-0.0610,0.1831,-0.2441,1,465,872,0
66352683,746,-0.0127,-0.0190,1.0215,0.0000,0.2441,-0.2441,1,466,874,0
66357682,747,-0.0137,-0.0171,1.0220,-0.0610,0.3052,-0.2441,1,466,829,0
66362682,748,-0.0142,-0.0156,1.0210,0.0000,0.2441,-0.1831,1,465,867,0
66367682,749,-0.0132,-0.0166,1.0210,0.0610,0.1831,-0.2441,1,466,830,0
66372688,750,-0.0137,-0.0176,1.0229,0.0000,0.1831,-0.1221,1,466,873,0
66377687,751,-0.0146,-0.0186,1.0244,-0.1221,0.1831,-0.2441,1,466,825,0
66382689,752,-0.0142,-0.0190,1.0244,0.1831,0.2441,-0.2441,1,466,877,0
66387683,753,-0.0142,-0.0186,1.0239,0.1831,0.1831,-0.2441,1,483,880,0
66392703,754,-0.0142,-0.0190,1.0225,0.1221,0.2441,-0.1831,1,465,867,0
66397687,755,-0.0151,-0.0200,1.0200,0.1221,0.2441,-0.1831,1,484,860,0
66402689,756,-0.0161,-0.0190,1.0195,0.0610,0.2441,-0.2441,1,466,869,0
66407684,757,-0.0156,-0.0176,1.0210,0.1221,0.0610,-0.1831,1,467,952,0
66412683,758,-0.0146,-0.0166,1.0239,0.1221,0.1831,-0.1831,1,497,745,0
66417690,759,-0.0142,-0.0171,1.0259,-0.0610,0.1831,-0.2441,1,481,814,0
66422691,760,-0.0151,-0.0171,1.0239,0.0000,0.2441,-0.3052,1,476,824,0
66427685,761,-0.0151,-0.0181,1.0220,0.0610,0.1831,-0.2441,1,502,779,0
66432688,762,-0.0146,-0.0181,1.0225,0.0610,0.2441,-0.1221,1,506,825,0
66437687,763,-0.0142,-0.0176,1.0229,0.0000,0.1831,-0.1221,1,478,839,0
66442691,764,-0.0142,-0.0186,1.0215,0.0610,0.1831,-0.3052,1,488,796,0
66447690,765,-0.0142,-0.0186,1.0205,0.0610,0.3052,-0.2441,1,493,837,0
66452690,766,-0.0142,-0.0181,1.0200,-0.0610,0.1831,-0.2441,1,466,866,0
66457685,767,-0.0142,-0.0161,1.0205,0.0610,0.1831,-0.2441,1,466,869,0
66462689,768,-0.0132,-0.0151,1.0210,0.0000,0.1221,-0.2441,1,466,876,0
66467687,769,-0.0117,-0.0151,1.0229,-0.1221,0.2441,-0.2441,1,466,825,0
66472689,770,-0.0107,-0.0156,1.0239,0.0610,0.2441,-0.1831,1,466,878,0
66477690,771,-0.0127,-0.0151,1.0244,0.1221,0.1831,-0.2441,1,465,877,0
66482684,772,-0.0146,-0.0166,1.0229,-0.0610,0.2441,-0.1831,1,466,876,0
66487685,773,-0.0156,-0.0181,1.0210,-0.1221,0.2441,-0.4272,1,466,882,0
66492689,774,-0.0151,-0.0176,1.0210,-0.0610,0.2441,-0.2441,1,465,870,0
66497688,775,-0.0142,-0.0171,1.0215,-0.1221,0.2441,-0.1831,1,466,874,0
66502705,776,-0.0132,-0.0176,1.0220,0.0000,0.1831,-0.1831,1,482,858,0
66507683,777,-0.0132,-0.0176,1.0225,0.0610,0.2441,-0.1221,1,484,826,0
66512691,778,-0.0142,-0.0176,1.0229,0.1221,0.3052,-0.2441,1,493,893,0
66517687,779,-0.0146,-0.0171,1.0234,0.1221,0.1221,-0.1221,1,486,803,0
66522686,780,-0.0151,-0.0156,1.0239,0.0000,0.1221,-0.2441,1,469,798,0
66527688,781,-0.0161,-0.0161,1.0239,0.0000,0.1831,-0.1831,1,473,782,0
66532688,782,-0.0151,-0.0171,1.0239,-0.0610,0.2441,-0.1831,1,493,788,0
66537685,783,-0.0146,-0.0181,1.0244,0.0000,0.1831,-0.1221,1,493,828,0
66542690,784,-0.0142,-0.0176,1.0239,-0.0610,0.1831,-0.1221,1,502,779,0
66547689,785,-0.0137,-0.0171,1.0220,0.0610,0.3052,-0.1831,1,488,823,0
66552683,786,-0.0142,-0.0161,1.0205,0.0000,0.2441,-0.1221,1,471,836,0
66557690,787,-0.0146,-0.0166,1.0195,-0.0610,0.1831,-0.2441,1,493,798,0
66562686,788,-0.0142,-0.0171,1.0200,0.0000,0.1831,-0.3052,1,466,879,0
66567683,789,-0.0142,-0.0166,1.0220,-0.1221,0.2441,-0.1831,1,466,818,0
66572683,790,-0.0146,-0.0166,1.0229,-0.0610,0.1831,-0.1831,1,466,875,0
66577688,791,-0.0146,-0.0161,1.0234,-0.0610,0.1221,-0.3662,1,466,881,0
66582690,792,-0.0146,-0.0161,1.0239,0.0610,0.1831,-0.3052,1,466,877,0
66587689,793,-0.0156,-0.0161,1.0234,0.0000,0.1831,-0.3662,1,466,875,0
66592686,794,-0.0146,-0.0166,1.0215,0.0000,0.2441,-0.2441,1,466,835,0
66597683,795,-0.0137,-0.0181,1.0205,-0.0610,0.2441,-0.0610,1,466,835,0
66602684,796,-0.0142,-0.0181,1.0205,0.0610,0.1221,-0.2441,1,483,868,0
66607683,797,-0.0146,-0.0176,1.0215,0.0610,0.1831,-0.2441,1,465,856,0
66612682,798,-0.0142,-0.0176,1.0220,0.1831,0.2441,-0.1831,1,484,864,0
66617691,799,-0.0142,-0.0171,1.0220,0.1221,0.1221,-0.1221,1,484,809,0
66622684,800,-0.0142,-0.0151,1.0220,0.1221,0.1831,0.0000,1,493,897,0
66627683,801,-0.0142,-0.0156,1.0225,0.0000,0.1221,-0.1831,1,495,700,0
66632682,802,-0.0146,-0.0176,1.0239,0.0000,0.2441,-0.3052,1,476,787,0
66637688,803,-0.0137,-0.0181,1.0259,0.0610,0.3052,-0.1831,1,477,781,0
66642688,804,-0.0142,-0.0171,1.0249,0.0000,0.1831,-0.2441,1,493,817,0
66647689,805,-0.0151,-0.0171,1.0215,0.1221,0.1831,-0.2441,1,494,782,0
66652688,806,-0.0146,-0.0181,1.0186,-0.0610,0.1831,-0.2441,1,506,851,0
66657686,807,-0.0127,-0.0176,1.0195,-0.1221,0.3052,-0.3662,1,475,843,0
66662683,808,-0.0112,-0.0176,1.0225,-0.0610,0.1221,-0.2441,1,479,839,0
66667684,809,-0.0117,-0.0181,1.0244,0.0610,0.2441,-0.1831,1,493,841,0
66672690,810,-0.0132,-0.0171,1.0249,0.0000,0.3052,-0.3052,1,466,872,0
66677688,811,-0.0142,-0.0156,1.0239,-0.0610,0.1221,-0.3662,1,465,818,0
66682689,812,-0.0142,-0.0151,1.0229,-0.1831,0.2441,-0.3662,1,466,872,0
66687686,813,-0.0142,-0.0161,1.0215,-0.1831,0.1831,-0.1221,1,466,882,0
66692684,814,-0.0142,-0.0171,1.0210,-0.1221,0.1221,-0.3052,1,466,874,0
66697685,815,-0.0137,-0.0166,1.0225,-0.0610,0.1831,-0.3052,1,466,860,0
66702688,816,-0.0132,-0.0161,1.0234,0.0000,0.1831,-0.2441,1,466,869,0
66707688,817,-0.0127,-0.0161,1.0220,-0.0610,0.1221,-0.3052,1,465,834,0
66712686,818,-0.0122,-0.0166,1.0210,-0.0610,0.0000,-0.1831,1,466,865,0
66717687,819,-0.0122,-0.0151,1.0215,-0.1221,0.2441,-0.3052,1,465,817,0
66722682,820,-0.0127,-0.0142,1.0215,-0.1221,0.3052,-0.2441,1,485,860,0
66727683,821,-0.0132,-0.0146,1.0234,-0.0610,0.2441,-0.3052,1,484,801,0
66732686,822,-0.0146,-0.0161,1.0259,0.0610,0.1831,-0.3052,1,474,931,0
66737685,823,-0.0151,-0.0171,1.0264,0.0000,0.2441,-0.1831,1,471,860,0
66742685,824,-0.0151,-0.0171,1.0249,0.0000,0.2441,-0.1221,1,496,807,0
66747685,825,-0.0146,-0.0171,1.0225,0.0000,0.2441,-0.3052,1,501,780,0
66752683,826,-0.0146,-0.0186,1.0205,-0.0610,0.2441,-0.1831,1,503,777,0
66757685,827,-0.0142,-0.0190,1.0200,0.0000,0.1831,-0.2441,1,481,829,0
66762683,828,-0.0142,-0.0186,1.0200,0.0610,0.3052,-0.2441,1,502,780,0
66767682,829,-0.0132,-0.0176,1.0200,0.0610,0.2441,-0.1831,1,483,837,0
66772689,830,-0.0122,-0.0156,1.0215,0.0000,0.1831,0.0610,1,488,842,0
66777686,831,-0.0137,-0.0151,1.0225,-0.0610,0.1831,-0.1221,1,492,799,0
66782684,832,-0.0151,-0.0156,1.0229,0.0610,0.1831,-0.1831,1,466,869,0
66787683,833,-0.0151,-0.0171,1.0239,0.0610,0.2441,-0.1831,1,465,880,0
66792683,834,-0.0146,-0.0190,1.0234,0.0000,0.1831,-0.1831,1,465,876,0
66797689,835,-0.0142,-0.0195,1.0220,0.0610,0.1831,-0.2441,1,465,835,0
66802688,836,-0.0122,-0.0190,1.0200,0.1221,0.1221,-0.1831,1,466,875,0
66807683,837,-0.0112,-0.0181,1.0186,0.0000,0.3052,-0.1221,1,466,869,0
66812682,838,-0.0122,-0.0181,1.0190,0.0610,0.3052,-0.1221,1,465,819,0
66817684,839,-0.0132,-0.0176,1.0200,0.1221,0.1221,-0.1831,1,466,864,0
66822690,840,-0.0132,-0.0166,1.0220,0.0610,0.2441,-0.2441,1,483,866,0
66827689,841,-0.0137,-0.0166,1.0234,0.0000,0.1831,-0.0610,1,466,874,0
66832704,842,-0.0151,-0.0171,1.0234,0.0610,0.1221,-0.1831,1,484,817,0
66837688,843,-0.0166,-0.0181,1.0229,0.0000,0.1831,-0.2441,1,465,869,0
66842683,844,-0.0171,-0.0186,1.0220,0.0610,0.2441,-0.3052,1,498,819,0
66847684,845,-0.0156,-0.0176,1.0205,-0.0610,0.3052,-0.2441,1,482,735,0
66852690,846,-0.0146,-0.0176,1.0200,0.0000,0.2441,-0.1831,1,482,756,0
66857682,847,-0.0137,-0.0176,1.0205,-0.0610,0.2441,-0.3052,1,501,782,0
66862688,848,-0.0127,-0.0171,1.0215,-0.0610,0.1831,-0.2441,1,486,820,0
66867688,849,-0.0127,-0.0166,1.0220,0.0000,0.3052,-0.1221,1,477,823,0
66872683,850,-0.0132,-0.0156,1.0229,-0.0610,0.2441,-0.2441,1,497,773,0
66877686,851,-0.0142,-0.0151,1.0239,-0.0610,0.1221,-0.2441,1,488,847,0
66882684,852,-0.0142,-0.0161,1.0239,-0.0610,0.2441,-0.3052,1,489,844,0
66887690,853,-0.0142,-0.0186,1.0244,-0.0610,0.3052,-0.2441,1,492,844,0
66892688,854,-0.0142,-0.0181,1.0254,0.0000,0.3662,-0.2441,1,466,868,0
66897685,855,-0.0137,-0.0151,1.0249,-0.0610,0.2441,-0.3052,1,466,826,0
66902682,856,-0.0137,-0.0176,1.0225,0.0000,0.1831,-0.3052,1,466,873,0
66907687,857,-0.0151,-0.0195,1.0200,-0.0610,0.2441,-0.3052,1,466,822,0
66912691,858,-0.0151,-0.0181,1.0195,-0.1221,0.2441,-0.2441,1,466,871,0
66917688,859,-0.0146,-0.0186,1.0195,0.0000,0.0610,-0.1831,1,466,875,0
66922687,860,-0.0146,-0.0215,1.0205,0.0000,0.2441,-0.1221,1,466,830,0
66927685,861,-0.0137,-0.0200,1.0244,0.1221,0.1221,-0.1831,1,466,827,0
66932689,862,-0.0137,-0.0137,1.0273,0.0000,0.1831,-0.2441,1,466,868,0
66937688,863,-0.0146,-0.0098,1.0244,-0.0610,0.3052,-0.2441,1,484,818,0
66942699,864,-0.0146,-0.0132,1.0200,-0.1221,0.2441,-0.3662,1,476,858,0
66947687,865,-0.0161,-0.0176,1.0205,-0.1221,0.1221,-0.3052,1,484,815,0
66952684,866,-0.0146,-0.0195,1.0234,-0.1831,0.1831,-0.1221,1,492,891,0
66957682,867,-0.0122,-0.0215,1.0244,-0.1221,0.1831,-0.1831,1,497,954,0
66962691,868,-0.0132,-0.0215,1.0234,0.1221,0.1221,-0.2441,1,481,754,0
66967689,869,-0.0142,-0.0176,1.0200,0.1221,0.2441,-0.2441,1,476,831,0
66972688,870,-0.0142,-0.0146,1.0171,0.0610,0.1831,-0.3052,1,482,824,0
66977683,871,-0.0142,-0.0142,1.0181,-0.0610,0.1831,-0.3052,1,484,819,0
66982689,872,-0.0142,-0.0151,1.0220,0.0000,0.1221,-0.2441,1,491,817,0
66987687,873,-0.0137,-0.0166,1.0264,-0.0610,0.1221,-0.2441,1,476,798,0
66992688,874,-0.0122,-0.0186,1.0278,-0.0610,0.2441,-0.2441,1,481,841,0
66997690,875,-0.0127,-0.0205,1.0254,-0.0610,0.3052,-0.2441,1,493,849,0
67002682,876,-0.0146,-0.0190,1.0215,-0.0610,0.2441,-0.3662,1,466,840,0
67007682,877,-0.0156,-0.0166,1.0205,-0.1221,0.1831,-0.2441,1,466,875,0
67012684,878,-0.0156,-0.0181,1.0220,0.0000,0.2441,-0.1831,1,466,878,0
67017684,879,-0.0146,-0.0210,1.0234,0.0000,0.3052,-0.1831,1,466,829,0
67022682,880,-0.0122,-0.0171,1.0229,0.0000,0.1221,-0.2441,1,466,827,0
67027683,881,-0.0137,-0.0146,1.0234,0.0610,0.1221,-0.2441,1,465,827,0
67032689,882,-0.0156,-0.0142,1.0229,-0.1221,0.1831,-0.2441,1,466,873,0
67037682,883,-0.0156,-0.0156,1.0225,0.0000,0.1221,-0.3052,1,466,878,0
67042683,884,-0.0151,-0.0190,1.0234,0.0610,0.3052,-0.2441,1,483,821,0
67047683,885,-0.0146,-0.0215,1.0239,-0.1221,0.2441,-0.1831,1,465,872,0
67052709,886,-0.0142,-0.0205,1.0220,0.0000,0.1831,-0.2441,1,485,865,0
67057689,887,-0.0142,-0.0200,1.0195,0.0000,0.1831,-0.1831,1,484,827,0
67062687,888,-0.0142,-0.0195,1.0195,0.0610,0.2441,-0.1221,1,492,818,0
67067689,889,-0.0142,-0.0171,1.0210,0.1221,0.2441,-0.1221,1,493,859,0
67072683,890,-0.0137,-0.0142,1.0225,0.1221,0.1831,-0.1221,1,508,814,0
67077688,891,-0.0137,-0.0142,1.0239,0.1221,0.1831,-0.2441,1,474,818,0
67082690,892,-0.0151,-0.0161,1.0244,0.1831,0.1831,-0.3662,1,495,825,0
67087689,893,-0.0161,-0.0176,1.0244,0.0000,0.2441,-0.3052,1,492,836,0
67092684,894,-0.0156,-0.0181,1.0229,-0.0610,0.2441,-0.1831,1,501,780,0
67097683,895,-0.0142,-0.0190,1.0220,0.0000,0.1221,-0.2441,1,475,845,0
67102685,896,-0.0137,-0.0195,1.0229,0.0000,0.1221,-0.1831,1,473,796,0
67107684,897,-0.0142,-0.0190,1.0225,0.0000,0.2441,-0.2441,1,493,798,0
67112683,898,-0.0151,-0.0186,1.0190,0.0000,0.2441,-0.2441,1,466,800,0
67117684,899,-0.0146,-0.0186,1.0176,-0.0610,0.1221,-0.3052,1,466,830,0
67122685,900,-0.0142,-0.0181,1.0200,0.0000,0.1831,-0.1221,1,466,867,0
67127691,901,-0.0142,-0.0161,1.0225,0.0610,0.1831,-0.2441,1,466,823,0
67132690,902,-0.0142,-0.0156,1.0234,0.0000,0.1831,-0.3662,1,466,875,0
67137684,903,-0.0146,-0.0166,1.0234,0.0000,0.1221,-0.1831,1,466,833,0
67142686,904,-0.0146,-0.0176,1.0225,-0.1221,0.2441,-0.1221,1,466,832,0
67147699,905,-0.0137,-0.0181,1.0220,-0.0610,0.2441,-0.2441,1,466,872,0
67152686,906,-0.0137,-0.0186,1.0215,0.0610,0.1221,-0.2441,1,465,872,0
67157685,907,-0.0142,-0.0181,1.0205,0.0000,0.1831,-0.1831,1,484,867,0
67162699,908,-0.0142,-0.0186,1.0195,0.0000,0.1831,-0.1831,1,475,815,0
67167689,909,-0.0142,-0.0181,1.0205,0.0610,0.1831,-0.1831,1,484,827,0
67172682,910,-0.0137,-0.0176,1.0229,0.0610,0.3052,-0.1831,1,465,897,0
67177688,911,-0.0137,-0.0181,1.0249,0.0000,0.2441,-0.2441,1,470,811,0
67182691,912,-0.0132,-0.0171,1.0249,-0.0610,0.1831,-0.1831,1,494,733,0
67187688,913,-0.0127,-0.0156,1.0234,0.0000,0.1221,-0.3052,1,471,836,0
67192689,914,-0.0137,-0.0171,1.0225,0.0610,0.1831,-0.2441,1,496,774,0
67197688,915,-0.0146,-0.0190,1.0220,0.0610,0.3662,-0.3662,1,496,823,0
67202691,916,-0.0142,-0.0200,1.0215,0.0610,0.3052,-0.3052,1,504,828,0
67207691,917,-0.0132,-0.0190,1.0220,0.1221,0.2441,-0.1831,1,491,813,0
67212688,918,-0.0132,-0.0186,1.0225,-0.0610,0.1831,-0.1221,1,476,844,0
67217685,919,-0.0137,-0.0176,1.0215,0.0000,0.2441,-0.1831,1,493,838,0
67222682,920,-0.0142,-0.0156,1.0215,0.0610,0.3052,-0.1831,1,466,826,0
67227683,921,-0.0142,-0.0156,1.0225,0.0000,0.1831,-0.1221,1,466,869,0
67232684,922,-0.0127,-0.0166,1.0234,-0.0610,0.1221,-0.1221,1,466,826,0
67237686,923,-0.0132,-0.0176,1.0244,-0.0610,0.2441,-0.1831,1,466,869,0
67242685,924,-0.0146,-0.0181,1.0244,0.0000,0.2441,-0.2441,1,466,876,0
67247687,925,-0.0161,-0.0181,1.0229,-0.0610,0.2441,-0.1831,1,466,833,0
67252687,926,-0.0161,-0.0171,1.0200,-0.0610,0.1221,-0.1831,1,466,878,0
67257690,927,-0.0151,-0.0171,1.0186,0.0000,0.1221,-0.1831,1,466,869,0
67262685,928,-0.0132,-0.0186,1.0200,0.0000,0.1221,-0.1831,1,483,822,0
67267687,929,-0.0117,-0.0190,1.0229,0.0610,0.2441,-0.1221,1,465,757,0
67272707,930,-0.0107,-0.0190,1.0239,-0.0610,0.1831,-0.2441,1,484,860,0
67277687,931,-0.0122,-0.0181,1.0229,0.0000,0.2441,-0.1831,1,465,873,0
67282683,932,-0.0146,-0.0166,1.0229,-0.0610,0.1831,-0.1831,1,507,820,0
67287686,933,-0.0161,-0.0161,1.0239,0.0000,0.2441,-0.0610,1,490,816,0
67292685,934,-0.0151,-0.0166,1.0239,0.0000,0.1831,-0.1831,1,469,784,0
67297686,935,-0.0137,-0.0171,1.0229,-0.0610,0.1831,-0.1831,1,494,788,0
67302689,936,-0.0132,-0.0181,1.0229,0.1221,0.2441,-0.1221,1,496,826,0
67307690,937,-0.0132,-0.0190,1.0220,0.0610,0.1831,-0.1831,1,492,819,0
67312690,938,-0.0127,-0.0195,1.0205,0.1221,0.1831,-0.1831,1,505,852,0
67317687,939,-0.0127,-0.0186,1.0205,0.0610,0.1831,-0.1831,1,476,844,0
67322686,940,-0.0132,-0.0176,1.0205,0.0610,0.1221,-0.1221,1,484,843,0
67327686,941,-0.0137,-0.0171,1.0215,0.0610,0.1831,-0.1221,1,466,834,0
67332690,942,-0.0127,-0.0176,1.0239,0.1831,0.2441,-0.1831,1,466,864,0
67337683,943,-0.0122,-0.0176,1.0249,0.1831,0.2441,-0.1831,1,466,877,0
67342687,944,-0.0137,-0.0171,1.0249,0.1831,0.0610,-0.0610,1,466,880,0
67347690,945,-0.0151,-0.0171,1.0239,0.1831,0.1221,-0.0610,1,466,869,0
67352686,946,-0.0151,-0.0171,1.0215,0.1831,0.2441,-0.1221,1,466,872,0
67357689,947,-0.0137,-0.0181,1.0195,0.1221,0.1831,-0.1831,1,466,871,0
67362683,948,-0.0127,-0.0190,1.0190,0.1831,0.2441,-0.1221,1,466,870,0
67367687,949,-0.0127,-0.0195,1.0200,0.0610,0.1831,-0.1831,1,465,872,0
67372689,950,-0.0132,-0.0176,1.0215,0.0610,0.2441,-0.0610,1,465,872,0
67377692,951,-0.0132,-0.0146,1.0225,0.0610,0.2441,-0.1831,1,484,857,0
67382688,952,-0.0137,-0.0137,1.0220,0.1221,0.1831,-0.1831,1,465,873,0
67387687,953,-0.0132,-0.0151,1.0220,0.1221,0.1221,-0.2441,1,499,897,0
67392690,954,-0.0122,-0.0176,1.0234,0.1831,0.1831,-0.1831,1,484,803,0
67397690,955,-0.0122,-0.0190,1.0249,0.0000,0.1831,-0.1831,1,483,751,0
67402690,956,-0.0132,-0.0200,1.0244,-0.1221,0.1831,-0.3052,1,467,787,0
67407689,957,-0.0142,-0.0200,1.0225,-0.0610,0.2441,-0.1221,1,489,820,0
67412689,958,-0.0146,-0.0186,1.0210,-0.1221,0.1831,-0.2441,1,491,819,0
67417682,959,-0.0146,-0.0176,1.0200,0.0000,0.1831,-0.2441,1,507,852,0
67422685,960,-0.0146,-0.0171,1.0205,0.0610,0.1831,-0.1831,1,486,800,0
67427684,961,-0.0146,-0.0176,1.0225,0.0000,0.1221,-0.0610,1,488,845,0
67432687,962,-0.0151,-0.0181,1.0239,-0.1221,0.2441,-0.1831,1,466,794,0
67437686,963,-0.0151,-0.0166,1.0244,-0.1831,0.1831,-0.3662,1,466,874,0
67442683,964,-0.0137,-0.0151,1.0239,0.0000,0.1831,-0.2441,1,466,884,0
67447685,965,-0.0132,-0.0151,1.0225,0.0610,0.1831,-0.2441,1,466,833,0
67452682,966,-0.0146,-0.0166,1.0210,0.1221,0.1831,-0.2441,1,466,876,0
67457690,967,-0.0151,-0.0186,1.0210,0.1221,0.3662,-0.3052,1,465,876,0
67462689,968,-0.0146,-0.0205,1.0225,0.0000,0.1221,-0.2441,1,466,866,0
67467704,969,-0.0146,-0.0215,1.0229,-0.0610,0.2441,-0.2441,1,466,827,0
67472689,970,-0.0146,-0.0205,1.0225,0.0610,0.2441,-0.1221,1,466,878,0
67477682,971,-0.0137,-0.0181,1.0215,0.1831,0.0000,-0.1221,1,484,871,0
67482686,972,-0.0137,-0.0156,1.0220,0.0000,0.1221,-0.1221,1,478,816,0
67487683,973,-0.0132,-0.0156,1.0225,-0.0610,0.1831,-0.1831,1,466,881,0
67492688,974,-0.0132,-0.0166,1.0229,0.0610,0.1831,-0.1831,1,492,899,0
67497685,975,-0.0142,-0.0161,1.0249,0.0610,0.3052,-0.2441,1,465,865,0
67502687,976,-0.0146,-0.0161,1.0259,0.0000,0.3052,-0.1221,1,510,860,0
67507688,977,-0.0142,-0.0176,1.0244,0.0000,0.1831,-0.1221,1,469,776,0
67512686,978,-0.0146,-0.0181,1.0215,0.0610,0.1831,-0.1831,1,493,778,0
67517689,979,-0.0142,-0.0181,1.0210,0.0000,0.1831,-0.1221,1,498,825,0
67522687,980,-0.0132,-0.0186,1.0220,0.0000,0.1221,-0.1831,1,509,772,0
67527690,981,-0.0132,-0.0181,1.0229,0.0000,0.1831,-0.1831,1,479,793,0
67532682,982,-0.0132,-0.0166,1.0244,0.1221,0.1221,-0.1831,1,484,798,0
67537688,983,-0.0127,-0.0161,1.0249,-0.0610,0.1221,-0.1831,1,487,843,0
67542682,984,-0.0137,-0.0156,1.0229,-0.0610,0.1831,-0.1831,1,493,844,0
67547682,985,-0.0142,-0.0166,1.0215,0.0000,0.1831,-0.2441,1,465,875,0
67552682,986,-0.0142,-0.0166,1.0229,-0.1221,0.2441,-0.2441,1,466,831,0
67557683,987,-0.0146,-0.0176,1.0244,-0.1221,0.3052,-0.3052,1,466,877,0
67562690,988,-0.0142,-0.0186,1.0244,-0.0610,0.2441,-0.3052,1,465,867,0
67567686,989,-0.0127,-0.0176,1.0225,-0.0610,0.3052,-0.3052,1,466,871,0
67572689,990,-0.0132,-0.0166,1.0205,-0.1221,0.3052,-0.3052,1,466,861,0
67577689,991,-0.0137,-0.0171,1.0200,-0.0610,0.2441,-0.3052,1,466,866,0
67582687,992,-0.0137,-0.0186,1.0195,0.0000,0.1831,-0.2441,1,483,864,0
67587689,993,-0.0142,-0.0190,1.0220,0.0000,0.2441,-0.3052,1,466,819,0
67592708,994,-0.0146,-0.0190,1.0249,-0.0610,0.2441,-0.2441,1,484,821,0
67597688,995,-0.0146,-0.0181,1.0259,-0.0610,0.2441,-0.3052,1,484,814,0
67602685,996,-0.0146,-0.0176,1.0254,-0.0610,0.1221,-0.3662,1,500,894,0
67607683,997,-0.0142,-0.0176,1.0239,-0.0610,0.1221,-0.1831,1,480,859,0
67612690,998,-0.0146,-0.0186,1.0220,-0.1221,0.2441,-0.2441,1,505,764,0
67617683,999,-0.0146,-0.0195,1.0205,-0.1221,0.1831,-0.1831,1,476,837,0
67622689,1000,-0.0142,-0.0195,1.0205,-0.1221,0.1831,-0.2441,1,488,829,0
67627685,1001,-0.0137,-0.0186,1.0210,-0.0610,0.1221,-0.3052,1,479,827,0
67632687,1002,-0.0127,-0.0171,1.0220,-0.0610,0.2441,-0.1831,1,507,813,0
67637684,1003,-0.0127,-0.0156,1.0229,0.0610,0.1831,-0.1831,1,485,842,0
67642683,1004,-0.0127,-0.0151,1.0234,0.0610,0.1831,-0.2441,1,471,848,0
67647688,1005,-0.0132,-0.0156,1.0234,-0.0610,0.2441,-0.1831,1,493,849,0
67652684,1006,-0.0137,-0.0166,1.0244,-0.0610,0.2441,-0.2441,1,466,848,0
67657687,1007,-0.0137,-0.0176,1.0249,-0.1221,0.2441,-0.3052,1,466,878,0
67662690,1008,-0.0142,-0.0181,1.0229,-0.1221,0.0610,-0.2441,1,466,870,0
67667687,1009,-0.0151,-0.0181,1.0200,-0.0610,0.1831,-0.2441,1,466,871,0
67672686,1010,-0.0142,-0.0171,1.0186,0.0000,0.2441,-0.2441,1,465,875,0
67677686,1011,-0.0127,-0.0166,1.0205,0.0000,0.2441,-0.2441,1,466,828,0
67682689,1012,-0.0127,-0.0166,1.0229,0.0000,0.1221,-0.1831,1,466,831,0
67687687,1013,-0.0146,-0.0176,1.0244,-0.0610,0.1221,-0.1221,1,466,828,0
67692687,1014,-0.0156,-0.0171,1.0249,0.0610,0.2441,-0.2441,1,466,869,0
67697687,1015,-0.0146,-0.0166,1.0249,0.0000,0.1831,-0.3052,1,466,875,0
67702687,1016,-0.0142,-0.0161,1.0244,0.0000,0.1221,-0.1831,1,482,766,0
67707683,1017,-0.0151,-0.0166,1.0234,-0.0610,0.2441,-0.1831,1,465,888,0
67712686,1018,-0.0142,-0.0181,1.0234,0.0610,0.0610,-0.1221,1,466,907,0
67717687,1019,-0.0127,-0.0200,1.0225,0.0610,0.1831,-0.1221,1,470,854,0
67722684,1020,-0.0122,-0.0195,1.0215,0.0610,0.1831,-0.1831,1,495,742,0
67727682,1021,-0.0117,-0.0176,1.0215,0.0610,0.2441,-0.2441,1,477,840,0
67732689,1022,-0.0122,-0.0161,1.0215,0.1221,0.2441,-0.1831,1,482,826,0
67737682,1023,-0.0137,-0.0156,1.0220,0.0610,0.2441,-0.2441,1,473,829,0
67742684,1024,-0.0142,-0.0156,1.0229,-0.0610,0.1831,-0.2441,1,506,827,0
67747684,1025,-0.0142,-0.0166,1.0244,-0.0610,0.1831,-0.2441,1,491,848,0
67752689,1026,-0.0137,-0.0186,1.0254,0.0000,0.2441,-0.2441,1,477,850,0
67757690,1027,-0.0137,-0.0195,1.0244,0.0000,0.2441,-0.3052,1,493,799,0
67762688,1028,-0.0142,-0.0195,1.0229,-0.0610,0.2441,-0.2441,1,466,800,0
67767683,1029,-0.0137,-0.0195,1.0210,0.0610,0.1221,-0.0610,1,466,877,0
67772682,1030,-0.0137,-0.0190,1.0200,0.0610,0.1221,-0.2441,1,466,865,0
67777684,1031,-0.0127,-0.0176,1.0205,0.0610,0.1831,-0.1221,1,466,868,0
67782684,1032,-0.0117,-0.0171,1.0220,0.1221,0.2441,-0.1221,1,466,868,0
67787690,1033,-0.0117,-0.0176,1.0239,0.1221,0.2441,-0.2441,1,466,866,0
67792682,1034,-0.0122,-0.0166,1.0239,0.1221,0.1831,-0.1831,1,465,875,0
67797686,1035,-0.0137,-0.0166,1.0225,0.1221,0.1831,-0.0610,1,466,880,0
67802682,1036,-0.0137,-0.0171,1.0210,0.0610,0.2441,-0.2441,1,483,869,0
67807682,1037,-0.0132,-0.0181,1.0205,0.0610,0.2441,-0.3052,1,465,858,0
67812682,1038,-0.0132,-0.0195,1.0205,0.0000,0.2441,-0.1831,1,485,854,0
67817690,1039,-0.0132,-0.0210,1.0205,-0.1221,0.1831,-0.1831,1,466,900,0
67822687,1040,-0.0142,-0.0205,1.0205,-0.0610,0.1831,-0.2441,1,497,898,0
67827690,1041,-0.0142,-0.0195,1.0205,0.0610,0.3052,-0.1831,1,481,863,0
67832687,1042,-0.0137,-0.0181,1.0205,0.1221,0.2441,-0.1831,1,502,867,0
67837685,1043,-0.0117,-0.0166,1.0225,-0.1831,0.1831,-0.2441,1,466,832,0
67842685,1044,-0.0117,-0.0176,1.0244,-0.1221,0.1221,-0.2441,1,493,832,0
67847685,1045,-0.0142,-0.0181,1.0259,0.0000,0.1221,-0.2441,1,487,823,0
67852683,1046,-0.0156,-0.0176,1.0254,-0.1221,0.1221,-0.3052,1,497,775,0
67857687,1047,-0.0142,-0.0181,1.0225,-0.1831,0.3052,-0.4883,1,489,835,0
67862689,1048,-0.0137,-0.0190,1.0190,-0.0610,0.2441,-0.2441,1,469,839,0
67867686,1049,-0.0132,-0.0186,1.0176,-0.1221,0.1831,-0.1831,1,493,846,0
67872690,1050,-0.0117,-0.0171,1.0200,-0.0610,0.2441,-0.1831,1,466,843,0
67877685,1051,-0.0122,-0.0161,1.0220,0.0000,0.1831,-0.2441,1,466,870,0
67882683,1052,-0.0127,-0.0171,1.0220,-0.1221,0.2441,-0.2441,1,466,835,0
67887688,1053,-0.0132,-0.0171,1.0225,0.0000,0.2441,-0.2441,1,465,871,0
67892689,1054,-0.0142,-0.0166,1.0225,0.1831,0.1221,-0.1831,1,466,827,0
67897688,1055,-0.0146,-0.0181,1.0225,-0.0610,0.1221,-0.3052,1,466,875,0
67902693,1056,-0.0146,-0.0195,1.0239,-0.1221,0.1831,-0.1831,1,466,864,0
67907684,1057,-0.0151,-0.0190,1.0249,-0.0610,0.3052,-0.1831,1,465,880,0
67912682,1058,-0.0146,-0.0186,1.0244,0.0610,0.2441,-0.1831,1,483,874,0
67917690,1059,-0.0146,-0.0181,1.0225,0.0610,0.2441,-0.2441,1,466,866,0
67922713,1060,-0.0142,-0.0166,1.0220,-0.1831,0.1831,-0.0610,1,484,862,0
67927685,1061,-0.0137,-0.0161,1.0215,-0.0610,0.1221,-0.1831,1,465,874,0
67932689,1062,-0.0127,-0.0151,1.0215,-0.1221,0.1221,-0.3052,1,493,932,0
67937682,1063,-0.0127,-0.0142,1.0234,-0.0610,0.1831,-0.3052,1,491,852,0
67942686,1064,-0.0132,-0.0156,1.0254,-0.0610,0.2441,-0.2441,1,502,746,0
67947685,1065,-0.0137,-0.0176,1.0259,0.0000,0.2441,-0.3052,1,476,838,0
67952686,1066,-0.0142,-0.0176,1.0244,-0.0610,0.2441,-0.3052,1,481,775,0
67957690,1067,-0.0132,-0.0171,1.0229,-0.1221,0.2441,-0.3052,1,496,824,0
67962688,1068,-0.0137,-0.0176,1.0225,-0.0610,0.1831,-0.1831,1,503,820,0
67967686,1069,-0.0142,-0.0200,1.0225,-0.0610,0.1831,-0.2441,1,473,843,0
67972682,1070,-0.0142,-0.0205,1.0225,0.0610,0.1831,-0.2441,1,471,844,0
67977682,1071,-0.0137,-0.0186,1.0220,0.0000,0.1831,-0.3052,1,493,845,0
67982683,1072,-0.0132,-0.0171,1.0220,-0.0610,0.1831,-0.1221,1,466,794,0
67987682,1073,-0.0127,-0.0171,1.0220,-0.0610,0.0610,-0.1221,1,466,865,0
67992688,1074,-0.0122,-0.0176,1.0239,-0.1221,0.1831,-0.1831,1,466,863,0
67997687,1075,-0.0127,-0.0186,1.0254,-0.1831,0.1831,-0.3052,1,466,877,0
68002686,1076,-0.0142,-0.0200,1.0254,-0.0610,0.1221,-0.1831,1,466,873,0
68007689,1077,-0.0146,-0.0210,1.0244,0.0610,0.1221,-0.0610,1,465,870,0
68012691,1078,-0.0137,-0.0195,1.0229,0.1221,0.1221,-0.1221,1,466,867,0
68017683,1079,-0.0137,-0.0190,1.0210,0.0000,0.1221,-0.1831,1,466,867,0
68022684,1080,-0.0142,-0.0186,1.0200,0.0610,0.1831,-0.1831,1,483,813,0
68027683,1081,-0.0127,-0.0171,1.0215,0.0000,0.3052,-0.1221,1,465,861,0
68032715,1082,-0.0117,-0.0161,1.0234,0.0610,0.2441,-0.1831,1,483,843,0
68037686,1083,-0.0122,-0.0161,1.0249,0.0000,0.2441,-0.1831,1,465,877,0
68042685,1084,-0.0137,-0.0166,1.0254,0.0000,0.2441,-0.1831,1,496,823,0
68047684,1085,-0.0156,-0.0171,1.0244,0.1831,0.2441,-0.1221,1,478,737,0
68052687,1086,-0.0156,-0.0181,1.0225,0.1831,0.3052,-0.1831,1,505,752,0
68057687,1087,-0.0146,-0.0176,1.0210,0.0610,0.3052,-0.1831,1,503,834,0
68062689,1088,-0.0142,-0.0176,1.0215,0.1221,0.2441,-0.0610,1,486,821,0
68067687,1089,-0.0151,-0.0190,1.0215,0.1221,0.3052,-0.1831,1,497,821,0
68072687,1090,-0.0151,-0.0190,1.0215,0.0610,0.3052,-0.2441,1,482,850,0
68077686,1091,-0.0137,-0.0176,1.0215,0.0610,0.1221,-0.2441,1,488,842,0
68082690,1092,-0.0137,-0.0166,1.0229,0.0610,0.1831,-0.1831,1,469,840,0
68087686,1093,-0.0142,-0.0161,1.0239,0.0000,0.2441,-0.3052,1,493,848,0
68092685,1094,-0.0137,-0.0161,1.0244,-0.1221,0.2441,-0.3052,1,466,829,0
68097682,1095,-0.0142,-0.0171,1.0234,-0.0610,0.1831,-0.3052,1,466,873,0
68102685,1096,-0.0151,-0.0186,1.0229,0.0000,0.1221,-0.1831,1,466,870,0
68107683,1097,-0.0156,-0.0190,1.0225,-0.0610,0.2441,-0.1831,1,466,830,0
68112685,1098,-0.0146,-0.0195,1.0220,0.0000,0.1221,-0.1831,1,466,877,0
68117685,1099,-0.0127,-0.0190,1.0205,0.0610,0.1831,-0.1831,1,465,830,0
68122700,1100,-0.0127,-0.0190,1.0200,0.1221,0.1831,-0.1831,1,466,876,0
68127686,1101,-0.0137,-0.0186,1.0205,0.1221,0.1831,-0.1221,1,466,871,0
68132687,1102,-0.0142,-0.0181,1.0205,0.1831,0.1831,-0.0610,1,484,868,0
68137682,1103,-0.0142,-0.0171,1.0220,0.1831,0.1831,-0.1221,1,477,860,0
68142711,1104,-0.0137,-0.0161,1.0234,0.2441,0.2441,-0.1831,1,466,867,0
68147688,1105,-0.0146,-0.0161,1.0234,0.1831,0.1221,-0.1221,1,465,907,0
68152690,1106,-0.0156,-0.0176,1.0234,0.0000,0.3052,-0.1221,1,471,863,0
68157688,1107,-0.0142,-0.0190,1.0244,0.0610,0.3662,-0.1221,1,496,737,0
68162685,1108,-0.0132,-0.0190,1.0249,0.0610,0.3052,-0.2441,1,477,833,0
68167685,1109,-0.0117,-0.0176,1.0234,0.0000,0.3052,-0.2441,1,504,833,0
68172689,1110,-0.0107,-0.0171,1.0220,0.0000,0.2441,-0.2441,1,506,780,0
68177687,1111,-0.0112,-0.0171,1.0210,0.0610,0.2441,-0.2441,1,492,781,0
68182689,1112,-0.0122,-0.0166,1.0215,0.0000,0.2441,-0.1831,1,481,843,0
68187685,1113,-0.0127,-0.0166,1.0234,-0.0610,0.1831,-0.1831,1,486,804,0
68192682,1114,-0.0127,-0.0161,1.0249,-0.0610,0.1831,-0.3052,1,491,850,0
68197690,1115,-0.0122,-0.0161,1.0249,-0.0610,0.2441,-0.1831,1,466,844,0
68202685,1116,-0.0122,-0.0171,1.0244,0.0610,0.1831,-0.2441,1,466,881,0
68207682,1117,-0.0142,-0.0176,1.0239,0.0000,0.2441,-0.1221,1,466,876,0
68212690,1118,-0.0161,-0.0176,1.0229,-0.0610,0.2441,-0.1831,1,466,828,0
68217682,1119,-0.0156,-0.0186,1.0220,0.0000,0.2441,-0.1831,1,466,880,0
68222682,1120,-0.0137,-0.0186,1.0215,0.0000,0.1831,-0.1831,1,466,831,0
68227690,1121,-0.0127,-0.0186,1.0220,0.1221,0.1831,-0.2441,1,465,829,0
68232688,1122,-0.0132,-0.0181,1.0220,0.1831,0.2441,-0.1831,1,466,873,0
68237687,1123,-0.0137,-0.0176,1.0210,0.1221,0.1831,-0.2441,1,483,875,0
68242688,1124,-0.0137,-0.0176,1.0210,0.0000,0.1221,-0.1831,1,466,859,0
68247686,1125,-0.0146,-0.0166,1.0225,0.0000,0.2441,-0.2441,1,484,819,0
68252687,1126,-0.0156,-0.0166,1.0249,-0.0610,0.2441,-0.2441,1,465,900,0
68257687,1127,-0.0146,-0.0181,1.0249,-0.0610,0.2441,-0.3052,1,500,906,0
68262686,1128,-0.0142,-0.0186,1.0234,0.0000,0.1831,-0.3052,1,480,860,0
68267684,1129,-0.0146,-0.0176,1.0220,0.0000,0.1831,-0.2441,1,507,732,0
68272690,1130,-0.0151,-0.0171,1.0205,-0.1831,0.2441,-0.1221,1,485,784,0
68277683,1131,-0.0142,-0.0181,1.0205,-0.1221,0.2441,-0.1831,1,505,836,0
68282691,1132,-0.0137,-0.0181,1.0210,-0.1221,0.1831,-0.1831,1,487,823,0
68287691,1133,-0.0142,-0.0171,1.0225,-0.0610,0.1221,-0.1831,1,499,820,0
68292683,1134,-0.0151,-0.0171,1.0239,0.0000,0.1831,-0.1831,1,490,837,0
68297688,1135,-0.0151,-0.0161,1.0234,0.0000,0.2441,-0.2441,1,483,803,0
68302687,1136,-0.0142,-0.0156,1.0220,-0.0610,0.3052,-0.2441,1,493,807,0
68307690,1137,-0.0137,-0.0161,1.0205,-0.0610,0.2441,-0.2441,1,493,842,0
68312690,1138,-0.0142,-0.0176,1.0215,0.0000,0.1831,-0.3052,1,466,876,0
68317684,1139,-0.0142,-0.0200,1.0220,0.1221,0.1831,-0.3052,1,466,824,0
68322690,1140,-0.0132,-0.0210,1.0205,0.0000,0.1221,-0.2441,1,465,867,0
68327684,1141,-0.0127,-0.0190,1.0195,0.0610,0.2441,-0.1221,1,466,824,0
68332683,1142,-0.0132,-0.0161,1.0205,0.0610,0.3052,-0.1221,1,466,871,0
68337690,1143,-0.0137,-0.0146,1.0215,0.0610,0.1831,-0.2441,1,466,865,0
68342685,1144,-0.0137,-0.0137,1.0220,0.0000,0.1221,-0.1221,1,466,876,0
68347690,1145,-0.0127,-0.0146,1.0229,0.0000,0.3052,-0.1221,1,484,808,0
68352690,1146,-0.0127,-0.0171,1.0249,0.1221,0.3052,-0.2441,1,465,814,0
68357706,1147,-0.0137,-0.0176,1.0259,0.0000,0.2441,-0.2441,1,484,802,0
68362683,1148,-0.0142,-0.0181,1.0249,-0.0610,0.2441,-0.2441,1,465,903,0
68367690,1149,-0.0142,-0.0186,1.0225,-0.0610,0.1831,-0.2441,1,465,863,0
68372685,1150,-0.0132,-0.0181,1.0195,-0.0610,0.1831,-0.2441,1,503,862,0
68377687,1151,-0.0127,-0.0186,1.0186,0.0000,0.1831,-0.2441,1,493,780,0
68382687,1152,-0.0132,-0.0186,1.0190,0.0610,0.1221,-0.1831,1,492,780,0
68387685,1153,-0.0137,-0.0176,1.0205,0.0000,0.1831,-0.1221,1,497,822,0
68392688,1154,-0.0142,-0.0171,1.0220,0.0610,0.2441,-0.1831,1,497,777,0
68397690,1155,-0.0151,-0.0166,1.0229,0.0000,0.2441,-0.1831,1,485,862,0
68402683,1156,-0.0156,-0.0156,1.0225,0.0610,0.2441,-0.2441,1,490,806,0
68407688,1157,-0.0151,-0.0166,1.0229,0.0000,0.3052,-0.3662,1,474,848,0
68412684,1158,-0.0132,-0.0186,1.0234,0.0000,0.2441,-0.2441,1,492,803,0
68417686,1159,-0.0122,-0.0205,1.0229,0.0000,0.1831,-0.1831,1,466,831,0
68422686,1160,-0.0127,-0.0205,1.0225,0.0610,0.2441,-0.2441,1,466,834,0
68427688,1161,-0.0132,-0.0190,1.0215,0.0000,0.2441,-0.2441,1,466,874,0
68432689,1162,-0.0132,-0.0176,1.0205,0.0610,0.2441,-0.2441,1,466,831,0
68437686,1163,-0.0127,-0.0166,1.0195,0.0000,0.3052,-0.1831,1,466,873,0
68442694,1164,-0.0127,-0.0156,1.0210,-0.0610,0.3052,-0.3052,1,466,827,0
68447682,1165,-0.0137,-0.0151,1.0234,0.0610,0.3052,-0.1831,1,466,864,0
68452690,1166,-0.0142,-0.0151,1.0254,0.0610,0.1831,-0.1831,1,484,872,0
68457688,1167,-0.0142,-0.0161,1.0259,-0.0610,0.2441,-0.3052,1,469,864,0
68462711,1168,-0.0142,-0.0166,1.0244,0.0000,0.2441,-0.3052,1,484,805,0
68467687,1169,-0.0132,-0.0171,1.0225,-0.0610,0.1831,-0.1831,1,466,907,0
68472690,1170,-0.0127,-0.0171,1.0215,0.0000,0.3052,-0.1831,1,466,860,0
68477687,1171,-0.0117,-0.0176,1.0220,0.0000,0.2441,-0.1221,1,465,737,0
68482688,1172,-0.0112,-0.0186,1.0220,0.0610,0.1831,-0.1831,1,495,787,0
68487689,1173,-0.0117,-0.0181,1.0220,0.1221,0.1221,-0.1831,1,494,837,0
68492691,1174,-0.0132,-0.0161,1.0220,0.1221,0.2441,-0.1831,1,494,818,0
68497689,1175,-0.0137,-0.0146,1.0215,0.0610,0.2441,-0.1221,1,491,827,0
68502685,1176,-0.0142,-0.0142,1.0220,0.1221,0.1831,-0.1221,1,483,862,0
68507688,1177,-0.0142,-0.0151,1.0229,0.0000,0.1221,-0.1831,1,486,838,0
68512687,1178,-0.0142,-0.0176,1.0239,0.0610,0.0610,-0.1831,1,490,799,0
68517689,1179,-0.0151,-0.0195,1.0239,0.0610,0.1831,-0.1221,1,493,843,0
68522689,1180,-0.0151,-0.0195,1.0234,0.1221,0.1831,-0.2441,1,466,876,0
68527683,1181,-0.0146,-0.0186,1.0225,0.0610,0.1831,-0.1831,1,466,880,0
68532689,1182,-0.0142,-0.0181,1.0225,0.1221,0.2441,-0.1221,1,466,875,0
68537684,1183,-0.0142,-0.0176,1.0215,0.0610,0.0610,-0.2441,1,466,865,0
68542688,1184,-0.0137,-0.0166,1.0210,0.0000,0.1221,-0.1831,1,466,869,0
68547689,1185,-0.0137,-0.0166,1.0220,0.1221,0.0610,-0.1221,1,466,824,0
68552689,1186,-0.0142,-0.0151,1.0229,0.1221,0.3052,-0.1831,1,465,868,0
68557686,1187,-0.0151,-0.0151,1.0239,0.0610,0.2441,-0.1221,1,483,872,0
68562682,1188,-0.0161,-0.0161,1.0234,0.1831,0.1831,-0.0610,1,465,865,0
68567702,1189,-0.0161,-0.0176,1.0220,0.0610,0.1831,-0.1221,1,484,869,0
68572686,1190,-0.0151,-0.0190,1.0210,0.0000,0.1831,-0.1831,1,465,897,0
68577686,1191,-0.0137,-0.0190,1.0210,0.1221,0.2441,-0.1221,1,469,819,0
68582685,1192,-0.0127,-0.0190,1.0205,0.1221,0.1221,-0.1831,1,478,863,0
68587688,1193,-0.0127,-0.0186,1.0210,0.0610,0.3052,-0.2441,1,506,748,0
68592689,1194,-0.0142,-0.0181,1.0225,0.0000,0.2441,-0.1831,1,482,829,0
68597688,1195,-0.0142,-0.0156,1.0225,0.0000,0.1221,-0.1831,1,485,779,0
68602689,1196,-0.0137,-0.0151,1.0210,0.0000,0.1831,-0.3052,1,506,778,0
68607686,1197,-0.0137,-0.0161,1.0229,0.0000,0.1831,-0.1221,1,490,777,0
68612687,1198,-0.0142,-0.0166,1.0244,0.0000,0.1831,-0.1831,1,476,800,0
68617690,1199,-0.0142,-0.0171,1.0239,0.0000,0.1221,-0.1831,1,483,805,0
68622688,1200,-0.0137,-0.0176,1.0229,0.0610,0.1831,-0.0610,1,492,797,0
68627682,1201,-0.0142,-0.0181,1.0210,0.0610,0.2441,-0.1831,1,465,870,0
68632688,1202,-0.0151,-0.0176,1.0210,-0.0610,0.1831,-0.1831,1,466,870,0
68637684,1203,-0.0151,-0.0176,1.0220,0.0610,0.1831,-0.1831,1,466,874,0
68642685,1204,-0.0132,-0.0176,1.0220,0.0000,0.3052,-0.1831,1,466,877,0
68647686,1205,-0.0132,-0.0166,1.0220,0.1221,0.3052,-0.0610,1,466,823,0
68652683,1206,-0.0132,-0.0146,1.0225,0.0000,0.2441,-0.2441,1,466,866,0
68657689,1207,-0.0137,-0.0142,1.0225,0.0610,0.1221,-0.3052,1,466,831,0
68662683,1208,-0.0146,-0.0156,1.0225,0.0000,0.3052,-0.2441,1,466,862,0
68667690,1209,-0.0146,-0.0186,1.0244,0.0000,0.2441,-0.1831,1,465,763,0
68672690,1210,-0.0132,-0.0195,1.0249,-0.0610,0.2441,-0.2441,1,482,824,0
68677708,1211,-0.0127,-0.0190,1.0239,-0.1831,0.3052,-0.2441,1,465,876,0
68682688,1212,-0.0132,-0.0181,1.0220,-0.1221,0.3052,-0.1221,1,476,901,0
68687688,1213,-0.0137,-0.0171,1.0210,-0.1221,0.1831,-0.1221,1,503,849,0
68692690,1214,-0.0132,-0.0161,1.0215,-0.0610,0.0610,-0.2441,1,507,862,0
68697687,1215,-0.0132,-0.0166,1.0234,0.0000,0.2441,-0.3052,1,467,835,0
68702682,1216,-0.0137,-0.0171,1.0254,0.0000,0.3052,-0.1221,1,496,781,0
68707686,1217,-0.0137,-0.0171,1.0254,0.0610,0.2441,-0.2441,1,497,790,0
68712682,1218,-0.0142,-0.0176,1.0239,0.0000,0.2441,-0.1831,1,499,824,0
68717689,1219,-0.0151,-0.0181,1.0220,0.0000,0.1831,-0.3052,1,492,802,0
68722688,1220,-0.0146,-0.0186,1.0205,0.0000,0.1221,-0.2441,1,473,795,0
68727684,1221,-0.0137,-0.0186,1.0215,0.0610,0.1831,-0.0610,1,492,799,0
68732685,1222,-0.0137,-0.0186,1.0220,-0.0610,0.1831,-0.2441,1,466,867,0
68737689,1223,-0.0137,-0.0190,1.0210,0.0000,0.1221,-0.1831,1,466,873,0
68742682,1224,-0.0146,-0.0190,1.0215,0.1221,0.1831,-0.1831,1,466,823,0
68747684,1225,-0.0151,-0.0181,1.0225,0.1221,0.1831,-0.1221,1,466,877,0
68752685,1226,-0.0146,-0.0156,1.0229,0.0610,0.2441,-0.1221,1,466,867,0
68757685,1227,-0.0132,-0.0151,1.0239,0.0610,0.3052,-0.2441,1,466,877,0
68762699,1228,-0.0132,-0.0166,1.0244,0.0000,0.2441,-0.1831,1,466,872,0
68767684,1229,-0.0142,-0.0190,1.0239,0.0000,0.1831,-0.1221,1,466,833,0
68772689,1230,-0.0151,-0.0210,1.0225,0.0610,0.3052,-0.3052,1,484,816,0
68777691,1231,-0.0146,-0.0200,1.0210,0.0000,0.3662,-0.3052,1,469,854,0
68782691,1232,-0.0142,-0.0181,1.0210,0.0610,0.1831,-0.1831,1,484,850,0
68787683,1233,-0.0137,-0.0176,1.0215,-0.0610,0.3052,-0.1221,1,474,895,0
68792687,1234,-0.0132,-0.0166,1.0215,-0.0610,0.1831,-0.1831,1,507,932,0
68797685,1235,-0.0122,-0.0156,1.0220,0.0000,0.1221,-0.1221,1,486,872,0
68802687,1236,-0.0117,-0.0156,1.0234,0.0000,0.1831,-0.1831,1,493,739,0
68807684,1237,-0.0127,-0.0156,1.0234,0.0000,0.1831,-0.1221,1,491,785,0
68812689,1238,-0.0142,-0.0166,1.0225,0.0000,0.2441,-0.0610,1,496,779,0
68817688,1239,-0.0142,-0.0186,1.0225,0.0000,0.1221,-0.1221,1,506,781,0
68822690,1240,-0.0142,-0.0195,1.0229,0.0610,0.1221,-0.3052,1,478,790,0
68827687,1241,-0.0146,-0.0181,1.0244,0.0000,0.2441,-0.1831,1,481,839,0
68832686,1242,-0.0146,-0.0171,1.0249,0.0000,0.3052,-0.2441,1,490,803,0
68837683,1243,-0.0132,-0.0171,1.0234,-0.0610,0.2441,-0.3662,1,493,798,0
68842684,1244,-0.0132,-0.0171,1.0215,-0.0610,0.2441,-0.1831,1,466,845,0
68847682,1245,-0.0142,-0.0166,1.0210,-0.1221,0.2441,-0.1831,1,466,871,0
68852684,1246,-0.0142,-0.0166,1.0215,0.0000,0.1221,-0.1831,1,466,874,0
68857685,1247,-0.0146,-0.0166,1.0234,-0.0610,0.3052,-0.2441,1,466,827,0
68862683,1248,-0.0156,-0.0166,1.0249,-0.0610,0.3662,-0.2441,1,466,877,0
68867690,1249,-0.0151,-0.0181,1.0239,0.0610,0.2441,-0.3052,1,466,879,0
68872684,1250,-0.0142,-0.0186,1.0220,0.1221,0.1221,-0.2441,1,466,870,0
68877683,1251,-0.0142,-0.0181,1.0210,0.0610,0.1221,-0.0610,1,483,868,0
68882689,1252,-0.0142,-0.0176,1.0215,0.0000,0.1221,-0.2441,1,465,851,0
68887690,1253,-0.0142,-0.0181,1.0210,0.0000,0.1221,-0.1831,1,484,822,0
68892690,1254,-0.0142,-0.0176,1.0215,-0.0610,0.1221,-0.1831,1,466,809,0
68897688,1255,-0.0137,-0.0156,1.0229,0.0610,0.0610,-0.1831,1,474,894,0
68902690,1256,-0.0137,-0.0146,1.0234,0.1221,0.3052,-0.2441,1,482,861,0
68907688,1257,-0.0132,-0.0151,1.0239,0.1221,0.3662,-0.2441,1,507,870,0
68912682,1258,-0.0142,-0.0161,1.0234,0.0000,0.2441,-0.2441,1,493,783,0
68917682,1259,-0.0156,-0.0181,1.0229,0.0000,0.2441,-0.2441,1,477,787,0
68922686,1260,-0.0151,-0.0195,1.0225,-0.0610,0.2441,-0.3052,1,497,783,0
68927687,1261,-0.0137,-0.0200,1.0215,0.0000,0.2441,-0.1831,1,506,824,0
68932685,1262,-0.0137,-0.0200,1.0220,0.0000,0.3052,-0.1831,1,475,798,0
68937688,1263,-0.0146,-0.0181,1.0225,0.0000,0.3662,-0.1831,1,483,793,0
68942683,1264,-0.0151,-0.0161,1.0210,0.0610,0.4272,-0.1831,1,476,800,0
68947689,1265,-0.0146,-0.0156,1.0205,0.0610,0.2441,-0.3052,1,493,847,0
68952689,1266,-0.0142,-0.0161,1.0225,0.0610,0.2441,-0.3052,1,465,873,0
68957688,1267,-0.0132,-0.0166,1.0249,0.0610,0.2441,-0.2441,1,466,871,0
68962689,1268,-0.0132,-0.0166,1.0264,0.0610,0.1831,-0.1221,1,466,878,0
68967690,1269,-0.0137,-0.0176,1.0254,0.0610,0.2441,-0.2441,1,466,870,0
68972685,1270,-0.0142,-0.0181,1.0215,0.0610,0.3052,-0.2441,1,466,874,0
68977693,1271,-0.0151,-0.0181,1.0186,0.0000,0.1831,-0.1831,1,466,866,0
68982682,1272,-0.0142,-0.0186,1.0190,-0.0610,0.3052,-0.2441,1,466,828,0
68987682,1273,-0.0122,-0.0181,1.0215,-0.0610,0.1831,-0.2441,1,484,869,0
68992690,1274,-0.0112,-0.0181,1.0225,0.1221,0.2441,-0.1831,1,466,863,0
68997688,1275,-0.0112,-0.0181,1.0220,0.1221,0.3052,-0.1221,1,485,860,0
69002686,1276,-0.0127,-0.0181,1.0220,0.1221,0.1831,-0.1831,1,465,902,0
69007687,1277,-0.0142,-0.0171,1.0220,0.0610,0.2441,-0.2441,1,492,930,0
69012690,1278,-0.0146,-0.0176,1.0220,0.0000,0.2441,-0.2441,1,492,861,0
69017682,1279,-0.0146,-0.0176,1.0220,0.0000,0.1831,-0.1221,1,491,738,0
69022685,1280,-0.0151,-0.0186,1.0215,0.0610,0.1221,-0.2441,1,477,779,0
69027686,1281,-0.0151,-0.0200,1.0205,0.0610,0.2441,-0.2441,1,499,823,0
69032682,1282,-0.0151,-0.0200,1.0205,-0.0610,0.1831,-0.1831,1,497,828,0
69037684,1283,-0.0142,-0.0186,1.0200,0.0000,0.0610,-0.1221,1,477,829,0
69042683,1284,-0.0137,-0.0156,1.0195,0.0610,0.1221,-0.1831,1,473,790,0
69047685,1285,-0.0142,-0.0146,1.0205,0.0000,0.2441,-0.2441,1,481,843,0
69052684,1286,-0.0142,-0.0156,1.0225,-0.1221,0.2441,-0.3052,1,483,803,0
69057690,1287,-0.0132,-0.0166,1.0234,-0.1831,0.2441,-0.3052,1,493,840,0
69062688,1288,-0.0132,-0.0151,1.0244,-0.1831,0.1831,-0.2441,1,466,877,0
69067686,1289,-0.0146,-0.0146,1.0244,-0.0610,0.1831,-0.1831,1,466,883,0
69072683,1290,-0.0156,-0.0161,1.0239,0.0000,0.3052,-0.3052,1,466,883,0
69077683,1291,-0.0156,-0.0176,1.0225,-0.0610,0.1221,-0.2441,1,466,826,0
69082685,1292,-0.0156,-0.0200,1.0205,-0.0610,0.2441,-0.2441,1,466,871,0
69087702,1293,-0.0146,-0.0210,1.0195,-0.0610,0.2441,-0.2441,1,466,876,0
69092685,1294,-0.0137,-0.0195,1.0200,-0.0610,0.1221,-0.2441,1,466,877,0
69097690,1295,-0.0137,-0.0156,1.0210,-0.1221,0.1221,-0.3052,1,484,870,0
69102684,1296,-0.0132,-0.0132,1.0220,-0.1221,0.1221,-0.3662,1,473,851,0
69107689,1297,-0.0127,-0.0137,1.0225,-0.1221,0.1831,-0.2441,1,465,865,0
69112682,1298,-0.0122,-0.0156,1.0229,0.0610,0.3052,-0.3052,1,483,897,0
69117689,1299,-0.0122,-0.0176,1.0244,0.0000,0.3662,-0.1831,1,493,859,0
69122687,1300,-0.0132,-0.0181,1.0254,-0.0610,0.3052,-0.1831,1,466,739,0
69127689,1301,-0.0146,-0.0171,1.0244,0.0610,0.3662,-0.3052,1,493,772,0
69132685,1302,-0.0151,-0.0171,1.0220,0.0610,0.4272,-0.3662,1,496,833,0
69137683,1303,-0.0146,-0.0181,1.0200,0.0610,0.3052,-0.1831,1,503,825,0
69142690,1304,-0.0132,-0.0190,1.0195,0.0610,0.3052,-0.1221,1,497,821,0
69147684,1305,-0.0117,-0.0195,1.0215,0.0000,0.1831,-0.1221,1,471,837,0
69152690,1306,-0.0122,-0.0186,1.0234,0.0610,0.3052,-0.2441,1,489,797,0
69157688,1307,-0.0132,-0.0176,1.0225,0.1831,0.3052,-0.3052,1,491,843,0
69162689,1308,-0.0137,-0.0171,1.0215,0.0610,0.2441,-0.3052,1,493,837,0
69167686,1309,-0.0146,-0.0171,1.0210,-0.0610,0.2441,-0.2441,1,466,865,0
69172684,1310,-0.0156,-0.0176,1.0220,-0.1221,0.3662,-0.1831,1,466,874,0
69177683,1311,-0.0161,-0.0181,1.0234,0.0610,0.2441,-0.1831,1,466,875,0
69182682,1312,-0.0161,-0.0186,1.0225,-0.0610,0.1831,-0.2441,1,466,876,0
69187682,1313,-0.0142,-0.0186,1.0200,-0.0610,0.2441,-0.1831,1,465,877,0
69192691,1314,-0.0137,-0.0186,1.0195,-0.0610,0.3052,-0.2441,1,466,873,0
69197685,1315,-0.0146,-0.0176,1.0205,-0.1221,0.3662,-0.1831,1,466,870,0
69202688,1316,-0.0151,-0.0151,1.0215,-0.1831,0.1831,-0.1221,1,483,875,0
69207687,1317,-0.0151,-0.0137,1.0225,-0.1221,0.1221,-0.1831,1,466,866,0
69212686,1318,-0.0146,-0.0146,1.0239,-0.1831,0.2441,-0.3052,1,484,806,0
69217690,1319,-0.0137,-0.0161,1.0244,-0.0610,0.1831,-0.3052,1,476,907,0
69222682,1320,-0.0132,-0.0186,1.0229,0.0000,0.2441,-0.2441,1,471,933,0
69227689,1321,-0.0146,-0.0186,1.0205,0.0000,0.2441,-0.1831,1,467,738,0
69232683,1322,-0.0151,-0.0176,1.0195,-0.1221,0.3052,-0.3052,1,510,738,0
69237687,1323,-0.0142,-0.0176,1.0190,-0.1221,0.1831,-0.2441,1,496,772,0
69242687,1324,-0.0132,-0.0190,1.0190,0.0610,0.1831,-0.0610,1,494,825,0
69247689,1325,-0.0122,-0.0200,1.0200,0.1221,0.1831,-0.0610,1,502,824,0
69252690,1326,-0.0117,-0.0186,1.0215,0.0000,0.1221,-0.2441,1,491,821,0
69257685,1327,-0.0127,-0.0166,1.0229,-0.0610,0.3662,-0.2441,1,476,795,0
69262684,1328,-0.0142,-0.0146,1.0239,-0.0610,0.1831,-0.1221,1,488,849,0
69267688,1329,-0.0151,-0.0146,1.0239,0.0610,0.1221,-0.2441,1,493,845,0
69272683,1330,-0.0151,-0.0161,1.0239,0.0610,0.1831,-0.1831,1,466,875,0
69277688,1331,-0.0151,-0.0181,1.0239,0.0000,0.1831,-0.2441,1,465,880,0
69282682,1332,-0.0137,-0.0200,1.0239,0.0000,0.2441,-0.2441,1,466,832,0
69287691,1333,-0.0132,-0.0200,1.0234,0.0610,0.1221,-0.1831,1,466,831,0
69292683,1334,-0.0132,-0.0181,1.0210,0.1221,0.2441,-0.1221,1,466,870,0
69297684,1335,-0.0137,-0.0156,1.0200,0.1221,0.1221,-0.1831,1,465,864,0
69302684,1336,-0.0137,-0.0146,1.0200,0.1221,0.0610,-0.1831,1,466,868,0
69307686,1337,-0.0132,-0.0146,1.0200,0.0000,0.2441,-0.1831,1,466,871,0
69312686,1338,-0.0132,-0.0146,1.0215,0.0000,0.2441,-0.2441,1,466,820,0
69317685,1339,-0.0137,-0.0166,1.0239,0.0610,0.2441,-0.3052,1,477,766,0
69322686,1340,-0.0151,-0.0181,1.0239,0.0610,0.1831,-0.1831,1,465,871,0
69327682,1341,-0.0166,-0.0176,1.0229,0.1221,0.1221,-0.1831,1,477,902,0
69332688,1342,-0.0161,-0.0171,1.0215,0.0610,0.2441,-0.1831,1,505,931,0
69337690,1343,-0.0156,-0.0186,1.0210,0.0000,0.1831,-0.1831,1,477,870,0
69342685,1344,-0.0151,-0.0210,1.0205,0.0000,0.1221,-0.1831,1,498,735,0
69347684,1345,-0.0132,-0.0215,1.0205,-0.0610,0.3662,-0.1831,1,502,788,0
69352688,1346,-0.0132,-0.0186,1.0220,-0.0610,0.2441,-0.2441,1,506,836,0
69357689,1347,-0.0137,-0.0161,1.0234,0.0610,0.0610,-0.1221,1,493,826,0
69362689,1348,-0.0127,-0.0142,1.0234,0.0610,0.1221,-0.3052,1,499,822,0
69367688,1349,-0.0122,-0.0132,1.0239,0.0610,0.0610,-0.2441,1,488,836,0
69372683,1350,-0.0132,-0.0156,1.0244,0.0000,0.1831,-0.1221,1,472,846,0
69377683,1351,-0.0137,-0.0181,1.0239,-0.0610,0.3662,-0.1221,1,469,799,0
69382684,1352,-0.0137,-0.0190,1.0239,-0.0610,0.1831,-0.2441,1,493,840,0
69387683,1353,-0.0137,-0.0195,1.0220,0.0000,0.2441,-0.2441,1,466,876,0
69392685,1354,-0.0127,-0.0195,1.0205,0.0610,0.1221,-0.1831,1,466,831,0
69397688,1355,-0.0127,-0.0186,1.0200,-0.1221,0.1221,-0.1831,1,466,870,0
69402690,1356,-0.0132,-0.0171,1.0215,-0.0610,0.2441,-0.1831,1,466,867,0
69407682,1357,-0.0132,-0.0161,1.0229,0.0000,0.1831,-0.2441,1,466,871,0
69412686,1358,-0.0132,-0.0156,1.0244,-0.1221,0.1831,-0.1831,1,465,835,0
69417690,1359,-0.0127,-0.0156,1.0244,-0.1221,0.2441,-0.2441,1,466,876,0
69422689,1360,-0.0137,-0.0156,1.0239,0.0610,0.1831,-0.2441,1,483,878,0
69427685,1361,-0.0146,-0.0156,1.0229,0.0000,0.0610,-0.1831,1,465,877,0
69432687,1362,-0.0146,-0.0181,1.0229,-0.0610,0.2441,-0.1831,1,484,776,0
69437714,1363,-0.0146,-0.0210,1.0234,-0.0610,0.1831,-0.2441,1,465,904,0
69442688,1364,-0.0137,-0.0215,1.0225,0.0000,0.1831,-0.2441,1,474,904,0
69447684,1365,-0.0127,-0.0190,1.0215,0.0000,0.1221,-0.2441,1,503,824,0
69452684,1366,-0.0132,-0.0166,1.0215,0.0000,0.0610,-0.2441,1,486,731,0
69457690,1367,-0.0137,-0.0161,1.0210,-0.0610,0.1831,-0.1831,1,508,752,0
69462682,1368,-0.0127,-0.0156,1.0220,0.0000,0.2441,-0.2441,1,482,837,0
69467682,1369,-0.0127,-0.0156,1.0229,0.0610,0.1831,-0.3662,1,491,783,0
69472689,1370,-0.0132,-0.0156,1.0229,-0.0610,0.2441,-0.3052,1,493,829,0
69477688,1371,-0.0146,-0.0166,1.0229,-0.1831,0.3052,-0.2441,1,487,842,0
69482685,1372,-0.0151,-0.0190,1.0220,0.0610,0.3052,-0.1831,1,473,851,0
69487687,1373,-0.0151,-0.0190,1.0205,0.1221,0.2441,-0.1831,1,484,843,0
69492687,1374,-0.0146,-0.0181,1.0210,0.0000,0.2441,-0.3052,1,492,847,0
69497688,1375,-0.0137,-0.0171,1.0234,0.0610,0.2441,-0.1831,1,465,821,0
69502686,1376,-0.0132,-0.0161,1.0234,0.0000,0.1221,-0.0610,1,465,874,0
69507690,1377,-0.0137,-0.0156,1.0234,0.0000,0.1221,-0.1831,1,466,826,0
69512687,1378,-0.0151,-0.0142,1.0225,0.0610,0.1831,-0.1831,1,466,829,0
69517686,1379,-0.0156,-0.0132,1.0215,0.0610,0.1831,-0.3052,1,466,876,0
69522687,1380,-0.0151,-0.0156,1.0225,0.0610,0.1831,-0.3052,1,466,869,0
69527683,1381,-0.0146,-0.0186,1.0229,-0.1221,0.3052,-0.1831,1,466,873,0
69532682,1382,-0.0146,-0.0205,1.0225,-0.0610,0.1831,-0.1831,1,484,873,0
69537690,1383,-0.0142,-0.0220,1.0205,0.0610,0.1831,-0.1831,1,466,866,0
69542685,1384,-0.0137,-0.0220,1.0190,0.0000,0.1831,-0.2441,1,484,863,0
69547692,1385,-0.0132,-0.0186,1.0186,-0.1221,0.2441,-0.2441,1,466,898,0
69552687,1386,-0.0132,-0.0166,1.0186,0.0000,0.1831,-0.3052,1,469,932,0
69557690,1387,-0.0127,-0.0156,1.0210,0.0000,0.1831,-0.1831,1,497,822,0
69562689,1388,-0.0117,-0.0161,1.0249,-0.0610,0.1831,-0.3052,1,472,734,0
69567682,1389,-0.0107,-0.0171,1.0269,-0.0610,0.1221,-0.2441,1,495,777,0
69572691,1390,-0.0122,-0.0171,1.0259,0.0000,0.1831,-0.1221,1,480,793,0
69577685,1391,-0.0146,-0.0176,1.0239,0.0000,0.1831,-0.3052,1,490,777,0
69582687,1392,-0.0161,-0.0186,1.0210,-0.0610,0.1831,-0.3052,1,496,781,0
69587687,1393,-0.0161,-0.0205,1.0195,-0.0610,0.1831,-0.1831,1,483,839,0
69592690,1394,-0.0151,-0.0215,1.0195,0.0000,0.1831,-0.1831,1,487,848,0
69597682,1395,-0.0137,-0.0215,1.0200,0.0610,0.1221,-0.1831,1,488,804,0
69602684,1396,-0.0137,-0.0195,1.0205,0.0000,0.2441,-0.1221,1,491,837,0
69607689,1397,-0.0151,-0.0161,1.0205,0.0610,0.1831,-0.1221,1,465,798,0
69612686,1398,-0.0156,-0.0142,1.0205,0.0610,0.1831,-0.2441,1,466,873,0
69617688,1399,-0.0151,-0.0156,1.0210,0.0610,0.1831,-0.2441,1,466,874,0
69622687,1400,-0.0137,-0.0171,1.0225,0.0610,0.1831,-0.1831,1,466,876,0
69627683,1401,-0.0132,-0.0181,1.0234,0.0610,0.1221,-0.1831,1,465,871,0
69632684,1402,-0.0137,-0.0181,1.0229,0.1221,0.1831,-0.1831,1,466,869,0
69637687,1403,-0.0137,-0.0186,1.0220,0.0610,0.1831,-0.1221,1,465,872,0
69642684,1404,-0.0137,-0.0186,1.0215,0.0610,0.0610,0.0000,1,466,868,0
69647686,1405,-0.0132,-0.0186,1.0220,0.0000,0.1221,-0.1221,1,483,820,0
69652682,1406,-0.0132,-0.0181,1.0220,0.1221,0.1831,-0.2441,1,465,808,0
69657683,1407,-0.0127,-0.0181,1.0220,0.1221,0.1221,-0.1831,1,484,805,0
69662709,1408,-0.0122,-0.0166,1.0234,0.0000,0.1831,-0.1831,1,466,903,0
69667682,1409,-0.0132,-0.0156,1.0239,-0.0610,0.1831,-0.2441,1,482,912,0
69672684,1410,-0.0151,-0.0166,1.0239,0.0610,0.1831,-0.3052,1,469,875,0
69677689,1411,-0.0156,-0.0181,1.0225,0.1221,0.2441,-0.3052,1,490,864,0
69682684,1412,-0.0146,-0.0190,1.0215,0.0610,0.2441,-0.1831,1,510,819,0
69687683,1413,-0.0132,-0.0195,1.0215,0.0610,0.1831,-0.2441,1,472,839,0
69692688,1414,-0.0127,-0.0195,1.0210,0.0000,0.2441,-0.1831,1,488,828,0
69697687,1415,-0.0132,-0.0190,1.0210,0.0610,0.2441,-0.1831,1,494,808,0
69702683,1416,-0.0132,-0.0176,1.0215,0.0000,0.1831,-0.1221,1,483,863,0
69707686,1417,-0.0127,-0.0156,1.0210,-0.0610,0.2441,-0.2441,1,490,795,0
69712686,1418,-0.0117,-0.0146,1.0210,-0.0610,0.2441,-0.2441,1,485,844,0
69717685,1419,-0.0122,-0.0156,1.0220,0.1221,0.3662,-0.1831,1,486,847,0
69722683,1420,-0.0137,-0.0181,1.0244,-0.0610,0.3052,-0.1831,1,493,847,0
69727686,1421,-0.0142,-0.0190,1.0254,0.0000,0.2441,-0.3052,1,466,867,0
69732691,1422,-0.0137,-0.0190,1.0239,0.0000,0.1831,-0.1831,1,466,826,0
69737683,1423,-0.0127,-0.0186,1.0220,0.0000,0.0610,-0.1831,1,466,832,0
69742686,1424,-0.0127,-0.0195,1.0200,-0.0610,0.2441,-0.3052,1,466,826,0
69747687,1425,-0.0142,-0.0181,1.0195,0.0000,0.1831,-0.1221,1,466,869,0
69752688,1426,-0.0142,-0.0171,1.0210,0.0000,0.1221,-0.1221,1,466,823,0
69757690,1427,-0.0132,-0.0171,1.0225,0.0000,0.1831,-0.2441,1,466,816,0
69762686,1428,-0.0132,-0.0151,1.0225,0.0000,0.2441,-0.3052,1,466,816,0
69767684,1429,-0.0142,-0.0137,1.0229,0.0610,0.1831,-0.3052,1,484,815,0
69772693,1430,-0.0142,-0.0142,1.0229,0.1221,0.2441,-0.1831,1,465,868,0
69777715,1431,-0.0151,-0.0151,1.0225,0.0610,0.1221,-0.1831,1,481,901,0
69782688,1432,-0.0151,-0.0171,1.0220,0.1221,0.2441,-0.1831,1,482,930,0
69787683,1433,-0.0142,-0.0186,1.0225,0.0610,0.2441,-0.1831,1,506,862,0
69792688,1434,-0.0132,-0.0190,1.0234,0.0000,0.1221,-0.2441,1,492,870,0
69797688,1435,-0.0132,-0.0195,1.0234,0.1221,0.1831,-0.2441,1,466,780,0
69802688,1436,-0.0137,-0.0186,1.0215,0.1221,0.1831,-0.3052,1,487,829,0
69807683,1437,-0.0137,-0.0166,1.0195,-0.0610,0.3662,-0.2441,1,504,818,0
69812687,1438,-0.0117,-0.0146,1.0205,0.1221,0.3052,-0.2441,1,490,830,0
69817688,1439,-0.0112,-0.0156,1.0239,0.0000,0.1831,-0.1831,1,473,841,0
69822685,1440,-0.0132,-0.0171,1.0254,-0.1221,0.2441,-0.1831,1,480,805,0
69827684,1441,-0.0146,-0.0181,1.0239,0.0000,0.2441,-0.2441,1,484,843,0
69832682,1442,-0.0146,-0.0176,1.0215,0.0000,0.3052,-0.1831,1,493,803,0
69837682,1443,-0.0151,-0.0176,1.0215,0.0000,0.1831,-0.1831,1,466,825,0
69842690,1444,-0.0166,-0.0186,1.0215,0.0000,0.2441,-0.2441,1,466,832,0
69847691,1445,-0.0151,-0.0195,1.0210,0.0610,0.3662,-0.2441,1,466,831,0
69852682,1446,-0.0127,-0.0210,1.0210,0.0610,0.2441,-0.1831,1,466,876,0
69857682,1447,-0.0132,-0.0210,1.0215,0.0000,0.2441,-0.1221,1,465,870,0
69862695,1448,-0.0142,-0.0195,1.0220,-0.0610,0.1831,-0.2441,1,466,821,0
69867683,1449,-0.0142,-0.0166,1.0215,0.0610,0.1221,-0.2441,1,466,877,0
69872686,1450,-0.0137,-0.0142,1.0225,0.1831,0.1221,-0.1221,1,484,871,0
69877685,1451,-0.0132,-0.0146,1.0244,0.1221,0.1831,-0.1221,1,466,855,0
69882682,1452,-0.0132,-0.0176,1.0249,0.0000,0.3052,-0.1831,1,484,862,0
69887695,1453,-0.0127,-0.0195,1.0234,0.1221,0.1831,-0.1831,1,465,815,0
69892685,1454,-0.0127,-0.0195,1.0220,0.1221,0.2441,-0.1831,1,476,932,0
69897688,1455,-0.0137,-0.0186,1.0215,0.0610,0.3052,-0.2441,1,509,864,0
69902685,1456,-0.0142,-0.0181,1.0215,0.0000,0.2441,-0.0610,1,486,774,0
69907684,1457,-0.0127,-0.0176,1.0220,0.0610,0.0610,-0.1831,1,493,738,0
69912684,1458,-0.0122,-0.0166,1.0220,0.0610,0.1831,-0.3052,1,491,794,0
69917688,1459,-0.0127,-0.0171,1.0220,0.0610,0.3052,-0.1831,1,487,823,0
69922687,1460,-0.0132,-0.0176,1.0210,0.1221,0.1831,-0.1831,1,504,817,0
69927684,1461,-0.0137,-0.0181,1.0220,-0.0610,0.1221,-0.1221,1,491,840,0
69932683,1462,-0.0151,-0.0176,1.0234,0.0610,0.2441,-0.0610,1,480,834,0
69937688,1463,-0.0166,-0.0171,1.0234,0.0000,0.3052,-0.2441,1,484,846,0
69942684,1464,-0.0161,-0.0186,1.0225,0.0000,0.1831,-0.3662,1,492,798,0
69947684,1465,-0.0142,-0.0205,1.0215,0.0000,0.1221,-0.1831,1,494,802,0
69952688,1466,-0.0127,-0.0200,1.0215,-0.0610,0.1221,-0.3052,1,466,825,0
69957683,1467,-0.0132,-0.0186,1.0210,0.0000,0.1831,-0.2441,1,466,862,0
69962689,1468,-0.0137,-0.0166,1.0200,-0.0610,0.3052,-0.1831,1,466,827,0
69967685,1469,-0.0127,-0.0151,1.0205,0.0610,0.1831,-0.1831,1,466,870,0
69972688,1470,-0.0117,-0.0151,1.0225,0.0610,0.1221,-0.2441,1,466,876,0
69977683,1471,-0.0127,-0.0166,1.0249,-0.0610,0.2441,-0.2441,1,465,872,0
69982684,1472,-0.0142,-0.0186,1.0264,-0.0610,0.3052,-0.3052,1,466,878,0
69987685,1473,-0.0146,-0.0186,1.0249,0.0610,0.2441,-0.2441,1,466,851,0
69992683,1474,-0.0146,-0.0176,1.0225,0.0000,0.1831,-0.2441,1,483,867,0
69997688,1475,-0.0146,-0.0181,1.0210,-0.1221,0.0610,-0.2441,1,465,889,0
70002691,1476,-0.0151,-0.0190,1.0205,-0.1221,0.2441,-0.2441,1,466,930,0
70007691,1477,-0.0146,-0.0195,1.0200,0.0000,0.2441,-0.1831,1,508,932,0
70012686,1478,-0.0132,-0.0200,1.0205,0.0000,0.2441,-0.1831,1,467,745,0
70017687,1479,-0.0122,-0.0195,1.0215,-0.0610,0.2441,-0.2441,1,498,734,0
70022687,1480,-0.0132,-0.0181,1.0225,-0.1221,0.2441,-0.3662,1,479,794,0
70027686,1481,-0.0142,-0.0166,1.0229,-0.1221,0.3052,-0.2441,1,483,822,0
70032687,1482,-0.0151,-0.0166,1.0229,-0.1221,0.1831,-0.2441,1,509,825,0
70037683,1483,-0.0156,-0.0181,1.0225,-0.1221,0.1831,-0.2441,1,477,851,0
70042688,1484,-0.0156,-0.0190,1.0225,-0.1221,0.3052,-0.1831,1,491,843,0
70047690,1485,-0.0151,-0.0200,1.0225,-0.0610,0.3052,-0.3052,1,486,842,0
70052688,1486,-0.0146,-0.0190,1.0220,0.0000,0.2441,-0.2441,1,487,836,0
70057691,1487,-0.0132,-0.0171,1.0205,0.0610,0.1831,-0.3052,1,466,804,0
70062686,1488,-0.0127,-0.0161,1.0190,0.0610,0.1831,-0.3052,1,466,864,0
70067691,1489,-0.0132,-0.0166,1.0200,0.0000,0.3052,-0.2441,1,466,871,0
70072689,1490,-0.0122,-0.0176,1.0220,0.0610,0.1221,-0.1831,1,466,826,0
70077691,1491,-0.0127,-0.0176,1.0234,0.1221,0.1831,-0.2441,1,466,871,0
70082686,1492,-0.0127,-0.0171,1.0244,-0.0610,0.2441,-0.2441,1,466,874,0
70087687,1493,-0.0127,-0.0171,1.0234,0.0610,0.3052,-0.3052,1,466,874,0
70092689,1494,-0.0132,-0.0176,1.0220,0.1221,0.2441,-0.1831,1,483,864,0
70097683,1495,-0.0142,-0.0176,1.0215,0.0610,0.2441,-0.0610,1,465,861,0
70102690,1496,-0.0142,-0.0181,1.0205,0.1221,0.1831,-0.1221,1,484,803,0
70107702,1497,-0.0127,-0.0181,1.0210,0.0610,0.0610,-0.1221,1,465,893,0
70112688,1498,-0.0117,-0.0176,1.0225,0.0000,0.1831,-0.1221,1,465,932,0
70117687,1499,-0.0122,-0.0176,1.0229,0.1221,0.2441,-0.2441,1,477,821,0
70122682,1500,-0.0132,-0.0166,1.0229,0.0610,0.1221,-0.1831,1,482,865,0
70127683,1501,-0.0137,-0.0146,1.0229,0.0610,0.2441,-0.1831,1,493,776,0
70132689,1502,-0.0142,-0.0151,1.0234,0.3052,0.1831,-0.1831,1,471,840,0
70137689,1503,-0.0146,-0.0166,1.0244,0.1221,0.2441,-0.1221,1,506,829,0
70142689,1504,-0.0151,-0.0176,1.0244,0.1221,0.1221,-0.1221,1,494,829,0
70147683,1505,-0.0151,-0.0190,1.0220,0.1221,0.2441,-0.2441,1,473,839,0
70152685,1506,-0.0146,-0.0190,1.0190,0.1221,0.3052,-0.1831,1,487,847,0
70157690,1507,-0.0146,-0.0181,1.0186,0.1831,0.3052,-0.1831,1,491,842,0
70162683,1508,-0.0132,-0.0181,1.0190,0.0610,0.2441,-0.1831,1,487,844,0
70167686,1509,-0.0122,-0.0176,1.0210,0.0610,0.1831,-0.1831,1,465,842,0
70172688,1510,-0.0127,-0.0181,1.0234,0.1221,0.1831,-0.1221,1,465,873,0
70177691,1511,-0.0132,-0.0171,1.0249,0.1831,0.2441,-0.1221,1,466,866,0
70182686,1512,-0.0132,-0.0156,1.0249,0.0000,0.3052,-0.1221,1,466,874,0
70187688,1513,-0.0142,-0.0151,1.0239,0.0610,0.2441,-0.2441,1,466,824,0
70192690,1514,-0.0156,-0.0166,1.0220,0.0610,0.2441,-0.1831,1,465,880,0
70197705,1515,-0.0161,-0.0190,1.0215,0.0610,0.2441,-0.1831,1,466,878,0
70202683,1516,-0.0156,-0.0205,1.0220,-0.0610,0.1221,-0.1221,1,465,877,0
70207685,1517,-0.0137,-0.0200,1.0225,0.0000,0.2441,-0.1831,1,465,866,0
70212687,1518,-0.0117,-0.0181,1.0215,0.0610,0.2441,-0.0610,1,477,816,0
70217685,1519,-0.0122,-0.0166,1.0205,0.1221,0.1221,-0.1831,1,465,866,0
70222715,1520,-0.0137,-0.0161,1.0210,0.0000,0.1221,-0.1221,1,482,899,0
70227685,1521,-0.0142,-0.0161,1.0234,-0.0610,0.2441,-0.2441,1,478,810,0
70232689,1522,-0.0137,-0.0181,1.0244,-0.0610,0.1831,-0.2441,1,467,868,0
70237686,1523,-0.0132,-0.0200,1.0229,-0.1221,0.2441,-0.2441,1,488,872,0
70242690,1524,-0.0137,-0.0205,1.0225,0.0000,0.3052,-0.1221,1,469,780,0
70247687,1525,-0.0137,-0.0195,1.0220,0.0610,0.1221,-0.3052,1,485,772,0
70252688,1526,-0.0132,-0.0176,1.0205,0.0610,0.1221,-0.3052,1,496,816,0
70257683,1527,-0.0137,-0.0166,1.0190,0.0000,0.2441,-0.1831,1,484,816,0
70262686,1528,-0.0137,-0.0171,1.0190,-0.0610,0.2441,-0.1831,1,475,803,0
70267684,1529,-0.0127,-0.0171,1.0239,-0.0610,0.1831,-0.2441,1,478,843,0
70272683,1530,-0.0142,-0.0161,1.0254,-0.0610,0.2441,-0.1221,1,481,846,0
70277685,1531,-0.0151,-0.0156,1.0254,0.0610,0.2441,-0.2441,1,493,843,0
70282684,1532,-0.0156,-0.0156,1.0244,0.0610,0.1831,-0.3052,1,466,848,0
70287683,1533,-0.0151,-0.0161,1.0234,0.0000,0.1831,-0.2441,1,466,872,0
70292689,1534,-0.0142,-0.0166,1.0229,-0.1221,0.3052,-0.2441,1,466,837,0
70297690,1535,-0.0146,-0.0181,1.0220,-0.1221,0.1831,-0.3662,1,466,873,0
70302686,1536,-0.0156,-0.0200,1.0210,-0.1221,0.1221,-0.2441,1,466,874,0
70307702,1537,-0.0156,-0.0186,1.0205,-0.1221,0.1221,-0.2441,1,466,867,0
70312689,1538,-0.0137,-0.0161,1.0200,-0.1221,0.1831,-0.2441,1,466,870,0
70317686,1539,-0.0132,-0.0151,1.0210,0.0000,0.2441,-0.3052,1,484,874,0
70322686,1540,-0.0146,-0.0156,1.0225,0.0610,0.2441,-0.3052,1,470,813,0
70327689,1541,-0.0146,-0.0166,1.0234,0.0000,0.2441,-0.2441,1,484,808,0
70332711,1542,-0.0146,-0.0176,1.0239,-0.0610,0.2441,-0.1831,1,469,910,0
70337683,1543,-0.0142,-0.0176,1.0229,-0.0610,0.2441,-0.0610,1,471,932,0
70342684,1544,-0.0137,-0.0166,1.0210,0.0000,0.3052,-0.2441,1,500,862,0
70347685,1545,-0.0127,-0.0181,1.0205,0.0610,0.3052,-0.1221,1,504,737,0
70352685,1546,-0.0117,-0.0195,1.0220,0.0000,0.3052,-0.1831,1,506,767,0
70357687,1547,-0.0122,-0.0200,1.0225,0.0000,0.1221,-0.2441,1,489,778,0
70362683,1548,-0.0127,-0.0195,1.0220,0.1221,0.2441,-0.1221,1,504,778,0
70367686,1549,-0.0127,-0.0171,1.0220,0.0610,0.3052,-0.1831,1,478,839,0
70372691,1550,-0.0132,-0.0142,1.0220,0.0000,0.1831,-0.2441,1,485,856,0
70377685,1551,-0.0142,-0.0132,1.0215,0.0610,0.1831,-0.1831,1,490,800,0
70382685,1552,-0.0142,-0.0146,1.0220,0.0000,0.2441,-0.0610,1,469,844,0
70387690,1553,-0.0137,-0.0171,1.0234,0.0000,0.2441,-0.1831,1,493,799,0
70392689,1554,-0.0132,-0.0186,1.0244,0.0610,0.1831,-0.3052,1,466,829,0
70397686,1555,-0.0132,-0.0186,1.0244,0.0610,0.1831,-0.2441,1,466,870,0
70402683,1556,-0.0132,-0.0181,1.0225,0.0000,0.3052,-0.1831,1,466,875,0
70407684,1557,-0.0127,-0.0181,1.0200,0.0000,0.3052,-0.2441,1,466,821,0
70412686,1558,-0.0132,-0.0181,1.0205,0.0000,0.2441,-0.1831,1,466,820,0
70417685,1559,-0.0142,-0.0176,1.0220,0.0000,0.2441,-0.1831,1,466,827,0
70422682,1560,-0.0142,-0.0166,1.0234,0.0610,0.2441,-0.1221,1,483,829,0
70427684,1561,-0.0132,-0.0156,1.0244,0.1831,0.1221,-0.1831,1,466,863,0
70432686,1562,-0.0137,-0.0161,1.0249,0.1221,0.2441,-0.1831,1,484,811,0
70437706,1563,-0.0142,-0.0161,1.0229,-0.0610,0.3052,-0.1831,1,472,904,0
70442684,1564,-0.0142,-0.0166,1.0215,-0.0610,0.1221,-0.2441,1,477,932,0
70447683,1565,-0.0142,-0.0181,1.0210,0.1221,0.0000,-0.3052,1,480,869,0
70452685,1566,-0.0146,-0.0200,1.0210,0.0000,0.2441,-0.2441,1,465,741,0
70457687,1567,-0.0151,-0.0200,1.0220,0.0000,0.3052,-0.2441,1,508,744,0
70462687,1568,-0.0146,-0.0190,1.0229,0.0610,0.1221,-0.2441,1,486,779,0
70467687,1569,-0.0132,-0.0176,1.0225,0.0000,0.2441,-0.3052,1,503,827,0
70472688,1570,-0.0137,-0.0166,1.0215,0.0000,0.1221,-0.1831,1,509,776,0
70477685,1571,-0.0146,-0.0161,1.0215,-0.1221,0.2441,-0.1831,1,478,797,0
70482690,1572,-0.0151,-0.0156,1.0225,-0.1221,0.2441,-0.2441,1,478,850,0
70487685,1573,-0.0146,-0.0166,1.0239,0.0610,0.1221,-0.1831,1,480,848,0
70492689,1574,-0.0142,-0.0176,1.0244,0.1221,0.1831,-0.2441,1,493,847,0
70497684,1575,-0.0146,-0.0181,1.0234,0.0610,0.1831,-0.1831,1,466,873,0
70502684,1576,-0.0146,-0.0190,1.0215,-0.0610,0.2441,-0.2441,1,465,876,0
70507686,1577,-0.0142,-0.0195,1.0200,0.1221,0.1221,-0.1221,1,465,880,0
70512682,1578,-0.0146,-0.0190,1.0205,0.0000,0.1221,-0.1831,1,466,864,0
70517689,1579,-0.0142,-0.0171,1.0210,0.0000,0.2441,-0.1831,1,466,829,0
70522697,1580,-0.0137,-0.0156,1.0220,0.0000,0.2441,-0.1221,1,466,826,0
70527686,1581,-0.0127,-0.0146,1.0220,0.0610,0.2441,-0.3662,1,466,826,0
70532687,1582,-0.0132,-0.0137,1.0220,0.0000,0.3052,-0.2441,1,484,876,0
70537688,1583,-0.0146,-0.0146,1.0225,0.0000,0.2441,-0.2441,1,467,765,0
70542689,1584,-0.0151,-0.0171,1.0220,0.0610,0.1831,-0.2441,1,484,832,0
70547689,1585,-0.0146,-0.0190,1.0234,0.0000,0.1831,-0.1831,1,470,900,0
70552687,1586,-0.0142,-0.0195,1.0244,0.1831,0.2441,-0.1221,1,474,833,0
70557687,1587,-0.0146,-0.0190,1.0229,0.0000,0.3052,-0.1221,1,500,865,0
70562684,1588,-0.0146,-0.0186,1.0210,0.0610,0.2441,-0.1221,1,479,732,0
70567690,1589,-0.0132,-0.0171,1.0190,0.0000,0.1221,-0.1831,1,506,775,0
70572682,1590,-0.0117,-0.0156,1.0190,-0.1831,0.3052,-0.3052,1,480,776,0
70577689,1591,-0.0122,-0.0161,1.0215,-0.0610,0.1831,-0.2441,1,489,821,0
70582691,1592,-0.0132,-0.0166,1.0249,0.0610,0.1831,-0.1831,1,500,832,0
70587688,1593,-0.0132,-0.0171,1.0259,0.0610,0.1831,-0.3052,1,488,849,0
70592687,1594,-0.0137,-0.0181,1.0249,0.0000,0.3052,-0.3052,1,475,838,0
70597689,1595,-0.0142,-0.0186,1.0239,-0.0610,0.1831,-0.3052,1,483,790,0
70602689,1596,-0.0146,-0.0190,1.0234,-0.0610,0.1831,-0.1831,1,492,842,0
70607690,1597,-0.0146,-0.0190,1.0225,-0.0610,0.2441,-0.2441,1,466,878,0
70612690,1598,-0.0137,-0.0181,1.0229,0.0610,0.1831,-0.2441,1,465,878,0
70617686,1599,-0.0132,-0.0176,1.0234,-0.1831,0.2441,-0.1221,1,466,874,0
70622684,1600,-0.0122,-0.0171,1.0225,0.0000,0.1831,-0.1221,1,466,876,0
70627687,1601,-0.0122,-0.0161,1.0205,0.1221,0.1831,-0.2441,1,466,824,0
70632696,1602,-0.0132,-0.0161,1.0205,0.0000,0.1831,-0.1221,1,466,879,0
70637682,1603,-0.0137,-0.0161,1.0225,0.1221,0.2441,-0.1221,1,466,826,0
70642684,1604,-0.0132,-0.0166,1.0244,0.1831,0.1831,-0.1831,1,484,871,0
70647682,1605,-0.0132,-0.0176,1.0259,0.0610,0.2441,-0.2441,1,465,871,0
70652690,1606,-0.0132,-0.0186,1.0254,0.1221,0.3052,-0.1831,1,484,863,0
70657689,1607,-0.0142,-0.0186,1.0229,0.1221,0.2441,-0.2441,1,465,893,0
70662686,1608,-0.0146,-0.0190,1.0210,0.0610,0.1831,-0.1831,1,466,864,0
70667685,1609,-0.0137,-0.0181,1.0205,0.0000,0.1831,-0.1221,1,492,865,0
70672690,1610,-0.0132,-0.0171,1.0205,0.0000,0.3662,-0.3052,1,470,728,0
70677682,1611,-0.0117,-0.0166,1.0225,-0.1221,0.1831,-0.3052,1,510,728,0
70682688,1612,-0.0117,-0.0171,1.0244,-0.1221,0.1831,-0.1831,1,474,797,0
70687686,1613,-0.0127,-0.0176,1.0249,0.0000,0.3662,-0.2441,1,492,836,0
70692685,1614,-0.0146,-0.0176,1.0234,0.0000,0.2441,-0.3662,1,495,783,0
70697688,1615,-0.0156,-0.0176,1.0229,0.0000,0.1221,-0.3052,1,485,805,0
70702686,1616,-0.0151,-0.0181,1.0234,0.0000,0.1831,-0.3052,1,486,793,0
70707689,1617,-0.0142,-0.0195,1.0229,-0.0610,0.0610,-0.1831,1,473,797,0
70712683,1618,-0.0117,-0.0200,1.0225,-0.1221,0.1831,-0.2441,1,491,846,0
70717684,1619,-0.0112,-0.0186,1.0215,0.0000,0.2441,-0.2441,1,493,843,0
70722683,1620,-0.0122,-0.0171,1.0210,0.0000,0.1221,-0.1831,1,466,831,0
70727691,1621,-0.0127,-0.0166,1.0215,-0.0610,0.1831,-0.2441,1,466,823,0
70732689,1622,-0.0122,-0.0166,1.0215,-0.0610,0.3052,-0.2441,1,466,876,0
70737686,1623,-0.0122,-0.0176,1.0220,-0.0610,0.1831,-0.3662,1,466,874,0
70742689,1624,-0.0122,-0.0190,1.0234,0.0000,0.1831,-0.2441,1,465,876,0
70747682,1625,-0.0137,-0.0190,1.0229,-0.0610,0.2441,-0.2441,1,466,834,0
70752690,1626,-0.0146,-0.0195,1.0210,0.0610,0.1831,-0.2441,1,483,876,0
70757686,1627,-0.0137,-0.0195,1.0210,0.0000,0.2441,-0.2441,1,465,876,0
70762688,1628,-0.0132,-0.0190,1.0215,0.0000,0.2441,-0.1221,1,484,818,0
70767688,1629,-0.0132,-0.0190,1.0215,0.0000,0.1831,-0.1831,1,465,889,0
70772683,1630,-0.0127,-0.0186,1.0210,0.0000,0.1221,-0.1221,1,467,819,0
70777689,1631,-0.0132,-0.0181,1.0210,0.0610,0.0610,-0.1831,1,467,816,0
70782688,1632,-0.0132,-0.0176,1.0220,0.0610,0.2441,-0.1831,1,465,854,0
70787684,1633,-0.0132,-0.0176,1.0234,0.1221,0.1831,-0.1831,1,467,870,0
70792683,1634,-0.0137,-0.0176,1.0234,0.1221,0.2441,-0.1221,1,495,781,0
70797687,1635,-0.0151,-0.0181,1.0229,0.1831,0.1221,-0.1831,1,494,832,0
70802686,1636,-0.0151,-0.0186,1.0220,0.1221,0.0610,-0.1221,1,499,827,0
70807682,1637,-0.0137,-0.0186,1.0205,0.1221,0.0610,-0.1831,1,486,819,0
70812683,1638,-0.0142,-0.0190,1.0215,0.1831,0.1831,-0.1831,1,472,860,0
70817688,1639,-0.0146,-0.0190,1.0225,0.1831,0.2441,-0.1221,1,490,849,0
70822688,1640,-0.0146,-0.0176,1.0225,0.0000,0.3662,-0.0610,1,489,847,0
70827687,1641,-0.0151,-0.0166,1.0220,0.0610,0.2441,-0.1221,1,489,799,0
70832690,1642,-0.0142,-0.0171,1.0234,0.1831,0.3052,-0.1831,1,466,844,0
70837688,1643,-0.0127,-0.0186,1.0244,0.0610,0.3052,-0.1831,1,466,872,0
70842685,1644,-0.0127,-0.0190,1.0244,0.1221,0.1831,-0.1831,1,466,870,0
70847683,1645,-0.0132,-0.0176,1.0239,0.0000,0.1221,-0.2441,1,465,875,0
70852688,1646,-0.0137,-0.0161,1.0229,0.0610,0.1221,-0.1831,1,466,827,0
70857684,1647,-0.0127,-0.0176,1.0225,0.0610,0.3052,-0.2441,1,465,874,0
70862688,1648,-0.0122,-0.0195,1.0215,-0.0610,0.3052,-0.3052,1,466,868,0
70867686,1649,-0.0132,-0.0195,1.0210,0.0610,0.1831,-0.2441,1,483,867,0
70872690,1650,-0.0137,-0.0186,1.0210,0.0000,0.1831,-0.1221,1,466,872,0
70877688,1651,-0.0137,-0.0181,1.0215,0.0610,0.2441,-0.2441,1,484,812,0
70882686,1652,-0.0137,-0.0176,1.0220,0.0000,0.2441,-0.2441,1,466,869,0
70887701,1653,-0.0142,-0.0161,1.0215,0.0000,0.2441,-0.2441,1,467,818,0
70892685,1654,-0.0146,-0.0161,1.0210,0.0610,0.1831,-0.1831,1,474,829,0
70897690,1655,-0.0142,-0.0176,1.0225,0.0000,0.2441,-0.2441,1,508,866,0
70902689,1656,-0.0137,-0.0176,1.0249,-0.1221,0.3052,-0.2441,1,484,736,0
70907683,1657,-0.0151,-0.0176,1.0254,0.0000,0.3052,-0.1221,1,505,773,0
70912683,1658,-0.0161,-0.0181,1.0239,0.0000,0.1831,-0.1831,1,488,774,0
70917684,1659,-0.0151,-0.0176,1.0220,-0.1831,0.1831,-0.1831,1,501,785,0
70922691,1660,-0.0151,-0.0171,1.0195,0.0000,0.1221,-0.2441,1,487,833,0
70927687,1661,-0.0151,-0.0176,1.0190,-0.0610,0.2441,-0.3052,1,488,798,0
70932691,1662,-0.0142,-0.0186,1.0200,0.0610,0.2441,-0.1831,1,473,842,0
70937682,1663,-0.0127,-0.0181,1.0215,0.1831,0.1831,-0.2441,1,473,843,0
70942686,1664,-0.0117,-0.0171,1.0229,0.1221,0.1831,-0.1831,1,492,845,0
70947683,1665,-0.0127,-0.0171,1.0229,0.0610,0.2441,-0.1221,1,492,844,0
70952686,1666,-0.0146,-0.0161,1.0225,0.1831,0.3052,-0.2441,1,466,868,0
70957685,1667,-0.0161,-0.0166,1.0225,-0.0610,0.3052,-0.1831,1,466,878,0
70962686,1668,-0.0156,-0.0176,1.0229,0.0000,0.1221,-0.0610,1,466,874,0
70967688,1669,-0.0142,-0.0186,1.0229,0.0610,0.2441,-0.2441,1,466,825,0
70972686,1670,-0.0132,-0.0190,1.0225,0.0610,0.1221,-0.3052,1,466,876,0
70977687,1671,-0.0137,-0.0190,1.0225,0.0610,0.1221,-0.1831,1,466,864,0
70982685,1672,-0.0137,-0.0181,1.0234,-0.1221,0.1831,-0.1831,1,483,868,0
70987683,1673,-0.0132,-0.0166,1.0244,-0.1221,0.3052,-0.2441,1,465,872,0
70992685,1674,-0.0137,-0.0161,1.0249,-0.0610,0.2441,-0.1831,1,485,862,0
70997684,1675,-0.0137,-0.0171,1.0254,-0.1221,0.1831,-0.2441,1,466,904,0
71002687,1676,-0.0142,-0.0186,1.0264,-0.0610,0.3052,-0.3052,1,482,938,0
71007685,1677,-0.0151,-0.0186,1.0254,0.0000,0.1831,-0.2441,1,476,852,0
71012686,1678,-0.0156,-0.0186,1.0234,-0.0610,0.1221,-0.0610,1,466,759,0
71017685,1679,-0.0146,-0.0181,1.0210,0.0610,0.2441,-0.1221,1,486,866,0
71022691,1680,-0.0142,-0.0181,1.0205,0.0610,0.2441,-0.2441,1,510,773,0
71027686,1681,-0.0132,-0.0186,1.0220,0.0000,0.2441,-0.2441,1,482,824,0
71032689,1682,-0.0117,-0.0190,1.0234,0.0000,0.1831,-0.3052,1,509,782,0
71037682,1683,-0.0122,-0.0186,1.0239,0.0610,0.1831,-0.1831,1,491,824,0
71042684,1684,-0.0137,-0.0181,1.0249,0.0610,0.1831,-0.0610,1,483,869,0
71047689,1685,-0.0142,-0.0181,1.0239,0.0610,0.1831,-0.1221,1,488,840,0
71052688,1686,-0.0146,-0.0190,1.0234,0.0000,0.1221,-0.1221,1,483,840,0
71057687,1687,-0.0151,-0.0195,1.0225,-0.0610,0.1831,-0.1831,1,493,797,0
71062687,1688,-0.0137,-0.0200,1.0225,0.0610,0.1221,-0.1831,1,466,876,0
71067687,1689,-0.0122,-0.0195,1.0225,0.0000,0.1831,-0.1831,1,466,868,0
71072685,1690,-0.0122,-0.0181,1.0210,-0.0610,0.1831,-0.3052,1,466,832,0
71077685,1691,-0.0132,-0.0171,1.0205,-0.1221,0.2441,-0.1831,1,465,869,0
71082690,1692,-0.0142,-0.0161,1.0205,-0.1831,0.1831,-0.3052,1,466,872,0
71087706,1693,-0.0142,-0.0161,1.0215,-0.0610,0.2441,-0.2441,1,466,875,0
71092685,1694,-0.0132,-0.0181,1.0229,-0.1221,0.2441,-0.3052,1,466,877,0
71097682,1695,-0.0132,-0.0186,1.0234,-0.0610,0.2441,-0.2441,1,484,867,0
71102683,1696,-0.0142,-0.0181,1.0229,0.0000,0.2441,-0.2441,1,478,865,0
71107690,1697,-0.0151,-0.0181,1.0229,-0.0610,0.1831,-0.2441,1,465,869,0
71112690,1698,-0.0151,-0.0176,1.0220,-0.0610,0.2441,-0.3052,1,475,904,0
71117690,1699,-0.0137,-0.0176,1.0210,-0.1221,0.2441,-0.2441,1,477,861,0
71122686,1700,-0.0132,-0.0205,1.0190,0.0000,0.1831,-0.2441,1,472,859,0
71127687,1701,-0.0117,-0.0205,1.0190,0.0610,0.1221,-0.1221,1,480,736,0
71132687,1702,-0.0103,-0.0171,1.0210,0.0000,0.1221,-0.1221,1,504,770,0
71137682,1703,-0.0132,-0.0146,1.0239,0.0610,0.1221,-0.1831,1,481,767,0
71142686,1704,-0.0166,-0.0122,1.0259,0.1221,0.3052,-0.1831,1,494,836,0
71147690,1705,-0.0161,-0.0112,1.0225,0.0000,0.3052,-0.3052,1,477,825,0
