t_us, seq, ax, ay, az, gx, gy, gz, valid, t_imu_us, t_serial_us, missed
49451758,7850,-0.0259,-0.0342,1.0225,0.6714,0.3052,-0.1831,1,466,876,230
49456758,7851,-0.0259,-0.0332,1.0239,0.4272,0.1831,-0.2441,1,466,870,230
49461755,7852,-0.0254,-0.0322,1.0234,-0.0610,0.1831,-0.2441,1,465,883,230
49466759,7853,-0.0249,-0.0327,1.0215,-0.3052,0.1221,-0.0610,1,484,869,230
49471760,7854,-0.0254,-0.0352,1.0210,-0.3662,0.0610,-0.2441,1,466,896,230
49476760,7855,-0.0259,-0.0376,1.0205,0.0000,0.3052,-0.3052,1,470,939,230
49481758,7856,-0.0269,-0.0381,1.0215,0.3662,0.3662,-0.1831,1,472,819,230
49486761,7857,-0.0283,-0.0381,1.0210,0.6104,0.2441,-0.1831,1,479,866,230
49491758,7858,-0.0293,-0.0371,1.0200,0.7324,0.1221,0.0000,1,475,871,230
49496759,7859,-0.0298,-0.0361,1.0190,0.7324,0.2441,-0.0610,1,466,737,230
49501756,7860,-0.0293,-0.0371,1.0181,0.9155,-0.0610,-0.2441,1,494,858,230
49506759,7861,-0.0273,-0.0386,1.0190,1.6479,-0.0610,-0.1831,1,511,781,230
49511757,7862,-0.0269,-0.0366,1.0215,2.1973,0.1221,-0.1831,1,492,871,230
49516757,7863,-0.0269,-0.0347,1.0234,1.7090,0.0610,-0.3052,1,478,848,230
49521758,7864,-0.0278,-0.0352,1.0229,2.3193,-0.0610,-0.1221,1,486,840,230
49526763,7865,-0.0288,-0.0361,1.0205,2.6855,0.1221,-0.1831,1,491,870,230
49531754,7866,-0.0288,-0.0366,1.0190,2.9907,-0.1221,-0.1831,1,473,853,230
49536755,7867,-0.0283,-0.0361,1.0190,3.3569,0.1221,-0.1831,1,476,851,230
49541759,7868,-0.0273,-0.0352,1.0205,3.5400,0.1221,-0.3052,1,493,854,230
49546759,7869,-0.0269,-0.0332,1.0229,3.1128,0.2441,-0.3052,1,466,869,230
49551758,7870,-0.0264,-0.0298,1.0259,2.4414,0.3662,-0.4883,1,466,879,230
49556758,7871,-0.0259,-0.0269,1.0269,0.9155,0.4883,-0.6714,1,466,878,230
49561760,7872,-0.0259,-0.0278,1.0249,-0.9155,0.1221,-0.1831,1,466,872,230
49566755,7873,-0.0254,-0.0293,1.0254,-1.3428,0.5493,-0.3052,1,483,879,230
49571759,7874,-0.0244,-0.0298,1.0259,-1.8921,0.6714,-0.4272,1,465,861,230
49576759,7875,-0.0249,-0.0312,1.0249,-2.6245,0.1831,-0.1831,1,484,863,230
49581755,7876,-0.0249,-0.0347,1.0229,-2.8076,0.0610,-0.1831,1,465,855,230
49586760,7877,-0.0249,-0.0356,1.0210,-1.9531,0.2441,-0.0610,1,469,956,230
49591758,7878,-0.0273,-0.0347,1.0195,-1.7700,0.3662,-0.3052,1,467,877,230
49596760,7879,-0.0269,-0.0361,1.0190,-1.3428,-0.1831,0.0000,1,472,873,230
49601758,7880,-0.0249,-0.0371,1.0195,-0.6104,0.1221,0.1221,1,495,815,230
49606762,7881,-0.0244,-0.0352,1.0210,0.3662,0.3662,-0.0610,1,480,852,230
49611759,7882,-0.0249,-0.0332,1.0225,0.1221,0.2441,0.0000,1,498,854,230
49616758,7883,-0.0254,-0.0332,1.0244,0.1831,0.0000,-0.0610,1,465,802,230
49621762,7884,-0.0254,-0.0332,1.0239,-0.0610,0.2441,-0.3662,1,489,803,230
49626756,7885,-0.0264,-0.0342,1.0220,0.1221,0.0610,-0.1831,1,492,852,230
49631758,7886,-0.0278,-0.0386,1.0195,0.7324,0.4272,-0.4272,1,483,841,230
49636762,7887,-0.0278,-0.0415,1.0181,2.3193,0.8545,-0.4883,1,476,853,230
49641762,7888,-0.0273,-0.0352,1.0195,3.7231,0.7324,-0.3662,1,480,848,230
49646761,7889,-0.0259,-0.0337,1.0190,3.2959,0.7324,-0.4272,1,482,855,230
49651759,7890,-0.0249,-0.0347,1.0166,3.8452,0.7935,-0.4272,1,493,850,230
49656757,7891,-0.0264,-0.0356,1.0161,5.0049,0.9766,-0.3662,1,466,882,230
49661754,7892,-0.0278,-0.0347,1.0190,5.7983,1.0986,0.0000,1,466,876,230
49666766,7893,-0.0288,-0.0322,1.0220,6.0425,0.7324,0.2441,1,466,835,230
49671762,7894,-0.0288,-0.0303,1.0220,6.0425,0.3052,0.2441,1,466,880,230
49676758,7895,-0.0283,-0.0298,1.0205,6.1646,0.2441,0.4883,1,483,872,230
49681757,7896,-0.0283,-0.0308,1.0200,6.2866,0.2441,0.6104,1,468,866,230
49686756,7897,-0.0293,-0.0312,1.0200,6.2256,0.1831,0.5493,1,484,864,230
49691760,7898,-0.0283,-0.0283,1.0229,5.4932,-0.1221,0.7324,1,474,900,230
49696762,7899,-0.0283,-0.0229,1.0278,4.0283,-0.7935,1.0376,1,472,953,230
49701757,7900,-0.0288,-0.0181,1.0298,1.4038,-1.7090,1.0986,1,472,877,230
49706759,7901,-0.0288,-0.0190,1.0293,-1.3428,-2.3804,1.0986,1,481,873,230
49711759,7902,-0.0264,-0.0273,1.0239,-2.6855,-2.3804,0.7935,1,477,831,230
49716754,7903,-0.0229,-0.0386,1.0146,-0.7324,-1.0986,0.6104,1,466,861,230
49721755,7904,-0.0225,-0.0439,1.0098,3.7842,0.0610,1.0376,1,508,812,230
49726755,7905,-0.0244,-0.0376,1.0161,7.2021,0.5493,0.9766,1,473,850,230
49731763,7906,-0.0259,-0.0264,1.0273,7.1411,0.3052,0.7935,1,481,860,230
49736762,7907,-0.0269,-0.0186,1.0317,4.6387,0.4883,0.7324,1,490,846,230
49741759,7908,-0.0273,-0.0176,1.0293,2.2583,0.1831,0.5493,1,478,847,230
49746754,7909,-0.0273,-0.0210,1.0249,1.0376,0.1831,0.1221,1,487,853,230
49751759,7910,-0.0269,-0.0244,1.0225,0.4272,0.1831,0.0000,1,476,845,230
49756762,7911,-0.0249,-0.0249,1.0225,-0.0610,0.0610,0.0000,1,493,802,230
49761761,7912,-0.0249,-0.0259,1.0229,-0.3052,0.0610,-0.1221,1,466,828,230
49766759,7913,-0.0249,-0.0273,1.0225,-0.0610,0.1221,-0.3052,1,465,869,230
49771762,7914,-0.0254,-0.0278,1.0215,0.3662,0.1831,-0.2441,1,466,871,230
49776778,7915,-0.0264,-0.0278,1.0205,0.7935,0.1831,-0.1831,1,466,880,230
49781761,7916,-0.0264,-0.0278,1.0195,1.1597,0.1221,0.0610,1,466,880,230
49786763,7917,-0.0269,-0.0269,1.0195,1.2207,0.2441,0.0000,1,484,872,230
49791759,7918,-0.0269,-0.0249,1.0215,0.9155,0.1221,0.0610,1,472,775,230
49796758,7919,-0.0273,-0.0249,1.0239,0.0000,-0.1221,-0.1831,1,465,869,230
49801760,7920,-0.0269,-0.0259,1.0229,-0.7935,-0.1831,-0.3052,1,465,824,230
49806758,7921,-0.0264,-0.0264,1.0200,-0.8545,-0.3052,-0.3052,1,465,864,230
49811763,7922,-0.0254,-0.0283,1.0181,0.0000,-0.1831,-0.3052,1,470,855,230
49816760,7923,-0.0249,-0.0293,1.0190,0.9766,0.0000,-0.0610,1,469,806,230
49821754,7924,-0.0244,-0.0283,1.0220,1.6479,0.1831,-0.0610,1,499,807,230
49826756,7925,-0.0249,-0.0254,1.0249,1.3428,0.1831,-0.1221,1,480,860,230
49831761,7926,-0.0254,-0.0225,1.0244,0.4272,-0.1221,-0.0610,1,484,779,230
49836757,7927,-0.0269,-0.0234,1.0234,-0.2441,-0.1831,-0.2441,1,490,794,230
49841758,7928,-0.0278,-0.0269,1.0220,-0.5493,-0.2441,-0.3052,1,492,863,230
49846757,7929,-0.0269,-0.0278,1.0195,-0.3052,-0.2441,-0.3052,1,477,848,230
49851759,7930,-0.0254,-0.0283,1.0200,-0.0610,-0.0610,-0.3052,1,486,867,230
49856760,7931,-0.0254,-0.0278,1.0210,0.2441,0.0000,-0.3052,1,491,841,230
49861757,7932,-0.0264,-0.0249,1.0210,0.1831,0.0000,-0.3052,1,471,797,230
49866756,7933,-0.0254,-0.0229,1.0225,0.0000,-0.0610,-0.3052,1,493,796,230
49871758,7934,-0.0249,-0.0234,1.0229,-0.1831,-0.2441,-0.3662,1,466,822,230
49876762,7935,-0.0264,-0.0249,1.0234,-0.1831,-0.1831,-0.3662,1,466,884,230
49881757,7936,-0.0269,-0.0259,1.0229,-0.2441,-0.1831,-0.3662,1,466,884,230
49886758,7937,-0.0269,-0.0269,1.0215,-0.4272,-0.0610,-0.5493,1,466,882,230
49891762,7938,-0.0254,-0.0278,1.0200,-0.6714,-0.1221,-0.4272,1,483,875,230
49896755,7939,-0.0239,-0.0293,1.0186,-0.1831,-0.1221,-0.3662,1,465,862,230
49901761,7940,-0.0239,-0.0283,1.0181,0.3052,-0.0610,-0.3052,1,484,865,230
49906757,7941,-0.0239,-0.0264,1.0190,0.3052,0.0610,-0.2441,1,465,894,230
49911759,7942,-0.0239,-0.0249,1.0205,0.0000,0.0000,-0.3052,1,469,862,230
49916760,7943,-0.0239,-0.0244,1.0210,-0.0610,-0.1221,-0.4272,1,469,763,230
49921757,7944,-0.0249,-0.0254,1.0229,0.0000,-0.1831,-0.3052,1,472,871,230
49926760,7945,-0.0244,-0.0288,1.0234,0.1831,0.0610,-0.3052,1,500,811,230
49931756,7946,-0.0234,-0.0327,1.0215,1.0986,0.9155,-0.2441,1,479,858,230
49936760,7947,-0.0229,-0.0327,1.0200,2.6855,1.5869,-0.2441,1,505,861,230
49941762,7948,-0.0225,-0.0283,1.0205,3.3569,1.5259,-0.1221,1,511,790,230
49946762,7949,-0.0229,-0.0249,1.0220,2.8687,1.3428,-0.1831,1,492,873,230
49951761,7950,-0.0225,-0.0254,1.0225,2.2583,1.0986,-0.1831,1,478,854,230
49956757,7951,-0.0225,-0.0264,1.0215,2.6245,1.5869,-0.1221,1,486,850,230
49961754,7952,-0.0229,-0.0273,1.0195,3.6621,2.1973,-0.1831,1,477,848,230
49966760,7953,-0.0234,-0.0288,1.0195,5.0049,3.1738,-0.0610,1,484,858,230
49971757,7954,-0.0234,-0.0288,1.0215,6.1035,4.0283,0.0000,1,476,848,230
49976760,7955,-0.0249,-0.0283,1.0215,7.1411,4.6387,0.0610,1,493,805,230
49981757,7956,-0.0269,-0.0269,1.0200,8.2397,5.4932,0.2441,1,466,880,230
49986757,7957,-0.0303,-0.0220,1.0229,9.0942,5.7983,0.1831,1,466,880,230
49991756,7958,-0.0322,-0.0146,1.0269,7.2021,4.5776,0.1221,1,466,882,230
49996754,7959,-0.0312,-0.0127,1.0264,4.1504,3.5400,0.0000,1,466,884,230
50001756,7960,-0.0308,-0.0171,1.0239,3.3569,3.0518,-0.0610,1,465,841,230
50006756,7961,-0.0308,-0.0205,1.0225,3.1738,2.6855,-0.1221,1,485,861,230
50011757,7962,-0.0303,-0.0205,1.0225,2.3804,2.2583,-0.1831,1,465,876,230
50016757,7963,-0.0293,-0.0190,1.0225,2.1973,2.0752,-0.2441,1,472,933,230
50021758,7964,-0.0293,-0.0181,1.0229,2.2583,1.9531,-0.2441,1,475,866,230
50026788,7965,-0.0312,-0.0176,1.0234,1.8921,1.5869,-0.2441,1,478,881,230
50031759,7966,-0.0322,-0.0171,1.0239,1.7090,1.0986,-0.1221,1,474,903,230
50036756,7967,-0.0322,-0.0176,1.0234,1.0986,0.8545,-0.3662,1,465,855,230
50041759,7968,-0.0312,-0.0186,1.0229,0.5493,0.8545,-0.3052,1,487,860,230
50046761,7969,-0.0308,-0.0186,1.0234,0.6104,0.7935,-0.3052,1,511,879,230
50051756,7970,-0.0303,-0.0181,1.0225,0.5493,0.6714,-0.1831,1,486,850,230
50056762,7971,-0.0303,-0.0181,1.0205,0.3662,0.6714,-0.2441,1,478,843,230
50061763,7972,-0.0308,-0.0181,1.0186,0.5493,0.5493,-0.1831,1,481,843,230
50066758,7973,-0.0312,-0.0181,1.0186,0.8545,0.5493,-0.1831,1,488,867,230
50071757,7974,-0.0317,-0.0186,1.0195,0.8545,0.6104,-0.1831,1,492,870,230
50076763,7975,-0.0312,-0.0200,1.0215,0.6104,0.6104,-0.1831,1,478,846,230
50081756,7976,-0.0312,-0.0195,1.0234,0.6104,0.4883,-0.0610,1,493,865,230
50086760,7977,-0.0312,-0.0181,1.0239,0.3662,0.5493,-0.1831,1,466,897,230
50091760,7978,-0.0298,-0.0166,1.0225,0.1831,0.3662,-0.0610,1,465,906,230
50096757,7979,-0.0288,-0.0156,1.0200,0.0000,0.1831,0.0000,1,465,879,230
50101760,7980,-0.0283,-0.0166,1.0186,0.1221,0.2441,0.0000,1,466,775,230
50106760,7981,-0.0283,-0.0181,1.0200,0.4272,0.1831,0.0610,1,465,819,230
50111755,7982,-0.0288,-0.0186,1.0215,0.4272,0.1221,0.0000,1,479,861,230
50116756,7983,-0.0283,-0.0181,1.0225,0.3662,0.2441,0.0000,1,466,891,230
50121762,7984,-0.0288,-0.0176,1.0234,0.2441,0.1221,-0.1831,1,470,820,230
50126757,7985,-0.0303,-0.0176,1.0239,0.2441,0.1831,-0.1221,1,467,868,230
50131783,7986,-0.0298,-0.0186,1.0239,0.1831,-0.0610,-0.0610,1,478,864,230
50136762,7987,-0.0293,-0.0186,1.0229,0.1831,0.0610,-0.2441,1,472,873,230
50141761,7988,-0.0298,-0.0181,1.0220,0.2441,0.3662,-0.4883,1,469,857,230
50146761,7989,-0.0298,-0.0190,1.0220,0.3662,0.6104,-0.1831,1,473,854,230
50151758,7990,-0.0298,-0.0190,1.0205,0.4883,0.4883,-0.2441,1,512,810,230
50156755,7991,-0.0293,-0.0186,1.0186,0.3052,0.3052,-0.2441,1,470,853,230
50161754,7992,-0.0288,-0.0186,1.0186,0.0610,0.3662,-0.1831,1,478,838,230
50166755,7993,-0.0288,-0.0190,1.0195,0.1221,0.3662,-0.2441,1,487,848,230
50171762,7994,-0.0293,-0.0190,1.0205,0.0000,0.1221,-0.1831,1,485,851,230
50176762,7995,-0.0298,-0.0190,1.0210,-0.1221,0.0000,-0.0610,1,483,800,230
50181755,7996,-0.0298,-0.0186,1.0215,0.0610,0.0000,0.0000,1,492,794,230
50186754,7997,-0.0293,-0.0181,1.0215,0.1221,-0.0610,0.0610,1,493,749,230
50191760,7998,-0.0293,-0.0171,1.0215,0.3052,-0.1221,0.0000,1,465,862,230
50196760,7999,-0.0298,-0.0161,1.0205,0.1831,-0.0610,0.0000,1,465,819,230
50201757,8000,-0.0293,-0.0161,1.0190,0.0000,-0.0610,0.0610,1,466,830,230
50206754,8001,-0.0288,-0.0166,1.0186,0.1221,-0.1831,0.0610,1,466,826,230
50211754,8002,-0.0293,-0.0176,1.0200,0.3662,-0.1221,0.0000,1,484,876,230
50216760,8003,-0.0298,-0.0176,1.0220,0.2441,-0.0610,-0.1221,1,465,769,230
50221754,8004,-0.0298,-0.0176,1.0225,0.1831,-0.1221,-0.1221,1,484,859,230
50226760,8005,-0.0298,-0.0176,1.0225,0.2441,0.0610,-0.1831,1,465,896,230
50231754,8006,-0.0308,-0.0176,1.0220,0.1221,0.0610,-0.1221,1,474,934,230
50236754,8007,-0.0303,-0.0186,1.0229,0.1221,0.1831,-0.1221,1,482,854,230
50241763,8008,-0.0298,-0.0190,1.0239,0.1221,0.1831,-0.0610,1,466,867,230
50246757,8009,-0.0303,-0.0186,1.0229,0.0000,0.3052,0.0000,1,479,871,230
50251759,8010,-0.0308,-0.0186,1.0205,0.0000,0.3052,-0.1221,1,509,685,230
50256762,8011,-0.0308,-0.0190,1.0200,0.0610,0.1831,-0.1221,1,484,725,230
50261755,8012,-0.0312,-0.0190,1.0210,0.1221,0.1221,0.0610,1,511,773,230
50266757,8013,-0.0322,-0.0186,1.0215,0.0610,0.0610,0.1221,1,492,815,230
50271754,8014,-0.0308,-0.0190,1.0220,-0.0610,-0.0610,0.1831,1,476,840,230
50276754,8015,-0.0298,-0.0186,1.0220,-0.0610,0.0000,0.4272,1,478,842,230
50281760,8016,-0.0308,-0.0181,1.0220,-0.1221,0.0000,0.3662,1,490,798,230
50286754,8017,-0.0312,-0.0195,1.0220,-0.1221,0.0000,0.3662,1,490,793,230
50291754,8018,-0.0308,-0.0200,1.0229,0.0610,0.2441,0.5493,1,477,826,230
50296757,8019,-0.0312,-0.0210,1.0254,0.1831,1.1597,0.6104,1,493,846,230
50301756,8020,-0.0322,-0.0210,1.0234,0.5493,2.4414,0.7935,1,466,897,230
50306754,8021,-0.0308,-0.0186,1.0195,0.4272,0.4883,0.9766,1,466,880,230
50311764,8022,-0.0278,-0.0156,1.0195,-0.2441,-0.4883,0.6714,1,466,872,230
50316762,8023,-0.0288,-0.0161,1.0215,-0.1831,-0.1221,0.4883,1,466,881,230
50321758,8024,-0.0298,-0.0171,1.0229,0.3662,0.3052,0.3052,1,483,877,230
50326754,8025,-0.0288,-0.0176,1.0229,0.1831,-0.0610,0.3662,1,465,857,230
50331762,8026,-0.0273,-0.0181,1.0225,0.0000,-0.1221,0.4272,1,484,814,230
50336757,8027,-0.0288,-0.0190,1.0195,-0.0610,-0.7324,0.3052,1,468,816,230
50341757,8028,-0.0264,-0.0181,1.0229,0.0000,-2.7466,0.3662,1,479,866,230
50346761,8029,-0.0229,-0.0176,1.0288,0.4272,-0.2441,0.0000,1,479,830,230
50351756,8030,-0.0254,-0.0176,1.0259,0.3662,0.0610,0.0610,1,477,816,230
50356758,8031,-0.0283,-0.0171,1.0210,0.0000,-0.1221,0.1221,1,466,850,230
50361758,8032,-0.0298,-0.0166,1.0195,0.1831,-0.0610,0.1221,1,468,727,230
50366763,8033,-0.0298,-0.0161,1.0205,0.1831,0.0000,-0.1221,1,512,855,230
50371756,8034,-0.0293,-0.0176,1.0220,-0.0610,0.0000,-0.0610,1,469,810,230
50376759,8035,-0.0293,-0.0190,1.0220,0.0610,0.1221,-0.1221,1,476,795,230
50381759,8036,-0.0303,-0.0190,1.0215,0.0610,0.1831,-0.0610,1,480,837,230
50386756,8037,-0.0298,-0.0205,1.0229,-0.0610,0.1221,-0.1221,1,490,841,230
50391759,8038,-0.0303,-0.0210,1.0239,0.0000,0.1831,-0.1831,1,478,840,230
50396755,8039,-0.0312,-0.0195,1.0234,0.0000,0.1831,0.0610,1,485,801,230
50401758,8040,-0.0308,-0.0181,1.0215,-0.1831,0.2441,0.0610,1,493,827,230
50406756,8041,-0.0303,-0.0176,1.0195,-0.1221,0.1831,-0.0610,1,493,841,230
50411760,8042,-0.0298,-0.0176,1.0200,-0.1221,0.1831,0.1221,1,466,870,230
50416761,8043,-0.0288,-0.0176,1.0215,-0.1221,0.2441,0.0000,1,466,869,230
50421758,8044,-0.0278,-0.0181,1.0215,-0.1221,0.1221,0.0000,1,466,830,230
50426755,8045,-0.0283,-0.0186,1.0220,-0.1221,0.1831,0.1221,1,484,820,230
50431758,8046,-0.0288,-0.0186,1.0229,-0.0610,0.1831,0.0610,1,465,859,230
50436762,8047,-0.0288,-0.0181,1.0225,0.0610,0.1221,0.0000,1,484,865,230
50441757,8048,-0.0283,-0.0190,1.0215,0.0610,0.0610,0.0000,1,466,813,230
50446756,8049,-0.0283,-0.0195,1.0195,0.0610,0.3052,-0.1831,1,477,825,230
50451757,8050,-0.0278,-0.0181,1.0181,0.3052,0.1831,-0.1831,1,482,873,230
50456759,8051,-0.0278,-0.0176,1.0190,0.3052,0.1831,-0.2441,1,467,869,230
50461755,8052,-0.0273,-0.0171,1.0215,0.2441,0.2441,-0.1831,1,494,858,230
50466758,8053,-0.0273,-0.0171,1.0229,0.2441,0.0610,-0.1221,1,477,858,230
50471755,8054,-0.0283,-0.0171,1.0234,0.1831,0.0000,-0.1831,1,511,854,230
50476757,8055,-0.0308,-0.0181,1.0229,0.1221,0.0610,-0.1831,1,466,806,230
50481754,8056,-0.0298,-0.0181,1.0225,0.1221,0.0610,-0.1831,1,485,840,230
50486758,8057,-0.0283,-0.0176,1.0239,0.1831,-0.0610,-0.1221,1,491,839,230
50491755,8058,-0.0283,-0.0176,1.0244,0.1831,-0.0610,-0.1221,1,476,868,230
50496756,8059,-0.0278,-0.0181,1.0225,0.1831,0.1221,-0.1221,1,485,846,230
50501758,8060,-0.0283,-0.0181,1.0210,0.1221,0.1831,-0.1221,1,490,841,230
50506760,8061,-0.0303,-0.0171,1.0210,0.0610,0.0610,-0.1221,1,485,839,230
50511754,8062,-0.0312,-0.0171,1.0210,0.0000,0.1831,-0.2441,1,493,833,230
50516757,8063,-0.0308,-0.0171,1.0210,0.0610,0.1221,-0.1831,1,466,852,230
50521761,8064,-0.0303,-0.0171,1.0205,0.0610,-0.0610,-0.1831,1,466,866,230
50526759,8065,-0.0293,-0.0181,1.0210,0.0610,0.1221,-0.1221,1,466,870,230
50531762,8066,-0.0288,-0.0190,1.0215,0.1221,0.3662,-0.2441,1,483,861,230
50536760,8067,-0.0298,-0.0186,1.0225,0.0000,0.2441,-0.1831,1,466,877,230
50541756,8068,-0.0308,-0.0171,1.0220,-0.0610,0.1831,-0.1831,1,484,829,230
50546757,8069,-0.0312,-0.0176,1.0210,-0.1831,0.1221,-0.0610,1,465,899,230
50551760,8070,-0.0317,-0.0181,1.0215,-0.0610,0.1221,-0.1221,1,482,922,230
50556760,8071,-0.0303,-0.0171,1.0215,0.0000,0.1221,-0.1831,1,482,857,230
50561781,8072,-0.0293,-0.0166,1.0210,0.0000,0.1221,-0.1831,1,466,803,230
50566760,8073,-0.0288,-0.0166,1.0210,0.0000,0.1221,-0.1221,1,469,808,230
50571756,8074,-0.0283,-0.0176,1.0215,0.1221,0.2441,-0.1221,1,495,805,230
50576763,8075,-0.0288,-0.0195,1.0215,0.1221,0.2441,-0.2441,1,483,852,230
50581761,8076,-0.0303,-0.0200,1.0220,0.2441,0.3662,-0.1831,1,512,858,230
50586756,8077,-0.0303,-0.0190,1.0229,0.1831,0.3052,-0.1831,1,479,856,230
50591754,8078,-0.0293,-0.0181,1.0234,0.0610,0.4272,-0.2441,1,490,846,230
50596758,8079,-0.0288,-0.0171,1.0239,0.1221,0.3662,-0.1831,1,481,847,230
50601754,8080,-0.0303,-0.0166,1.0229,0.1221,0.3052,-0.3662,1,484,869,230
50606756,8081,-0.0308,-0.0176,1.0215,0.0610,0.2441,-0.2441,1,476,844,230
50611761,8082,-0.0293,-0.0186,1.0210,0.0000,0.3052,-0.2441,1,469,844,230
50616759,8083,-0.0283,-0.0176,1.0205,-0.0610,0.1831,-0.3052,1,493,795,230
50621756,8084,-0.0278,-0.0171,1.0210,0.0000,0.0000,-0.2441,1,466,872,230
50626755,8085,-0.0283,-0.0171,1.0229,-0.1221,0.1221,-0.3052,1,466,783,230
50631773,8086,-0.0298,-0.0171,1.0229,-0.1221,0.1221,-0.3052,1,466,868,230
50636760,8087,-0.0288,-0.0171,1.0220,-0.0610,0.0000,-0.1831,1,466,866,230
50641755,8088,-0.0278,-0.0181,1.0205,-0.0610,-0.0610,-0.2441,1,483,819,230
50646760,8089,-0.0293,-0.0190,1.0205,0.0000,0.1221,-0.2441,1,473,863,230
50651758,8090,-0.0298,-0.0190,1.0220,-0.0610,0.1221,-0.1221,1,484,854,230
50656758,8091,-0.0283,-0.0171,1.0225,-0.0610,0.2441,-0.2441,1,474,906,230
50661756,8092,-0.0283,-0.0161,1.0220,-0.0610,0.1831,-0.2441,1,477,867,230
50666754,8093,-0.0288,-0.0166,1.0225,-0.1221,0.2441,-0.3662,1,478,871,230
50671769,8094,-0.0283,-0.0171,1.0234,-0.1831,0.1221,-0.3052,1,481,877,230
50676754,8095,-0.0283,-0.0171,1.0239,-0.3052,0.1831,-0.2441,1,469,853,230
50681757,8096,-0.0283,-0.0176,1.0229,-0.1831,0.2441,-0.3662,1,508,859,230
50686762,8097,-0.0293,-0.0181,1.0225,-0.2441,0.3052,-0.3662,1,491,865,230
50691759,8098,-0.0288,-0.0190,1.0215,-0.3662,0.3662,-0.3052,1,511,782,230
50696757,8099,-0.0288,-0.0195,1.0210,-0.3052,0.3052,-0.3052,1,488,870,230
50701762,8100,-0.0288,-0.0195,1.0200,-0.2441,0.3052,-0.3052,1,473,838,230
50706761,8101,-0.0293,-0.0186,1.0205,-0.2441,0.4883,-0.3662,1,474,844,230
50711754,8102,-0.0293,-0.0181,1.0210,-0.1831,0.6714,-0.3662,1,471,869,230
50716754,8103,-0.0288,-0.0171,1.0210,-0.0610,0.6104,-0.2441,1,485,843,230
50721758,8104,-0.0293,-0.0176,1.0215,0.0000,0.4883,-0.1831,1,491,843,230
50726756,8105,-0.0303,-0.0181,1.0225,-0.1221,0.3662,-0.2441,1,492,800,230
50731754,8106,-0.0308,-0.0181,1.0210,0.0000,0.4272,-0.2441,1,466,869,230
50736754,8107,-0.0312,-0.0176,1.0200,0.1221,0.3662,-0.2441,1,466,824,230
50741755,8108,-0.0312,-0.0176,1.0195,0.0610,0.3052,-0.3662,1,466,899,230
50746763,8109,-0.0308,-0.0186,1.0205,-0.0610,0.3052,-0.3662,1,465,899,230
50751761,8110,-0.0293,-0.0195,1.0215,-0.0610,0.1831,-0.1831,1,483,869,230
50756759,8111,-0.0278,-0.0195,1.0220,0.0610,0.2441,-0.3052,1,465,877,230
50761755,8112,-0.0283,-0.0195,1.0210,0.1221,0.3052,-0.3662,1,484,863,230
50766755,8113,-0.0298,-0.0190,1.0195,0.2441,0.1831,-0.3052,1,466,898,230
50771762,8114,-0.0303,-0.0176,1.0200,0.1831,0.1221,-0.3052,1,481,932,230
50776755,8115,-0.0303,-0.0176,1.0215,0.1831,0.0000,-0.3052,1,474,855,230
50781756,8116,-0.0303,-0.0176,1.0229,0.2441,-0.1221,-0.3052,1,466,803,230
50786759,8117,-0.0308,-0.0171,1.0234,0.1221,0.0000,-0.3052,1,465,850,230
50791754,8118,-0.0317,-0.0171,1.0225,0.1221,0.1221,-0.3052,1,508,800,230
50796762,8119,-0.0312,-0.0176,1.0210,0.1831,0.0610,-0.3052,1,486,845,230
50801761,8120,-0.0303,-0.0181,1.0210,0.1221,0.1221,-0.2441,1,511,875,230
50806754,8121,-0.0298,-0.0195,1.0220,0.1221,0.1831,-0.3052,1,473,788,230
50811763,8122,-0.0293,-0.0205,1.0215,0.1221,0.1221,-0.2441,1,476,841,230
50816755,8123,-0.0283,-0.0200,1.0210,0.1221,0.1221,-0.2441,1,475,842,230
50821761,8124,-0.0283,-0.0190,1.0215,0.1221,0.0610,-0.2441,1,490,840,230
50826757,8125,-0.0283,-0.0186,1.0220,0.1221,-0.0610,-0.3052,1,490,845,230
50831757,8126,-0.0293,-0.0190,1.0229,0.1221,-0.0610,-0.1831,1,476,839,230
50836760,8127,-0.0293,-0.0195,1.0234,0.1831,-0.1221,-0.1831,1,493,846,230
50841760,8128,-0.0283,-0.0190,1.0239,0.0000,0.0000,-0.2441,1,492,850,230
50846758,8129,-0.0278,-0.0186,1.0249,0.0610,0.0610,-0.1831,1,466,787,230
50851758,8130,-0.0278,-0.0190,1.0244,0.0610,0.1221,-0.0610,1,466,876,230
50856775,8131,-0.0283,-0.0195,1.0229,0.0000,0.1831,-0.1831,1,465,874,230
50861757,8132,-0.0283,-0.0186,1.0205,0.1221,0.1831,-0.1831,1,465,839,230
50866755,8133,-0.0273,-0.0176,1.0200,0.2441,0.1221,-0.1221,1,483,878,230
50871755,8134,-0.0273,-0.0171,1.0220,0.1221,0.1831,-0.1221,1,477,859,230
50876762,8135,-0.0278,-0.0181,1.0234,0.0610,0.3662,-0.3662,1,465,868,230
50881762,8136,-0.0293,-0.0186,1.0239,0.0000,0.3052,-0.3052,1,475,905,230
50886762,8137,-0.0298,-0.0181,1.0234,0.0610,0.2441,-0.2441,1,477,822,230
50891760,8138,-0.0293,-0.0176,1.0234,0.0000,0.1831,-0.2441,1,479,874,230
50896787,8139,-0.0288,-0.0186,1.0234,0.0610,0.1221,-0.1221,1,480,815,230
50901759,8140,-0.0293,-0.0195,1.0225,0.0610,0.1221,-0.0610,1,480,868,230
50906757,8141,-0.0288,-0.0195,1.0229,0.0000,0.1221,-0.1831,1,466,848,230
50911761,8142,-0.0288,-0.0195,1.0225,0.0610,0.1221,-0.3052,1,487,740,230
50916762,8143,-0.0288,-0.0190,1.0220,-0.0610,0.1221,-0.1221,1,511,776,230
50921759,8144,-0.0288,-0.0190,1.0225,0.0610,0.3052,-0.1221,1,480,850,230
50926755,8145,-0.0293,-0.0190,1.0220,0.0610,0.3662,-0.1831,1,490,840,230
50931757,8146,-0.0303,-0.0181,1.0210,0.1221,0.2441,-0.3662,1,483,848,230
50936759,8147,-0.0303,-0.0176,1.0200,0.0610,0.1831,-0.3662,1,486,861,230
50941757,8148,-0.0298,-0.0181,1.0200,0.0000,0.3662,-0.1831,1,482,842,230
50946759,8149,-0.0288,-0.0200,1.0205,0.1221,0.4883,-0.2441,1,492,798,230
50951754,8150,-0.0293,-0.0205,1.0215,0.0000,0.4883,-0.2441,1,493,845,230
50956759,8151,-0.0308,-0.0195,1.0215,0.0610,0.3052,-0.0610,1,466,829,230
50961756,8152,-0.0308,-0.0190,1.0205,0.0610,0.2441,-0.0610,1,466,866,230
50966762,8153,-0.0298,-0.0186,1.0200,0.1221,0.2441,-0.1831,1,466,871,230
50971754,8154,-0.0293,-0.0181,1.0210,0.0000,0.1221,-0.0610,1,466,873,230
50976757,8155,-0.0293,-0.0176,1.0215,0.0000,0.1831,-0.1221,1,466,761,230
50981754,8156,-0.0293,-0.0171,1.0220,0.1221,0.2441,-0.1831,1,485,824,230
50986761,8157,-0.0298,-0.0176,1.0229,0.0610,0.2441,-0.1221,1,466,899,230
50991762,8158,-0.0288,-0.0186,1.0229,0.0000,0.1831,-0.0610,1,479,932,230
50996758,8159,-0.0283,-0.0190,1.0205,0.1221,0.2441,-0.0610,1,481,821,230
51001784,8160,-0.0283,-0.0186,1.0200,0.0610,0.0610,-0.1221,1,468,872,230
51006758,8161,-0.0283,-0.0181,1.0225,0.0610,0.2441,-0.1831,1,471,865,230
51011756,8162,-0.0283,-0.0171,1.0234,0.0610,0.3662,-0.1831,1,502,856,230
51016756,8163,-0.0278,-0.0171,1.0225,0.0610,0.4272,-0.3052,1,483,859,230
51021760,8164,-0.0278,-0.0176,1.0195,0.0000,0.4272,-0.4272,1,512,783,230
51026760,8165,-0.0278,-0.0171,1.0181,0.0000,0.3662,-0.2441,1,474,806,230
51031761,8166,-0.0288,-0.0166,1.0190,0.1221,0.3052,-0.2441,1,483,800,230
51036761,8167,-0.0298,-0.0171,1.0210,0.1221,0.2441,-0.2441,1,490,846,230
51041755,8168,-0.0293,-0.0181,1.0234,-0.1221,0.1221,-0.1831,1,476,864,230
51046757,8169,-0.0288,-0.0195,1.0239,-0.0610,0.1831,-0.1831,1,483,842,230
51051761,8170,-0.0298,-0.0195,1.0215,0.0000,0.2441,-0.1831,1,490,853,230
51056760,8171,-0.0303,-0.0186,1.0200,0.0000,0.1221,-0.2441,1,493,804,230
51061758,8172,-0.0293,-0.0181,1.0200,-0.1221,0.1221,-0.2441,1,466,822,230
51066758,8173,-0.0288,-0.0186,1.0205,-0.0610,0.1221,-0.2441,1,466,867,230
51071773,8174,-0.0283,-0.0195,1.0225,0.0610,0.1831,-0.3052,1,466,874,230
51076759,8175,-0.0278,-0.0186,1.0234,-0.1221,0.3662,-0.2441,1,465,875,230
51081756,8176,-0.0278,-0.0181,1.0229,0.0000,0.3052,-0.1221,1,484,880,230
51086754,8177,-0.0288,-0.0181,1.0225,0.0610,0.4272,-0.1831,1,476,815,230
51091754,8178,-0.0298,-0.0186,1.0220,-0.1221,0.3052,-0.2441,1,465,873,230
51096763,8179,-0.0293,-0.0190,1.0215,-0.0610,0.3662,-0.2441,1,482,896,230
51101754,8180,-0.0293,-0.0195,1.0220,0.0000,0.5493,-0.1831,1,477,866,230
51106762,8181,-0.0293,-0.0190,1.0234,0.0610,0.4883,-0.0610,1,467,785,230
51111764,8182,-0.0283,-0.0186,1.0229,0.0000,0.4272,-0.1221,1,481,870,230
51116757,8183,-0.0278,-0.0176,1.0215,-0.0610,0.4272,-0.1831,1,480,812,230
51121759,8184,-0.0278,-0.0161,1.0205,0.0000,0.4272,-0.1221,1,492,859,230
51126757,8185,-0.0273,-0.0166,1.0210,-0.0610,0.3052,-0.1831,1,492,738,230
51131755,8186,-0.0288,-0.0176,1.0210,0.0000,0.1831,-0.1831,1,511,779,230
51136761,8187,-0.0298,-0.0181,1.0215,0.0610,0.0610,-0.1221,1,476,803,230
51141757,8188,-0.0298,-0.0190,1.0220,0.0610,0.0610,-0.0610,1,478,836,230
51146761,8189,-0.0298,-0.0195,1.0200,0.0000,0.1831,-0.1221,1,483,841,230
51151757,8190,-0.0298,-0.0205,1.0190,0.0610,0.0610,-0.2441,1,487,798,230
51156758,8191,-0.0293,-0.0200,1.0200,0.2441,-0.0610,-0.3052,1,480,844,230
51161762,8192,-0.0288,-0.0190,1.0205,0.2441,0.0000,-0.3052,1,480,841,230
51166757,8193,-0.0288,-0.0195,1.0215,0.0610,-0.0610,-0.3052,1,493,802,230
51171758,8194,-0.0288,-0.0200,1.0225,0.0610,0.0610,-0.2441,1,466,872,230
51176755,8195,-0.0278,-0.0190,1.0225,0.0000,0.1831,-0.1831,1,466,873,230
51181761,8196,-0.0273,-0.0181,1.0220,0.0000,0.2441,-0.3052,1,466,834,230
51186756,8197,-0.0278,-0.0171,1.0200,0.0000,0.3052,-0.1831,1,483,826,230
51191757,8198,-0.0283,-0.0181,1.0190,-0.0610,0.1221,-0.1221,1,465,762,230
51196762,8199,-0.0288,-0.0190,1.0215,0.0610,0.0610,-0.1221,1,484,855,230
51201759,8200,-0.0298,-0.0190,1.0244,0.0610,0.0610,-0.1831,1,466,897,230
51206760,8201,-0.0303,-0.0186,1.0239,-0.0610,0.0610,-0.2441,1,467,865,230
51211762,8202,-0.0298,-0.0181,1.0210,0.0000,0.1221,-0.1221,1,470,871,230
51216759,8203,-0.0288,-0.0190,1.0195,0.0610,0.2441,-0.1831,1,471,798,230
51221763,8204,-0.0273,-0.0190,1.0210,0.1831,0.3052,-0.2441,1,477,862,230
51226762,8205,-0.0269,-0.0186,1.0225,0.1831,0.2441,-0.1831,1,498,856,230
51231758,8206,-0.0283,-0.0181,1.0234,0.1221,0.2441,-0.1831,1,483,859,230
51236756,8207,-0.0298,-0.0176,1.0239,0.0610,0.1221,-0.1831,1,511,782,230
51241760,8208,-0.0303,-0.0176,1.0225,0.0000,0.1831,-0.1831,1,489,797,230
51246757,8209,-0.0293,-0.0181,1.0205,0.0000,0.3662,-0.1831,1,486,800,230
51251760,8210,-0.0298,-0.0190,1.0190,-0.0610,0.1831,-0.2441,1,475,827,230
51256759,8211,-0.0293,-0.0190,1.0200,0.0000,0.2441,-0.2441,1,478,869,230
51261760,8212,-0.0273,-0.0186,1.0229,-0.0610,0.2441,-0.1831,1,488,802,230
51266757,8213,-0.0269,-0.0181,1.0234,-0.0610,0.2441,-0.2441,1,491,852,230
51271759,8214,-0.0264,-0.0181,1.0210,0.0610,0.2441,-0.1831,1,494,847,230
51276763,8215,-0.0278,-0.0176,1.0195,0.0000,0.2441,-0.2441,1,466,842,230
51281755,8216,-0.0288,-0.0181,1.0210,-0.0610,0.2441,-0.1221,1,466,835,230
51286759,8217,-0.0303,-0.0200,1.0234,0.0610,0.0610,-0.1831,1,466,870,230
51291762,8218,-0.0293,-0.0205,1.0229,0.0610,0.0610,-0.1221,1,466,871,230
51296756,8219,-0.0283,-0.0205,1.0220,-0.0610,0.1221,-0.1831,1,465,870,230
51301761,8220,-0.0283,-0.0190,1.0210,-0.0610,0.0610,-0.1831,1,484,864,230
51306757,8221,-0.0273,-0.0176,1.0200,0.0000,0.1221,-0.1831,1,466,871,230
51311759,8222,-0.0278,-0.0176,1.0195,-0.0610,0.1221,-0.2441,1,474,817,230
51316757,8223,-0.0293,-0.0171,1.0195,0.0610,0.1221,-0.2441,1,475,866,230
51321756,8224,-0.0293,-0.0171,1.0215,0.1221,0.1831,-0.2441,1,482,861,230
51326759,8225,-0.0278,-0.0171,1.0239,0.0610,0.3662,-0.3052,1,465,853,230
51331763,8226,-0.0273,-0.0171,1.0244,0.0610,0.3052,-0.1831,1,492,854,230
51336754,8227,-0.0288,-0.0186,1.0239,0.1221,0.3052,-0.0610,1,484,852,230
51341757,8228,-0.0298,-0.0200,1.0234,0.1221,0.2441,-0.1221,1,511,850,230
51346754,8229,-0.0298,-0.0205,1.0234,0.0610,0.3662,-0.1221,1,466,822,230
51351757,8230,-0.0298,-0.0200,1.0239,0.0000,0.3052,-0.1221,1,486,844,230
51356761,8231,-0.0298,-0.0186,1.0229,0.0000,0.2441,-0.1831,1,489,794,230
51361756,8232,-0.0288,-0.0171,1.0215,0.0000,0.2441,-0.1221,1,491,805,230
51366761,8233,-0.0283,-0.0171,1.0215,0.0000,0.1221,-0.1221,1,483,799,230
51371759,8234,-0.0283,-0.0176,1.0210,0.0610,0.1831,-0.1831,1,487,793,230
51376754,8235,-0.0283,-0.0186,1.0210,0.0000,0.2441,-0.1831,1,484,847,230
51381758,8236,-0.0293,-0.0190,1.0215,-0.0610,0.2441,-0.1831,1,466,803,230
51386756,8237,-0.0303,-0.0186,1.0220,0.0610,0.3052,-0.1221,1,466,876,230
51391769,8238,-0.0298,-0.0190,1.0210,0.1221,0.4272,-0.1221,1,466,864,230
51396763,8239,-0.0293,-0.0195,1.0195,0.0610,0.4272,-0.1221,1,465,869,230
51401758,8240,-0.0293,-0.0200,1.0181,-0.0610,0.3052,-0.1221,1,483,874,230
51406754,8241,-0.0298,-0.0190,1.0190,-0.0610,0.3662,-0.1221,1,466,852,230
51411757,8242,-0.0298,-0.0171,1.0215,0.1221,0.3052,-0.2441,1,484,862,230
51416756,8243,-0.0293,-0.0156,1.0229,0.1221,0.4272,-0.1831,1,473,894,230
51421762,8244,-0.0278,-0.0161,1.0225,-0.0610,0.5493,-0.1831,1,476,866,230
51426756,8245,-0.0273,-0.0181,1.0205,-0.0610,0.5493,-0.3052,1,472,872,230
51431769,8246,-0.0283,-0.0195,1.0210,0.0610,0.4883,-0.1831,1,481,869,230
51436756,8247,-0.0298,-0.0200,1.0215,0.0000,0.4272,-0.1831,1,472,856,230
51441758,8248,-0.0303,-0.0200,1.0225,0.0610,0.3662,-0.1831,1,510,811,230
51446757,8249,-0.0303,-0.0200,1.0234,-0.0610,0.4883,-0.1221,1,484,852,230
51451757,8250,-0.0298,-0.0210,1.0234,0.0610,0.6714,-0.1831,1,512,778,230
51456758,8251,-0.0288,-0.0210,1.0225,0.0610,0.4883,-0.0610,1,475,854,230
51461756,8252,-0.0288,-0.0195,1.0220,-0.0610,0.2441,-0.1221,1,484,840,230
51466759,8253,-0.0283,-0.0181,1.0225,-0.1221,0.4272,-0.1831,1,473,847,230
51471762,8254,-0.0273,-0.0166,1.0225,0.0610,0.3662,-0.2441,1,478,866,230
51476762,8255,-0.0273,-0.0166,1.0215,0.0610,0.2441,-0.1831,1,484,851,230
51481756,8256,-0.0288,-0.0171,1.0205,0.2441,0.2441,-0.1831,1,484,851,230
51486761,8257,-0.0298,-0.0186,1.0210,0.1831,0.2441,-0.1831,1,493,852,230
51491759,8258,-0.0303,-0.0195,1.0215,0.1831,0.1831,-0.2441,1,466,876,230
51496762,8259,-0.0298,-0.0215,1.0220,0.1831,0.1831,-0.1831,1,465,879,230
51501758,8260,-0.0298,-0.0229,1.0220,0.1221,0.1831,-0.1221,1,466,878,230
51506761,8261,-0.0298,-0.0229,1.0205,0.1221,0.0610,-0.1831,1,483,872,230
51511763,8262,-0.0308,-0.0205,1.0205,0.0610,0.0610,-0.1831,1,466,872,230
51516761,8263,-0.0298,-0.0186,1.0205,0.0610,0.2441,-0.2441,1,484,859,230
51521760,8264,-0.0278,-0.0171,1.0205,0.1221,0.2441,-0.1831,1,465,874,230
51526755,8265,-0.0278,-0.0166,1.0215,0.1831,0.1831,-0.1221,1,472,934,230
51531758,8266,-0.0303,-0.0161,1.0215,0.1221,0.3052,-0.2441,1,480,869,230
51536756,8267,-0.0312,-0.0171,1.0210,0.0610,0.3052,-0.3052,1,480,859,230
51541762,8268,-0.0308,-0.0186,1.0205,0.1831,0.3052,-0.2441,1,482,841,230
51546758,8269,-0.0303,-0.0200,1.0205,0.0610,0.3052,-0.1831,1,503,853,230
51551760,8270,-0.0298,-0.0195,1.0205,0.1221,0.1831,-0.0610,1,509,848,230
51556757,8271,-0.0288,-0.0195,1.0215,-0.0610,0.0610,-0.1221,1,501,852,230
51561761,8272,-0.0288,-0.0181,1.0215,0.1221,0.0610,-0.1831,1,466,814,230
51566757,8273,-0.0283,-0.0171,1.0210,0.1221,0.1831,-0.1221,1,476,842,230
51571757,8274,-0.0278,-0.0161,1.0210,0.0610,0.1831,-0.2441,1,488,839,230
51576756,8275,-0.0278,-0.0156,1.0215,0.1831,0.1831,-0.3052,1,473,850,230
51581757,8276,-0.0278,-0.0166,1.0239,0.1831,0.1221,-0.2441,1,473,848,230
51586759,8277,-0.0288,-0.0190,1.0249,0.0000,0.0610,-0.2441,1,479,853,230
51591758,8278,-0.0308,-0.0195,1.0229,0.0610,0.1831,-0.2441,1,480,804,230
51596755,8279,-0.0317,-0.0200,1.0210,-0.0610,0.0000,-0.3052,1,493,849,230
51601756,8280,-0.0308,-0.0200,1.0205,0.0610,0.0610,-0.3052,1,466,821,230
51606761,8281,-0.0283,-0.0200,1.0215,0.0610,0.1831,-0.2441,1,465,865,230
51611759,8282,-0.0278,-0.0190,1.0225,0.0610,0.0610,-0.3052,1,465,878,230
51616757,8283,-0.0273,-0.0181,1.0234,0.0000,0.1221,-0.2441,1,483,869,230
51621761,8284,-0.0278,-0.0166,1.0229,0.0610,0.0610,-0.1221,1,466,818,230
51626759,8285,-0.0283,-0.0166,1.0215,0.0610,-0.0610,-0.1831,1,484,863,230
51631755,8286,-0.0283,-0.0166,1.0210,-0.0610,0.1831,-0.3662,1,466,904,230
51636761,8287,-0.0288,-0.0171,1.0215,0.0000,0.3052,-0.1831,1,473,868,230
51641760,8288,-0.0298,-0.0181,1.0215,0.0000,0.1831,-0.0610,1,473,824,230
51646759,8289,-0.0303,-0.0190,1.0210,0.0610,0.2441,-0.2441,1,477,806,230
51651758,8290,-0.0303,-0.0190,1.0205,0.1221,0.3052,-0.3052,1,482,854,230
51656756,8291,-0.0288,-0.0200,1.0205,0.1831,0.1831,-0.2441,1,508,844,230
51661754,8292,-0.0283,-0.0205,1.0215,0.1221,0.1831,-0.1831,1,484,861,230
51666757,8293,-0.0293,-0.0186,1.0220,0.1221,0.2441,-0.2441,1,494,788,230
51671759,8294,-0.0293,-0.0176,1.0229,0.1221,0.3052,-0.2441,1,481,854,230
51676759,8295,-0.0288,-0.0186,1.0239,0.1221,0.1831,-0.1831,1,490,854,230
51681762,8296,-0.0293,-0.0186,1.0239,0.0610,0.1831,-0.1221,1,488,850,230
51686759,8297,-0.0298,-0.0181,1.0229,0.0610,0.1831,-0.1831,1,491,844,230
51691762,8298,-0.0298,-0.0186,1.0220,0.0610,0.2441,-0.1831,1,483,846,230
51696760,8299,-0.0293,-0.0200,1.0215,0.0000,0.1831,-0.1831,1,488,846,230
51701758,8300,-0.0298,-0.0195,1.0215,0.0610,0.1831,-0.1831,1,493,801,230
51706754,8301,-0.0293,-0.0190,1.0229,0.1221,0.2441,-0.3052,1,466,877,230
51711758,8302,-0.0293,-0.0190,1.0239,0.0610,0.1831,-0.2441,1,466,871,230
51716757,8303,-0.0303,-0.0186,1.0225,-0.0610,0.2441,-0.1831,1,466,879,230
51721754,8304,-0.0298,-0.0195,1.0210,0.1221,0.4272,-0.3052,1,483,874,230
51726761,8305,-0.0293,-0.0190,1.0205,0.1221,0.3052,-0.2441,1,465,858,230
51731759,8306,-0.0293,-0.0186,1.0220,0.0000,0.1831,-0.1831,1,484,813,230
51736758,8307,-0.0283,-0.0190,1.0229,0.0610,0.1831,-0.1221,1,468,820,230
51741758,8308,-0.0283,-0.0181,1.0225,-0.0610,0.3052,-0.1831,1,477,866,230
51746762,8309,-0.0298,-0.0166,1.0215,-0.0610,0.4272,-0.3052,1,481,869,230
51751761,8310,-0.0308,-0.0176,1.0220,0.0610,0.4272,-0.3662,1,480,871,230
51756757,8311,-0.0308,-0.0181,1.0220,0.1221,0.3052,-0.2441,1,466,853,230
51761761,8312,-0.0293,-0.0186,1.0220,0.0000,0.1221,-0.1831,1,495,846,230
51766755,8313,-0.0283,-0.0200,1.0220,-0.0610,0.3662,-0.2441,1,485,732,230
51771762,8314,-0.0283,-0.0190,1.0220,0.0610,0.3662,-0.3052,1,493,801,230
51776754,8315,-0.0283,-0.0176,1.0225,0.1221,0.2441,-0.1831,1,491,797,230
51781754,8316,-0.0283,-0.0176,1.0225,0.0610,0.3052,-0.1221,1,480,847,230
51786754,8317,-0.0278,-0.0181,1.0215,-0.0610,0.2441,-0.1831,1,490,839,230
51791755,8318,-0.0269,-0.0186,1.0205,0.0610,0.4272,-0.3052,1,480,848,230
51796760,8319,-0.0283,-0.0181,1.0210,0.2441,0.3052,-0.2441,1,488,840,230
51801755,8320,-0.0298,-0.0171,1.0225,0.2441,0.3052,-0.2441,1,488,844,230
51806762,8321,-0.0293,-0.0176,1.0225,0.0610,0.3052,-0.2441,1,466,843,230
51811756,8322,-0.0293,-0.0195,1.0210,0.0610,0.2441,-0.1831,1,466,868,230
51816767,8323,-0.0298,-0.0200,1.0195,0.1831,0.4272,-0.2441,1,466,876,230
51821754,8324,-0.0298,-0.0195,1.0195,0.1221,0.3662,-0.3052,1,466,881,230
51826759,8325,-0.0288,-0.0195,1.0210,0.0610,0.3662,-0.1831,1,483,873,230
51831754,8326,-0.0283,-0.0186,1.0220,0.0610,0.3662,-0.3052,1,465,867,230
51836757,8327,-0.0283,-0.0176,1.0234,0.0610,0.3052,-0.3052,1,483,808,230
51841759,8328,-0.0283,-0.0181,1.0249,0.1221,0.3052,-0.1831,1,472,896,230
51846755,8329,-0.0283,-0.0186,1.0239,0.0610,0.2441,-0.1831,1,475,862,230
51851755,8330,-0.0293,-0.0200,1.0210,0.0000,0.1831,-0.2441,1,480,878,230
51856761,8331,-0.0298,-0.0205,1.0195,0.0610,0.1831,-0.2441,1,466,808,230
51861758,8332,-0.0288,-0.0200,1.0205,0.0610,0.1831,-0.2441,1,482,859,230
51866754,8333,-0.0278,-0.0190,1.0215,0.0000,0.1831,-0.2441,1,492,858,230
51871760,8334,-0.0283,-0.0181,1.0215,0.0000,0.0610,-0.1831,1,489,741,230
51876761,8335,-0.0288,-0.0166,1.0220,-0.1221,0.1831,-0.2441,1,511,734,230
51881761,8336,-0.0283,-0.0161,1.0220,-0.0610,0.1221,-0.1221,1,464,813,230
51886762,8337,-0.0283,-0.0171,1.0210,0.0610,0.0000,-0.1831,1,483,843,230
51891763,8338,-0.0288,-0.0181,1.0205,0.0610,0.1221,-0.1831,1,492,796,230
51896756,8339,-0.0298,-0.0181,1.0229,0.1221,0.2441,-0.2441,1,479,870,230
51901757,8340,-0.0298,-0.0186,1.0229,0.0000,0.3052,-0.3052,1,478,845,230
51906754,8341,-0.0298,-0.0190,1.0205,0.0610,0.1221,-0.1831,1,484,795,230
51911755,8342,-0.0303,-0.0190,1.0195,0.1221,0.1221,-0.1831,1,466,844,230
51916762,8343,-0.0303,-0.0190,1.0210,0.1221,0.1831,-0.1831,1,466,869,230
51921761,8344,-0.0283,-0.0190,1.0225,0.1221,0.1831,-0.1831,1,466,870,230
51926759,8345,-0.0273,-0.0200,1.0229,0.0000,0.1831,-0.1831,1,466,878,230
51931754,8346,-0.0273,-0.0205,1.0229,0.0610,0.1831,-0.3052,1,484,833,230
51936756,8347,-0.0283,-0.0190,1.0225,0.2441,0.1831,-0.2441,1,475,863,230
51941757,8348,-0.0298,-0.0171,1.0225,0.1831,0.1221,-0.1831,1,466,824,230
51946760,8349,-0.0303,-0.0171,1.0225,0.1221,0.1221,-0.3052,1,466,934,230
51951757,8350,-0.0298,-0.0181,1.0229,0.0610,0.1831,-0.2441,1,469,850,230
51956757,8351,-0.0288,-0.0186,1.0239,0.1831,0.2441,-0.2441,1,477,866,230
51961781,8352,-0.0283,-0.0186,1.0239,0.0000,0.1831,-0.1831,1,481,837,230
51966759,8353,-0.0293,-0.0186,1.0229,-0.0610,0.0610,-0.1831,1,465,818,230
51971754,8354,-0.0298,-0.0186,1.0215,0.1221,-0.1221,-0.1221,1,484,853,230
51976762,8355,-0.0288,-0.0181,1.0205,0.0610,0.0000,-0.1221,1,512,845,230
51981755,8356,-0.0278,-0.0161,1.0210,0.0610,0.0610,-0.1831,1,464,805,230
51986758,8357,-0.0278,-0.0161,1.0210,0.1221,0.1221,-0.1831,1,488,856,230
51991757,8358,-0.0288,-0.0171,1.0215,0.0610,0.1221,-0.1831,1,473,844,230
51996761,8359,-0.0303,-0.0181,1.0220,0.0610,0.1221,-0.1831,1,483,842,230
52001756,8360,-0.0308,-0.0190,1.0225,0.0610,0.1221,-0.1831,1,488,838,230
52006759,8361,-0.0303,-0.0200,1.0225,-0.0610,0.1221,-0.2441,1,481,840,230
52011754,8362,-0.0298,-0.0195,1.0220,0.1831,0.1221,-0.2441,1,493,839,230
52016754,8363,-0.0293,-0.0186,1.0200,0.1831,0.1221,-0.2441,1,493,848,230
52021759,8364,-0.0293,-0.0186,1.0190,0.0000,0.2441,-0.3052,1,466,872,230
52026759,8365,-0.0298,-0.0190,1.0210,0.0000,0.2441,-0.2441,1,466,827,230
52031762,8366,-0.0298,-0.0195,1.0220,0.0610,0.2441,-0.3052,1,466,831,230
52036759,8367,-0.0288,-0.0200,1.0220,0.1221,0.2441,-0.3052,1,465,872,230
52041763,8368,-0.0273,-0.0195,1.0215,0.1831,0.1831,-0.2441,1,484,859,230
52046763,8369,-0.0278,-0.0186,1.0205,0.1831,0.3052,-0.2441,1,465,880,230
52051762,8370,-0.0288,-0.0181,1.0200,0.0000,0.4272,-0.1831,1,472,933,230
52056754,8371,-0.0298,-0.0186,1.0205,-0.0610,0.3662,-0.1221,1,473,820,230
52061754,8372,-0.0293,-0.0195,1.0215,-0.1221,0.3052,-0.1221,1,465,870,230
52066781,8373,-0.0293,-0.0205,1.0220,-0.0610,0.3052,-0.0610,1,465,847,230
52071761,8374,-0.0298,-0.0205,1.0220,0.0000,0.3662,-0.2441,1,482,848,230
52076760,8375,-0.0293,-0.0190,1.0210,0.0000,0.3052,-0.1831,1,504,813,230
52081754,8376,-0.0288,-0.0176,1.0210,0.1221,0.1831,-0.1221,1,503,806,230
52086758,8377,-0.0293,-0.0176,1.0229,0.1221,0.1221,-0.1831,1,494,799,230
52091758,8378,-0.0288,-0.0176,1.0244,0.0000,0.2441,-0.2441,1,469,852,230
52096762,8379,-0.0278,-0.0171,1.0239,0.0000,0.1831,-0.3052,1,480,807,230
52101755,8380,-0.0283,-0.0171,1.0225,0.0610,0.1221,-0.1831,1,483,821,230
52106754,8381,-0.0298,-0.0176,1.0215,0.1221,0.0000,-0.1831,1,475,864,230
52111762,8382,-0.0308,-0.0186,1.0210,0.1221,0.0000,-0.2441,1,482,797,230
52116759,8383,-0.0298,-0.0190,1.0220,0.0610,0.0610,-0.2441,1,474,794,230
52121762,8384,-0.0278,-0.0195,1.0229,0.0610,0.1221,-0.0610,1,492,844,230
52126760,8385,-0.0278,-0.0195,1.0225,0.0610,0.0610,-0.1831,1,466,873,230
52131754,8386,-0.0288,-0.0190,1.0210,0.0610,0.0610,-0.1831,1,466,875,230
52136757,8387,-0.0269,-0.0181,1.0215,0.0610,0.1221,-0.3052,1,466,873,230
52141755,8388,-0.0273,-0.0176,1.0229,0.0000,0.0610,-0.1831,1,483,863,230
52146754,8389,-0.0288,-0.0176,1.0229,0.0610,0.0610,-0.1831,1,466,765,230
52151758,8390,-0.0298,-0.0190,1.0225,0.0610,0.0000,-0.1831,1,484,866,230
52156757,8391,-0.0298,-0.0205,1.0229,0.0610,0.0610,-0.1831,1,465,817,230
52161762,8392,-0.0303,-0.0215,1.0215,0.0000,0.0000,-0.1831,1,482,934,230
52166755,8393,-0.0308,-0.0205,1.0200,-0.0610,0.0000,-0.1831,1,478,778,230
52171759,8394,-0.0293,-0.0195,1.0205,0.0000,0.1831,0.0610,1,465,806,230
52176757,8395,-0.0283,-0.0186,1.0215,-0.0610,0.1831,-0.1221,1,465,810,230
52181761,8396,-0.0298,-0.0186,1.0225,-0.1831,0.1831,-0.2441,1,466,854,230
52186762,8397,-0.0303,-0.0190,1.0215,-0.0610,0.2441,-0.1221,1,507,859,230
52191762,8398,-0.0303,-0.0190,1.0205,0.0000,0.1221,-0.0610,1,483,850,230
52196759,8399,-0.0298,-0.0190,1.0200,0.0000,0.1831,-0.1221,1,494,763,230
52201759,8400,-0.0293,-0.0195,1.0205,0.0000,0.1831,-0.1831,1,484,797,230
52206762,8401,-0.0288,-0.0205,1.0215,0.0610,0.3052,-0.1221,1,471,804,230
52211756,8402,-0.0283,-0.0200,1.0210,0.0000,0.4883,-0.1221,1,480,839,230
52216756,8403,-0.0278,-0.0195,1.0200,0.1221,0.4272,-0.0610,1,483,795,230
52221762,8404,-0.0283,-0.0195,1.0205,0.1831,0.3052,-0.1831,1,492,844,230
52226754,8405,-0.0283,-0.0200,1.0210,0.0610,0.3662,-0.2441,1,469,850,230
52231759,8406,-0.0278,-0.0200,1.0220,0.0610,0.3052,-0.1221,1,493,846,230
52236763,8407,-0.0288,-0.0190,1.0225,0.0610,0.4272,-0.1221,1,466,866,230
52241765,8408,-0.0293,-0.0181,1.0210,0.1831,0.4883,-0.1831,1,466,874,230
52246756,8409,-0.0288,-0.0181,1.0210,0.0610,0.4272,-0.1831,1,466,871,230
52251759,8410,-0.0288,-0.0181,1.0215,0.1221,0.3052,-0.1831,1,483,873,230
52256755,8411,-0.0303,-0.0190,1.0210,-0.1221,0.4272,-0.1831,1,465,858,230
52261754,8412,-0.0308,-0.0195,1.0195,-0.0610,0.3662,-0.2441,1,484,814,230
52266754,8413,-0.0303,-0.0195,1.0181,0.0610,0.4272,-0.2441,1,478,905,230
52271757,8414,-0.0288,-0.0181,1.0190,0.1221,0.4883,-0.2441,1,483,861,230
52276754,8415,-0.0288,-0.0181,1.0205,0.1221,0.4883,-0.2441,1,481,871,230
52281754,8416,-0.0293,-0.0181,1.0220,0.1221,0.4272,-0.1831,1,467,870,230
52286759,8417,-0.0288,-0.0186,1.0225,0.0610,0.4272,-0.1831,1,471,852,230
52291754,8418,-0.0288,-0.0195,1.0225,0.0610,0.4272,-0.1831,1,465,857,230
52296760,8419,-0.0293,-0.0190,1.0215,0.0610,0.4272,-0.3662,1,484,859,230
52301756,8420,-0.0288,-0.0195,1.0210,0.0000,0.3662,-0.2441,1,511,855,230
52306754,8421,-0.0288,-0.0195,1.0210,0.0610,0.4272,-0.1831,1,471,804,230
52311755,8422,-0.0293,-0.0200,1.0220,0.0000,0.1831,-0.1831,1,483,859,230
52316757,8423,-0.0293,-0.0200,1.0225,0.0610,0.2441,-0.2441,1,480,802,230
52321762,8424,-0.0288,-0.0186,1.0215,0.0610,0.4272,-0.2441,1,485,845,230
52326757,8425,-0.0278,-0.0166,1.0220,0.1831,0.3662,-0.1221,1,487,848,230
52331762,8426,-0.0273,-0.0151,1.0239,0.0610,0.3662,-0.0610,1,477,850,230
52336758,8427,-0.0273,-0.0151,1.0244,-0.0610,0.4272,-0.1221,1,493,849,230
52341761,8428,-0.0273,-0.0176,1.0229,0.0610,0.3662,-0.2441,1,466,874,230
52346758,8429,-0.0269,-0.0186,1.0229,0.0610,0.3052,-0.1221,1,466,878,230
52351760,8430,-0.0273,-0.0181,1.0229,0.1221,0.1221,-0.1221,1,466,868,230
52356756,8431,-0.0293,-0.0181,1.0220,0.1221,0.3662,-0.1221,1,466,866,230
52361759,8432,-0.0303,-0.0195,1.0210,0.1221,0.3662,-0.1221,1,465,856,230
52366754,8433,-0.0298,-0.0205,1.0205,0.0610,0.3662,-0.1221,1,484,857,230
52371760,8434,-0.0288,-0.0200,1.0205,0.1221,0.3662,-0.0610,1,465,899,230
52376755,8435,-0.0288,-0.0195,1.0220,0.1221,0.2441,-0.1831,1,483,932,230
52381756,8436,-0.0288,-0.0186,1.0225,0.0000,0.3662,-0.2441,1,470,876,230
52386758,8437,-0.0293,-0.0176,1.0215,0.0610,0.3662,-0.1221,1,474,814,230
52391779,8438,-0.0303,-0.0176,1.0200,0.1221,0.1221,-0.1221,1,475,851,230
52396757,8439,-0.0317,-0.0181,1.0205,0.1831,0.1221,-0.1831,1,483,841,230
52401762,8440,-0.0317,-0.0190,1.0210,0.0610,0.2441,-0.1831,1,483,855,230
52406755,8441,-0.0303,-0.0210,1.0205,0.0000,0.1831,-0.0610,1,511,857,230
52411761,8442,-0.0303,-0.0220,1.0200,0.0610,0.0610,0.0000,1,468,795,230
52416754,8443,-0.0308,-0.0210,1.0190,0.0000,0.1221,-0.1831,1,492,792,230
52421758,8444,-0.0298,-0.0186,1.0195,-0.1221,0.1221,-0.1831,1,477,794,230
52426759,8445,-0.0283,-0.0171,1.0215,-0.0610,0.0000,-0.1221,1,486,845,230
52431762,8446,-0.0278,-0.0171,1.0225,-0.0610,0.0610,0.0000,1,492,794,230
52436762,8447,-0.0283,-0.0181,1.0225,-0.1221,0.1221,-0.2441,1,476,797,230
52441755,8448,-0.0293,-0.0190,1.0210,0.0000,0.0610,-0.1831,1,493,841,230
52446754,8449,-0.0298,-0.0195,1.0210,0.1221,-0.1831,-0.0610,1,465,825,230
52451759,8450,-0.0288,-0.0190,1.0220,0.0000,-0.0610,-0.1221,1,466,870,230
52456759,8451,-0.0283,-0.0181,1.0225,-0.1831,-0.1221,-0.1831,1,466,827,230
52461754,8452,-0.0273,-0.0181,1.0215,-0.1221,0.0000,-0.2441,1,483,875,230
52466760,8453,-0.0254,-0.0195,1.0220,0.0000,0.0610,-0.2441,1,468,816,230
52471754,8454,-0.0244,-0.0190,1.0225,0.0610,0.0610,-0.1831,1,484,856,230
52476754,8455,-0.0254,-0.0195,1.0210,0.0610,0.0610,-0.2441,1,482,900,230
52481755,8456,-0.0273,-0.0200,1.0210,0.0000,0.0000,-0.3052,1,467,861,230
52486760,8457,-0.0283,-0.0195,1.0215,0.1221,0.0610,-0.3052,1,471,757,230
52491760,8458,-0.0293,-0.0181,1.0220,0.1221,0.0000,-0.2441,1,469,868,230
52496760,8459,-0.0293,-0.0186,1.0220,0.1221,-0.0610,-0.1221,1,476,805,230
52501761,8460,-0.0293,-0.0190,1.0225,-0.0610,0.0000,-0.1221,1,498,847,230
52506758,8461,-0.0298,-0.0190,1.0229,-0.0610,0.0000,-0.1831,1,483,730,230
52511757,8462,-0.0308,-0.0190,1.0225,0.0000,0.0610,-0.1221,1,494,741,230
52516762,8463,-0.0312,-0.0190,1.0215,0.0000,0.1221,-0.1831,1,478,792,230
52521761,8464,-0.0317,-0.0181,1.0205,-0.0610,0.0610,-0.1831,1,491,824,230
52526755,8465,-0.0308,-0.0171,1.0205,0.0000,0.1221,-0.1221,1,478,845,230
52531757,8466,-0.0293,-0.0181,1.0210,0.0610,0.1831,-0.1221,1,491,790,230
52536760,8467,-0.0288,-0.0190,1.0205,0.1221,0.2441,-0.2441,1,477,838,230
52541763,8468,-0.0303,-0.0190,1.0195,0.0610,0.3052,-0.2441,1,481,849,230
52546759,8469,-0.0308,-0.0186,1.0190,0.0610,0.3662,-0.3052,1,492,842,230
52551754,8470,-0.0308,-0.0181,1.0195,0.1831,0.3052,-0.3052,1,493,838,230
52556761,8471,-0.0312,-0.0181,1.0210,0.2441,0.1831,-0.1831,1,466,865,230
52561755,8472,-0.0308,-0.0181,1.0220,0.1221,0.1831,-0.1221,1,466,901,230
52566755,8473,-0.0298,-0.0195,1.0215,0.1221,0.2441,-0.2441,1,483,865,230
52571756,8474,-0.0288,-0.0205,1.0205,0.1221,0.3052,-0.1831,1,465,865,230
52576761,8475,-0.0278,-0.0205,1.0200,0.0610,0.2441,-0.0610,1,484,814,230
52581761,8476,-0.0269,-0.0195,1.0210,0.0610,0.3662,-0.2441,1,465,900,230
52586760,8477,-0.0273,-0.0181,1.0225,0.1221,0.3662,-0.2441,1,470,865,230
52591757,8478,-0.0283,-0.0181,1.0234,0.1831,0.2441,-0.1831,1,476,871,230
52596757,8479,-0.0298,-0.0190,1.0239,0.1221,0.1831,-0.2441,1,465,835,230
52601755,8480,-0.0308,-0.0195,1.0234,0.0000,0.2441,-0.1831,1,472,859,230
52606754,8481,-0.0308,-0.0190,1.0229,0.1221,0.3052,-0.2441,1,502,812,230
52611757,8482,-0.0308,-0.0195,1.0220,0.1221,0.3052,-0.1831,1,485,850,230
52616755,8483,-0.0303,-0.0215,1.0215,0.0000,0.4272,-0.3052,1,494,866,230
52621763,8484,-0.0288,-0.0210,1.0215,0.0610,0.4272,-0.2441,1,464,794,230
52626759,8485,-0.0278,-0.0195,1.0220,0.0000,0.3662,-0.2441,1,485,858,230
52631755,8486,-0.0283,-0.0186,1.0229,0.0610,0.4883,-0.1831,1,478,827,230
52636763,8487,-0.0288,-0.0186,1.0234,0.0000,0.4883,-0.1221,1,490,869,230
52641755,8488,-0.0288,-0.0195,1.0225,0.0610,0.4883,-0.2441,1,473,800,230
52646754,8489,-0.0283,-0.0210,1.0215,0.1831,0.4883,-0.1831,1,488,848,230
52651754,8490,-0.0283,-0.0210,1.0215,0.1831,0.5493,-0.2441,1,493,847,230
52656762,8491,-0.0283,-0.0210,1.0220,0.1221,0.4272,-0.2441,1,466,880,230
52661754,8492,-0.0288,-0.0205,1.0215,0.0000,0.3052,-0.3052,1,466,875,230
52666761,8493,-0.0288,-0.0200,1.0205,0.0610,0.2441,-0.1831,1,483,824,230
52671763,8494,-0.0288,-0.0190,1.0205,0.0610,0.2441,-0.1221,1,465,877,230
52676761,8495,-0.0288,-0.0186,1.0195,0.0610,0.2441,-0.1831,1,484,864,230
52681757,8496,-0.0283,-0.0186,1.0186,0.1221,0.3662,-0.2441,1,465,908,230
52686763,8497,-0.0264,-0.0176,1.0200,0.1221,0.3052,-0.3052,1,470,867,230
52691762,8498,-0.0259,-0.0166,1.0225,0.0610,0.1831,-0.2441,1,469,861,230
52696762,8499,-0.0273,-0.0166,1.0239,-0.1221,0.2441,-0.1221,1,474,876,230
52701760,8500,-0.0283,-0.0186,1.0234,0.0000,0.3052,-0.0610,1,483,858,230
52706759,8501,-0.0293,-0.0195,1.0225,0.1831,0.3052,-0.2441,1,465,807,230
52711761,8502,-0.0298,-0.0205,1.0210,0.1221,0.3052,-0.2441,1,484,856,230
52716759,8503,-0.0298,-0.0210,1.0215,0.1221,0.2441,-0.1831,1,494,849,230
52721760,8504,-0.0293,-0.0215,1.0225,0.1221,0.2441,-0.3662,1,466,797,230
52726761,8505,-0.0283,-0.0205,1.0215,0.1221,0.1831,-0.3662,1,474,847,230
52731759,8506,-0.0288,-0.0186,1.0195,0.0610,0.2441,-0.3662,1,482,849,230
52736758,8507,-0.0293,-0.0181,1.0195,0.1221,0.1221,-0.2441,1,472,871,230
52741754,8508,-0.0283,-0.0190,1.0215,0.1221,0.2441,-0.1831,1,484,841,230
52746754,8509,-0.0278,-0.0205,1.0220,0.1831,0.1831,-0.2441,1,471,849,230
52751762,8510,-0.0283,-0.0200,1.0215,0.2441,0.0000,-0.2441,1,493,853,230
52756755,8511,-0.0293,-0.0190,1.0205,0.1831,0.0610,-0.2441,1,494,804,230
52761755,8512,-0.0293,-0.0190,1.0210,0.1221,-0.0610,-0.3052,1,465,876,230
52766755,8513,-0.0303,-0.0195,1.0220,0.1221,0.0610,-0.2441,1,466,865,230
52771756,8514,-0.0308,-0.0195,1.0220,0.1221,-0.0610,-0.1221,1,483,871,230
52776754,8515,-0.0298,-0.0181,1.0205,0.0000,-0.1221,-0.1221,1,466,854,230
52781758,8516,-0.0288,-0.0176,1.0200,0.0610,-0.0610,-0.2441,1,484,848,230
52786756,8517,-0.0283,-0.0176,1.0210,0.1221,-0.1221,-0.1221,1,465,901,230
52791760,8518,-0.0288,-0.0171,1.0225,0.1831,-0.1221,-0.1221,1,470,856,230
52796757,8519,-0.0283,-0.0171,1.0234,0.0610,0.1221,-0.1831,1,469,869,230
52801760,8520,-0.0283,-0.0181,1.0225,0.0610,0.0000,-0.2441,1,476,871,230
52806754,8521,-0.0293,-0.0190,1.0215,0.0000,0.0000,-0.3052,1,478,809,230
52811756,8522,-0.0308,-0.0200,1.0210,0.0000,-0.0610,-0.3052,1,482,758,230
52816760,8523,-0.0308,-0.0195,1.0210,0.0610,0.0000,-0.1221,1,484,798,230
52821758,8524,-0.0293,-0.0190,1.0215,-0.0610,0.0000,-0.2441,1,465,745,230
52826762,8525,-0.0269,-0.0195,1.0210,-0.0610,0.0610,-0.2441,1,494,771,230
52831761,8526,-0.0259,-0.0190,1.0205,-0.0610,0.0610,-0.2441,1,484,854,230
52836760,8527,-0.0269,-0.0181,1.0200,0.0000,0.1221,-0.2441,1,490,844,230
52841763,8528,-0.0273,-0.0181,1.0205,0.0000,0.1221,-0.1831,1,483,795,230
52846760,8529,-0.0278,-0.0195,1.0205,-0.0610,0.0000,-0.0610,1,490,797,230
52851760,8530,-0.0288,-0.0200,1.0215,-0.0610,0.2441,-0.1221,1,483,799,230
52856754,8531,-0.0293,-0.0200,1.0229,-0.0610,0.1221,-0.1831,1,481,844,230
52861759,8532,-0.0298,-0.0200,1.0225,-0.0610,0.0000,-0.1831,1,466,843,230
52866761,8533,-0.0298,-0.0205,1.0220,-0.1221,0.0610,-0.1831,1,466,825,230
52871761,8534,-0.0293,-0.0205,1.0210,-0.2441,0.1221,-0.2441,1,466,871,230
52876761,8535,-0.0293,-0.0190,1.0210,0.0000,0.1831,-0.3052,1,484,874,230
52881763,8536,-0.0298,-0.0186,1.0210,0.0610,0.0610,-0.1831,1,469,767,230
52886756,8537,-0.0303,-0.0181,1.0210,0.0610,0.0610,-0.1831,1,484,812,230
52891759,8538,-0.0293,-0.0186,1.0205,0.1831,0.1221,-0.1831,1,470,934,230
52896761,8539,-0.0278,-0.0195,1.0200,0.1221,0.2441,-0.1831,1,475,864,230
52901761,8540,-0.0283,-0.0195,1.0215,0.0000,0.2441,-0.3052,1,481,868,230
52906773,8541,-0.0293,-0.0190,1.0229,0.1831,0.1221,-0.1221,1,467,810,230
52911759,8542,-0.0308,-0.0195,1.0229,0.2441,0.1221,-0.1831,1,483,853,230
52916758,8543,-0.0308,-0.0205,1.0234,0.1831,0.1221,-0.1831,1,498,857,230
52921759,8544,-0.0298,-0.0210,1.0229,0.1221,0.1221,-0.1221,1,511,855,230
52926763,8545,-0.0278,-0.0210,1.0220,0.0610,0.1831,-0.2441,1,494,788,230
52931754,8546,-0.0273,-0.0195,1.0215,0.0610,0.2441,-0.3052,1,483,856,230
52936755,8547,-0.0273,-0.0181,1.0220,0.1221,0.4272,-0.2441,1,481,846,230
52941762,8548,-0.0283,-0.0176,1.0220,0.0610,0.3052,-0.1831,1,492,844,230
52946759,8549,-0.0288,-0.0181,1.0215,0.0610,0.3052,-0.1831,1,477,843,230
52951755,8550,-0.0288,-0.0186,1.0210,0.0610,0.3662,-0.2441,1,492,841,230
52956754,8551,-0.0283,-0.0195,1.0210,0.1221,0.3662,-0.3052,1,493,847,230
52961761,8552,-0.0273,-0.0200,1.0210,0.1221,0.1831,-0.4272,1,465,870,230
52966780,8553,-0.0273,-0.0195,1.0220,0.0000,0.3662,-0.2441,1,466,871,230
52971755,8554,-0.0288,-0.0190,1.0210,0.0000,0.3662,-0.1831,1,466,835,230
52976761,8555,-0.0293,-0.0195,1.0200,0.0610,0.3052,-0.3052,1,465,822,230
52981757,8556,-0.0283,-0.0195,1.0210,0.0000,0.3662,-0.2441,1,482,854,230
52986761,8557,-0.0278,-0.0186,1.0215,0.0000,0.4272,-0.2441,1,465,898,230
52991759,8558,-0.0283,-0.0186,1.0215,0.0000,0.4883,-0.3052,1,475,823,230
52996763,8559,-0.0298,-0.0190,1.0225,0.1221,0.3662,-0.3052,1,482,815,230
53001763,8560,-0.0298,-0.0186,1.0234,0.0610,0.3662,-0.2441,1,482,860,230
53006774,8561,-0.0273,-0.0186,1.0244,0.0610,0.4272,-0.3052,1,465,859,230
53011755,8562,-0.0283,-0.0195,1.0220,0.0000,0.2441,-0.1221,1,480,854,230
53016760,8563,-0.0303,-0.0190,1.0200,0.0000,0.1831,-0.2441,1,499,811,230
53021762,8564,-0.0317,-0.0190,1.0195,0.0610,0.2441,-0.3052,1,498,810,230
53026758,8565,-0.0312,-0.0195,1.0200,0.1221,0.1221,-0.1831,1,494,873,230
53031758,8566,-0.0288,-0.0195,1.0210,0.1221,0.1831,-0.1221,1,471,820,230
53036759,8567,-0.0269,-0.0190,1.0225,0.1221,0.1831,-0.2441,1,483,843,230
53041761,8568,-0.0264,-0.0190,1.0234,0.0610,0.1831,-0.1831,1,492,845,230
53046759,8569,-0.0264,-0.0190,1.0244,0.0610,0.2441,-0.3052,1,478,850,230
53051759,8570,-0.0269,-0.0186,1.0244,0.0610,0.2441,-0.1831,1,491,844,230
53056759,8571,-0.0283,-0.0181,1.0229,0.0610,0.1831,-0.1221,1,489,849,230
53061759,8572,-0.0303,-0.0190,1.0220,0.1221,0.2441,-0.1831,1,492,845,230
53066757,8573,-0.0308,-0.0190,1.0220,0.1221,0.1831,-0.2441,1,466,873,230
53071757,8574,-0.0308,-0.0195,1.0229,0.1221,0.1221,-0.2441,1,466,874,230
53076761,8575,-0.0293,-0.0200,1.0229,0.1221,0.3052,-0.2441,1,483,871,230
53081759,8576,-0.0278,-0.0190,1.0220,0.1221,0.3662,-0.1831,1,465,861,230
53086761,8577,-0.0269,-0.0186,1.0220,0.0000,0.2441,-0.0610,1,484,867,230
53091760,8578,-0.0259,-0.0186,1.0225,0.1221,0.3052,-0.1831,1,465,817,230
53096756,8579,-0.0269,-0.0186,1.0225,0.1221,0.2441,-0.3662,1,474,859,230
53101761,8580,-0.0288,-0.0186,1.0225,-0.0610,0.2441,-0.3052,1,480,871,230
53106755,8581,-0.0303,-0.0195,1.0234,-0.0610,0.4272,-0.1831,1,482,871,230
53111757,8582,-0.0303,-0.0210,1.0234,-0.1221,0.3662,-0.1831,1,470,859,230
53116755,8583,-0.0298,-0.0205,1.0220,0.0610,0.3052,-0.1831,1,468,855,230
53121755,8584,-0.0288,-0.0190,1.0186,0.0000,0.3662,-0.2441,1,483,851,230
53126761,8585,-0.0288,-0.0181,1.0171,0.0000,0.4272,-0.3662,1,478,759,230
53131757,8586,-0.0283,-0.0186,1.0186,0.1221,0.2441,-0.1831,1,492,772,230
53136754,8587,-0.0288,-0.0190,1.0210,0.0000,0.3052,-0.2441,1,476,847,230
53141762,8588,-0.0298,-0.0195,1.0210,0.0000,0.3052,-0.2441,1,488,799,230
53146759,8589,-0.0303,-0.0205,1.0195,0.0000,0.3052,-0.2441,1,492,798,230
53151761,8590,-0.0293,-0.0195,1.0200,0.0610,0.3052,-0.2441,1,483,798,230
53156762,8591,-0.0288,-0.0190,1.0210,0.0000,0.3052,-0.1831,1,479,842,230
53161756,8592,-0.0293,-0.0200,1.0215,0.1221,0.2441,-0.2441,1,486,799,230
53166756,8593,-0.0288,-0.0200,1.0220,0.1221,0.1221,-0.1831,1,466,844,230
53171768,8594,-0.0288,-0.0195,1.0220,0.0000,0.1221,-0.1221,1,466,870,230
53176761,8595,-0.0293,-0.0195,1.0200,0.0000,0.1831,-0.1831,1,466,826,230
53181762,8596,-0.0303,-0.0200,1.0200,0.0000,0.1831,-0.2441,1,483,831,230
53186757,8597,-0.0293,-0.0200,1.0220,0.1221,0.1831,-0.2441,1,469,816,230
53191754,8598,-0.0278,-0.0195,1.0225,0.0610,0.1221,-0.2441,1,465,871,230
53196762,8599,-0.0269,-0.0195,1.0229,0.0610,0.1831,-0.1831,1,471,932,230
53201758,8600,-0.0264,-0.0200,1.0249,0.1221,0.1831,-0.1831,1,467,869,230
53206757,8601,-0.0264,-0.0190,1.0244,-0.0610,0.2441,-0.2441,1,477,866,230
53211764,8602,-0.0273,-0.0181,1.0229,0.0610,0.3052,-0.3052,1,482,833,230
53216754,8603,-0.0278,-0.0195,1.0215,0.0610,0.1831,-0.1831,1,483,847,230
53221762,8604,-0.0278,-0.0205,1.0210,0.1221,0.1221,-0.1831,1,494,860,230
53226755,8605,-0.0273,-0.0205,1.0215,-0.0610,0.1221,-0.1831,1,465,851,230
53231755,8606,-0.0269,-0.0200,1.0220,-0.0610,0.2441,-0.2441,1,494,871,230
53236763,8607,-0.0269,-0.0181,1.0225,0.0000,0.1221,-0.2441,1,471,855,230
53241754,8608,-0.0269,-0.0166,1.0225,0.0610,0.3052,-0.1221,1,474,796,230
53246754,8609,-0.0273,-0.0171,1.0229,0.1831,0.1831,-0.1831,1,490,839,230
53251758,8610,-0.0283,-0.0186,1.0234,0.2441,0.1831,-0.3052,1,478,852,230
53256762,8611,-0.0293,-0.0200,1.0225,0.1221,0.0610,-0.2441,1,482,849,230
53261756,8612,-0.0303,-0.0200,1.0220,0.1831,0.0610,-0.1831,1,474,841,230
53266762,8613,-0.0308,-0.0200,1.0215,0.1221,0.1221,-0.2441,1,492,843,230
53271754,8614,-0.0303,-0.0205,1.0200,0.0610,0.0610,-0.1831,1,466,865,230
53276776,8615,-0.0298,-0.0205,1.0190,0.1221,0.0610,-0.1221,1,466,869,230
53281759,8616,-0.0303,-0.0200,1.0190,0.1221,0.0000,-0.1831,1,466,867,230
53286756,8617,-0.0298,-0.0200,1.0205,0.1221,0.0610,-0.1221,1,465,813,230
53291760,8618,-0.0293,-0.0205,1.0210,0.1831,0.2441,-0.1831,1,484,855,230
53296755,8619,-0.0288,-0.0200,1.0215,0.1221,0.1831,-0.3052,1,465,876,230
53301755,8620,-0.0288,-0.0186,1.0215,0.0610,0.1831,-0.1831,1,478,932,230
53306756,8621,-0.0293,-0.0186,1.0205,0.1221,0.1831,-0.1831,1,481,867,230
53311754,8622,-0.0298,-0.0200,1.0210,0.0610,0.1221,-0.1831,1,466,872,230
53316767,8623,-0.0298,-0.0200,1.0234,0.1221,0.1221,-0.2441,1,471,849,230
53321756,8624,-0.0298,-0.0190,1.0244,0.1831,0.1831,-0.1831,1,483,852,230
53326762,8625,-0.0303,-0.0186,1.0229,0.1221,0.0610,-0.1221,1,471,862,230
53331754,8626,-0.0293,-0.0186,1.0225,0.0000,0.1831,-0.1221,1,466,863,230
53336757,8627,-0.0273,-0.0181,1.0229,0.0000,0.0610,-0.1831,1,494,759,230
53341761,8628,-0.0264,-0.0176,1.0229,0.0610,0.0610,-0.3052,1,483,800,230
53346760,8629,-0.0269,-0.0181,1.0205,0.0000,0.1831,-0.2441,1,492,839,230
53351755,8630,-0.0278,-0.0190,1.0195,-0.0610,0.1221,-0.3052,1,481,821,230
53356762,8631,-0.0293,-0.0200,1.0210,0.1221,0.0610,-0.2441,1,473,843,230
53361759,8632,-0.0303,-0.0200,1.0234,0.0610,0.3662,-0.2441,1,490,839,230
53366757,8633,-0.0293,-0.0190,1.0239,-0.0610,0.2441,-0.2441,1,475,845,230
53371759,8634,-0.0288,-0.0186,1.0225,0.0610,0.2441,-0.1831,1,493,851,230
53376760,8635,-0.0293,-0.0190,1.0215,0.0000,0.2441,-0.1831,1,466,877,230
53381757,8636,-0.0288,-0.0186,1.0210,0.0610,0.3662,-0.2441,1,466,831,230
53386757,8637,-0.0278,-0.0181,1.0215,0.0610,0.1221,-0.1831,1,483,875,230
53391759,8638,-0.0264,-0.0181,1.0210,0.0610,0.0610,-0.1831,1,465,860,230
53396754,8639,-0.0254,-0.0186,1.0210,0.0000,0.1831,-0.2441,1,484,810,230
53401760,8640,-0.0264,-0.0195,1.0220,0.0000,0.1221,-0.2441,1,467,818,230
53406760,8641,-0.0283,-0.0200,1.0220,0.0610,0.1831,-0.3052,1,469,825,230
53411760,8642,-0.0298,-0.0200,1.0205,0.1831,0.0610,-0.1221,1,473,868,230
53416762,8643,-0.0298,-0.0200,1.0200,0.1221,0.1221,-0.1221,1,473,824,230
53421787,8644,-0.0293,-0.0210,1.0225,0.0610,0.0610,-0.3662,1,478,844,230
53426760,8645,-0.0293,-0.0220,1.0234,0.1221,0.1221,-0.1831,1,479,850,230
53431762,8646,-0.0293,-0.0210,1.0234,0.1221,0.1221,-0.0610,1,504,854,230
53436759,8647,-0.0288,-0.0181,1.0225,0.1221,0.1831,-0.2441,1,465,865,230
53441756,8648,-0.0283,-0.0181,1.0220,0.1221,0.1831,-0.3052,1,494,797,230
53446759,8649,-0.0283,-0.0190,1.0220,0.0610,0.1221,-0.1221,1,489,850,230
53451757,8650,-0.0288,-0.0195,1.0215,0.0610,0.1831,-0.1831,1,474,840,230
53456760,8651,-0.0278,-0.0200,1.0205,0.0610,0.3662,-0.3052,1,488,850,230
53461763,8652,-0.0273,-0.0200,1.0210,0.1221,0.1221,-0.3052,1,486,864,230
53466760,8653,-0.0278,-0.0200,1.0215,0.1221,0.1831,-0.1831,1,492,834,230
53471758,8654,-0.0278,-0.0200,1.0195,0.0000,0.3052,-0.2441,1,479,848,230
53476757,8655,-0.0288,-0.0195,1.0186,0.1221,0.3052,-0.3052,1,493,801,230
53481766,8656,-0.0293,-0.0195,1.0190,0.1831,0.3662,-0.3052,1,466,866,230
53486763,8657,-0.0288,-0.0195,1.0210,0.0610,0.3662,-0.3052,1,465,877,230
53491763,8658,-0.0283,-0.0186,1.0225,0.0000,0.2441,-0.2441,1,483,872,230
53496761,8659,-0.0293,-0.0176,1.0220,0.0610,0.2441,-0.3052,1,469,768,230
53501756,8660,-0.0293,-0.0176,1.0205,0.0610,0.3662,-0.2441,1,465,869,230
53506762,8661,-0.0278,-0.0181,1.0205,0.1221,0.3662,-0.1831,1,470,933,230
53511759,8662,-0.0269,-0.0195,1.0205,0.0610,0.1831,-0.1221,1,470,865,230
53516761,8663,-0.0283,-0.0210,1.0210,0.0000,0.2441,-0.1831,1,479,862,230
53521768,8664,-0.0293,-0.0215,1.0220,-0.0610,0.3052,-0.2441,1,482,812,230
53526755,8665,-0.0288,-0.0215,1.0234,0.0610,0.2441,-0.1831,1,482,851,230
53531754,8666,-0.0278,-0.0210,1.0234,0.0610,0.2441,-0.2441,1,468,860,230
53536761,8667,-0.0273,-0.0195,1.0225,0.0610,0.3052,-0.1831,1,465,877,230
53541754,8668,-0.0283,-0.0181,1.0210,0.0610,0.3662,-0.1831,1,494,874,230
53546759,8669,-0.0293,-0.0171,1.0210,0.0610,0.3052,-0.2441,1,477,854,230
53551756,8670,-0.0298,-0.0171,1.0220,0.0610,0.1831,-0.3052,1,485,837,230
53556754,8671,-0.0293,-0.0181,1.0220,-0.0610,0.3052,-0.1831,1,479,839,230
53561754,8672,-0.0278,-0.0195,1.0215,0.0610,0.3052,-0.1831,1,485,866,230
53566754,8673,-0.0278,-0.0210,1.0215,0.1221,0.4272,-0.2441,1,471,845,230
53571760,8674,-0.0288,-0.0210,1.0210,0.1221,0.2441,-0.1831,1,479,846,230
53576760,8675,-0.0298,-0.0190,1.0205,0.1221,0.0610,-0.2441,1,493,845,230
53581765,8676,-0.0298,-0.0176,1.0210,0.1221,0.1831,-0.2441,1,466,872,230
53586758,8677,-0.0283,-0.0176,1.0220,0.0610,0.1831,-0.2441,1,466,873,230
53591754,8678,-0.0273,-0.0176,1.0229,0.0000,0.3662,-0.2441,1,483,878,230
53596754,8679,-0.0273,-0.0190,1.0229,0.0610,0.3052,-0.1221,1,478,825,230
53601760,8680,-0.0283,-0.0215,1.0210,0.1221,0.3662,-0.2441,1,465,896,230
53606759,8681,-0.0283,-0.0234,1.0200,0.0610,0.1831,-0.3052,1,469,933,230
53611762,8682,-0.0273,-0.0225,1.0210,0.1221,0.1831,-0.3052,1,473,862,230
53616754,8683,-0.0269,-0.0210,1.0215,0.0610,0.2441,-0.2441,1,477,859,230
53621757,8684,-0.0269,-0.0210,1.0215,0.0000,0.3052,-0.3052,1,469,854,230
53626784,8685,-0.0273,-0.0205,1.0225,0.0610,0.2441,-0.1831,1,469,800,230
53631755,8686,-0.0278,-0.0205,1.0229,0.1221,0.1831,-0.1831,1,465,858,230
53636761,8687,-0.0283,-0.0205,1.0210,0.0610,0.2441,-0.3052,1,466,877,230
53641756,8688,-0.0283,-0.0195,1.0200,0.0610,0.1831,-0.3052,1,492,869,230
53646758,8689,-0.0273,-0.0190,1.0215,-0.0610,0.1221,-0.3052,1,464,854,230
53651757,8690,-0.0278,-0.0190,1.0229,0.0610,0.1221,-0.3052,1,477,838,230
53656762,8691,-0.0288,-0.0190,1.0229,0.0610,0.2441,-0.3662,1,488,843,230
53661757,8692,-0.0293,-0.0190,1.0220,0.0000,0.1831,-0.3662,1,488,851,230
53666756,8693,-0.0293,-0.0190,1.0215,0.0610,0.1831,-0.1831,1,480,802,230
53671755,8694,-0.0288,-0.0186,1.0215,0.0610,0.3052,-0.1831,1,490,847,230
53676763,8695,-0.0283,-0.0186,1.0225,0.0610,0.2441,-0.1831,1,493,843,230
53681759,8696,-0.0278,-0.0186,1.0220,0.0610,0.2441,-0.2441,1,466,876,230
53686762,8697,-0.0288,-0.0195,1.0215,0.1221,0.1831,-0.1831,1,466,877,230
53691759,8698,-0.0293,-0.0195,1.0215,0.0610,0.2441,-0.1831,1,466,878,230
53696754,8699,-0.0283,-0.0186,1.0210,0.0000,0.3052,-0.2441,1,465,876,230
53701759,8700,-0.0278,-0.0176,1.0205,0.0000,0.1221,-0.1831,1,484,824,230
53706754,8701,-0.0283,-0.0176,1.0210,0.0610,0.2441,-0.1221,1,465,898,230
53711762,8702,-0.0293,-0.0181,1.0215,-0.0610,0.3052,-0.1831,1,466,861,230
53716762,8703,-0.0298,-0.0195,1.0225,0.0000,0.1831,-0.1831,1,482,859,230
53721755,8704,-0.0293,-0.0200,1.0229,0.0000,0.3662,-0.2441,1,467,814,230
53726754,8705,-0.0278,-0.0200,1.0220,0.1221,0.1831,-0.1831,1,477,814,230
53731760,8706,-0.0273,-0.0186,1.0210,0.1831,0.0610,-0.0610,1,481,857,230
53736755,8707,-0.0273,-0.0176,1.0210,0.0610,0.1831,-0.1831,1,468,853,230
53741756,8708,-0.0273,-0.0176,1.0225,0.1221,0.2441,-0.1831,1,466,873,230
53746762,8709,-0.0269,-0.0181,1.0234,0.0610,0.1221,-0.2441,1,494,874,230
53751761,8710,-0.0273,-0.0181,1.0225,0.0610,0.2441,-0.1831,1,464,852,230
53756755,8711,-0.0278,-0.0181,1.0200,0.1831,0.2441,-0.1831,1,473,856,230
53761758,8712,-0.0283,-0.0190,1.0195,0.0610,0.1831,-0.1221,1,490,849,230
53766756,8713,-0.0288,-0.0190,1.0205,0.1831,0.1221,-0.1831,1,486,847,230
53771761,8714,-0.0288,-0.0200,1.0215,0.1221,0.1221,-0.2441,1,474,848,230
53776756,8715,-0.0283,-0.0205,1.0225,0.0000,0.1221,-0.2441,1,478,843,230
53781757,8716,-0.0278,-0.0200,1.0239,0.0610,0.1831,-0.2441,1,492,801,230
53786759,8717,-0.0283,-0.0190,1.0239,0.0610,0.0610,-0.2441,1,466,878,230
53791775,8718,-0.0288,-0.0190,1.0229,0.0000,0.1221,-0.3052,1,466,877,230
53796758,8719,-0.0283,-0.0186,1.0210,0.1831,0.1831,-0.2441,1,466,827,230
53801762,8720,-0.0278,-0.0181,1.0195,0.1831,0.2441,-0.2441,1,465,880,230
53806759,8721,-0.0278,-0.0181,1.0205,0.0610,0.3052,-0.3052,1,478,871,230
53811762,8722,-0.0293,-0.0176,1.0220,0.1221,0.3662,-0.1831,1,465,892,230
53816759,8723,-0.0298,-0.0190,1.0220,0.0610,0.2441,-0.2441,1,471,932,230
53821761,8724,-0.0293,-0.0210,1.0215,0.0610,0.2441,-0.3052,1,477,866,230
53826757,8725,-0.0288,-0.0210,1.0220,0.0610,0.3052,-0.3052,1,479,858,230
53831763,8726,-0.0278,-0.0195,1.0225,0.1221,0.1831,-0.2441,1,466,846,230
53836781,8727,-0.0278,-0.0176,1.0225,0.1221,0.2441,-0.2441,1,465,860,230
53841758,8728,-0.0273,-0.0166,1.0234,0.0610,0.2441,-0.2441,1,467,857,230
53846760,8729,-0.0264,-0.0171,1.0229,0.1221,0.3052,-0.3052,1,466,863,230
53851760,8730,-0.0259,-0.0186,1.0225,0.1221,0.3662,-0.3052,1,494,862,230
53856762,8731,-0.0269,-0.0186,1.0215,0.1221,0.1221,-0.3052,1,464,793,230
53861759,8732,-0.0283,-0.0186,1.0205,0.1221,0.2441,-0.1831,1,492,847,230
53866757,8733,-0.0293,-0.0190,1.0215,0.1221,0.3052,-0.2441,1,473,848,230
53871759,8734,-0.0298,-0.0190,1.0220,0.1221,0.3052,-0.2441,1,483,840,230
53876758,8735,-0.0293,-0.0190,1.0210,0.0610,0.1831,-0.0610,1,488,841,230
53881762,8736,-0.0293,-0.0190,1.0220,-0.0610,0.1831,-0.1831,1,477,841,230
53886756,8737,-0.0298,-0.0190,1.0239,0.1221,0.3052,-0.3052,1,493,847,230
53891759,8738,-0.0293,-0.0176,1.0200,0.0610,0.3662,-0.1221,1,466,866,230
53896770,8739,-0.0303,-0.0176,1.0200,0.0000,0.3662,-0.1221,1,466,868,230
53901759,8740,-0.0312,-0.0200,1.0220,0.1221,0.4272,-0.2441,1,466,823,230
53906756,8741,-0.0308,-0.0215,1.0225,0.1831,0.3662,-0.2441,1,483,898,230
53911755,8742,-0.0303,-0.0200,1.0229,0.0610,0.3052,-0.3052,1,479,864,230
53916762,8743,-0.0298,-0.0190,1.0229,0.0000,0.3662,-0.1831,1,465,891,230
53921755,8744,-0.0288,-0.0195,1.0215,0.0000,0.3662,-0.1831,1,483,823,230
53926754,8745,-0.0278,-0.0195,1.0205,0.0610,0.3052,-0.2441,1,472,824,230
53931762,8746,-0.0273,-0.0195,1.0220,0.0000,0.3052,-0.2441,1,478,864,230
53936762,8747,-0.0278,-0.0195,1.0234,0.0000,0.4272,-0.1831,1,470,811,230
53941775,8748,-0.0278,-0.0190,1.0225,0.0610,0.4272,-0.2441,1,474,818,230
53946757,8749,-0.0283,-0.0190,1.0220,-0.0610,0.3662,-0.1831,1,482,860,230
53951757,8750,-0.0293,-0.0200,1.0215,0.0610,0.3052,-0.1831,1,511,861,230
53956763,8751,-0.0293,-0.0200,1.0215,0.1221,0.1831,-0.1831,1,486,866,230
53961755,8752,-0.0288,-0.0195,1.0215,0.1221,0.2441,-0.2441,1,464,797,230
53966763,8753,-0.0288,-0.0200,1.0220,0.0000,0.1831,-0.2441,1,476,832,230
53971755,8754,-0.0288,-0.0205,1.0229,0.0000,0.2441,-0.1831,1,480,803,230
53976756,8755,-0.0288,-0.0190,1.0220,0.0000,0.3662,-0.2441,1,474,808,230
53981761,8756,-0.0283,-0.0176,1.0205,0.1221,0.2441,-0.1831,1,482,806,230
53986756,8757,-0.0278,-0.0181,1.0205,0.0610,0.1831,-0.3052,1,485,849,230
53991761,8758,-0.0283,-0.0186,1.0225,0.0610,0.2441,-0.2441,1,489,842,230
53996761,8759,-0.0288,-0.0190,1.0244,0.1221,0.1831,-0.2441,1,492,849,230
54001764,8760,-0.0293,-0.0190,1.0239,0.1831,0.1221,-0.3662,1,466,879,230
54006756,8761,-0.0288,-0.0190,1.0229,0.1221,0.3052,-0.2441,1,466,877,230
54011759,8762,-0.0293,-0.0200,1.0215,0.0610,0.2441,-0.2441,1,483,876,230
54016756,8763,-0.0303,-0.0205,1.0190,0.1221,0.1221,-0.1831,1,466,863,230
54021758,8764,-0.0298,-0.0210,1.0190,0.1831,0.0610,-0.1831,1,484,803,230
54026755,8765,-0.0293,-0.0205,1.0215,0.0610,0.1221,-0.3052,1,476,901,230
54031755,8766,-0.0283,-0.0195,1.0220,0.1831,0.0610,-0.1831,1,483,855,230
54036755,8767,-0.0283,-0.0186,1.0200,0.0610,0.2441,-0.1831,1,465,869,230
54041761,8768,-0.0283,-0.0181,1.0190,0.1221,0.1831,-0.3052,1,468,874,230
54046776,8769,-0.0278,-0.0186,1.0190,0.0610,0.2441,-0.2441,1,471,851,230
54051754,8770,-0.0278,-0.0190,1.0200,0.0000,0.1221,-0.1221,1,480,860,230
54056754,8771,-0.0278,-0.0195,1.0215,-0.0610,0.1221,-0.2441,1,511,804,230
54061759,8772,-0.0278,-0.0190,1.0220,0.0000,0.3052,-0.2441,1,492,873,230
54066762,8773,-0.0283,-0.0190,1.0225,0.0610,0.2441,-0.2441,1,494,753,230
54071758,8774,-0.0283,-0.0195,1.0220,0.1221,0.1831,-0.1221,1,478,872,230
54076754,8775,-0.0288,-0.0195,1.0210,0.0610,0.2441,-0.1831,1,490,845,230
54081762,8776,-0.0293,-0.0186,1.0225,0.0000,0.2441,-0.2441,1,485,850,230
54086755,8777,-0.0278,-0.0186,1.0244,-0.0610,0.1221,-0.2441,1,488,803,230
54091762,8778,-0.0269,-0.0186,1.0234,0.0000,0.1831,-0.2441,1,483,848,230
54096756,8779,-0.0269,-0.0181,1.0215,0.1221,0.2441,-0.2441,1,473,804,230
54101759,8780,-0.0283,-0.0176,1.0210,0.0000,0.2441,-0.2441,1,493,843,230
54106757,8781,-0.0283,-0.0181,1.0205,0.0610,0.2441,-0.3052,1,466,832,230
54111754,8782,-0.0283,-0.0186,1.0210,0.0610,0.1221,-0.1831,1,466,871,230
54116761,8783,-0.0288,-0.0190,1.0215,0.0000,0.1831,-0.1831,1,466,869,230
54121760,8784,-0.0298,-0.0190,1.0215,0.1221,0.1221,-0.2441,1,483,824,230
54126757,8785,-0.0298,-0.0186,1.0215,0.0000,0.1831,-0.3052,1,466,868,230
54131761,8786,-0.0278,-0.0190,1.0225,0.0610,0.2441,-0.3052,1,474,815,230
54136761,8787,-0.0273,-0.0195,1.0225,0.1221,0.2441,-0.3052,1,472,863,230
54141759,8788,-0.0273,-0.0205,1.0215,0.1221,0.3052,-0.2441,1,473,863,230
54146759,8789,-0.0278,-0.0195,1.0215,0.1221,0.3052,-0.1831,1,477,870,230
54151778,8790,-0.0273,-0.0186,1.0220,0.1221,0.1831,-0.2441,1,481,855,230
54156755,8791,-0.0283,-0.0186,1.0220,0.0610,0.2441,-0.2441,1,482,857,230
54161759,8792,-0.0298,-0.0176,1.0234,0.1221,0.3662,-0.3052,1,483,858,230
54166758,8793,-0.0303,-0.0166,1.0244,0.1831,0.1831,-0.3052,1,466,870,230
54171760,8794,-0.0298,-0.0181,1.0229,0.1221,0.1831,-0.2441,1,494,875,230
54176760,8795,-0.0293,-0.0195,1.0220,0.1221,0.1831,-0.1831,1,470,854,230
54181754,8796,-0.0293,-0.0190,1.0215,0.0610,0.1831,-0.3052,1,476,848,230
54186759,8797,-0.0283,-0.0181,1.0205,0.1221,0.2441,-0.2441,1,488,841,230
54191756,8798,-0.0283,-0.0186,1.0210,0.1221,0.2441,-0.1831,1,490,847,230
54196762,8799,-0.0273,-0.0195,1.0215,0.0610,0.2441,-0.3662,1,481,846,230
54201757,8800,-0.0273,-0.0195,1.0220,0.1221,0.1831,-0.3662,1,473,851,230
54206761,8801,-0.0283,-0.0200,1.0220,0.1221,0.1831,-0.1831,1,492,849,230
54211762,8802,-0.0288,-0.0195,1.0225,0.2441,0.1831,-0.3052,1,466,874,230
54216758,8803,-0.0283,-0.0181,1.0234,0.0610,0.2441,-0.2441,1,465,877,230
54221760,8804,-0.0273,-0.0176,1.0244,0.1221,0.1831,-0.2441,1,483,879,230
54226762,8805,-0.0269,-0.0200,1.0239,0.1221,0.1831,-0.2441,1,465,878,230
54231762,8806,-0.0273,-0.0220,1.0215,0.1221,0.2441,-0.1831,1,484,865,230
54236755,8807,-0.0288,-0.0220,1.0205,0.1221,0.3052,-0.1831,1,465,903,230
54241763,8808,-0.0288,-0.0200,1.0215,0.0610,0.1831,-0.1831,1,470,862,230
54246757,8809,-0.0283,-0.0190,1.0215,0.0610,0.2441,-0.2441,1,467,874,230
54251758,8810,-0.0283,-0.0186,1.0215,-0.0610,0.2441,-0.2441,1,477,878,230
54256761,8811,-0.0293,-0.0186,1.0215,0.0000,0.2441,-0.2441,1,479,859,230
54261756,8812,-0.0298,-0.0181,1.0210,0.0610,0.1831,-0.3052,1,480,812,230
54266755,8813,-0.0298,-0.0181,1.0200,0.0000,0.2441,-0.3052,1,506,846,230
54271762,8814,-0.0288,-0.0190,1.0205,-0.0610,0.2441,-0.1831,1,466,743,230
54276762,8815,-0.0283,-0.0190,1.0220,0.0610,0.0610,-0.2441,1,494,878,230
54281759,8816,-0.0283,-0.0190,1.0225,0.0610,0.1221,-0.2441,1,466,829,230
54286758,8817,-0.0283,-0.0190,1.0234,0.0610,0.3052,-0.3052,1,480,845,230
54291755,8818,-0.0288,-0.0195,1.0239,0.0000,0.3052,-0.3052,1,473,841,230
54296758,8819,-0.0288,-0.0190,1.0239,0.0610,0.1831,-0.2441,1,489,799,230
54301754,8820,-0.0288,-0.0181,1.0225,0.1221,0.1221,-0.2441,1,491,853,230
54306758,8821,-0.0293,-0.0181,1.0210,0.1221,0.1831,-0.2441,1,482,841,230
54311754,8822,-0.0293,-0.0190,1.0205,0.1221,0.3052,-0.2441,1,493,841,230
54316761,8823,-0.0293,-0.0200,1.0210,0.1831,0.2441,-0.2441,1,466,869,230
54321755,8824,-0.0293,-0.0200,1.0215,0.0610,0.1831,-0.3052,1,465,877,230
54326756,8825,-0.0298,-0.0195,1.0220,0.0000,0.2441,-0.1831,1,466,858,230
54331760,8826,-0.0308,-0.0190,1.0220,0.1831,0.3052,-0.1221,1,485,783,230
54336761,8827,-0.0303,-0.0190,1.0210,0.0000,0.1831,-0.2441,1,465,895,230
54341757,8828,-0.0293,-0.0195,1.0205,0.1831,0.2441,-0.3052,1,482,818,230
54346762,8829,-0.0278,-0.0195,1.0225,0.3052,0.2441,-0.3052,1,469,873,230
54351762,8830,-0.0273,-0.0186,1.0239,0.1831,0.3662,-0.3052,1,469,871,230
54356757,8831,-0.0283,-0.0181,1.0229,0.0610,0.3052,-0.1831,1,475,859,230
54361758,8832,-0.0288,-0.0186,1.0225,0.0000,0.3662,-0.3052,1,465,854,230
54366762,8833,-0.0298,-0.0186,1.0225,0.0610,0.4272,-0.2441,1,505,808,230
54371757,8834,-0.0303,-0.0181,1.0220,0.3052,0.3052,-0.3052,1,511,856,230
54376756,8835,-0.0288,-0.0195,1.0215,0.1831,0.3662,-0.1831,1,494,858,230
54381759,8836,-0.0278,-0.0210,1.0210,0.0000,0.1831,-0.1221,1,464,836,230
54386757,8837,-0.0278,-0.0205,1.0210,0.0610,0.1221,-0.1221,1,489,797,230
54391759,8838,-0.0273,-0.0205,1.0205,0.0610,0.2441,-0.1831,1,481,839,230
54396758,8839,-0.0269,-0.0200,1.0205,0.0000,0.1831,-0.2441,1,485,850,230
54401754,8840,-0.0273,-0.0200,1.0215,0.1221,0.2441,-0.2441,1,488,801,230
54406754,8841,-0.0283,-0.0195,1.0220,0.0000,0.3662,-0.2441,1,480,846,230
54411757,8842,-0.0298,-0.0195,1.0225,0.0000,0.1831,-0.1831,1,493,806,230
54416762,8843,-0.0303,-0.0190,1.0229,0.0610,0.1831,-0.2441,1,466,831,230
54421759,8844,-0.0298,-0.0195,1.0220,0.0000,0.3662,-0.3052,1,466,875,230
54426761,8845,-0.0293,-0.0210,1.0210,0.0000,0.3052,-0.2441,1,483,829,230
54431756,8846,-0.0288,-0.0215,1.0210,0.0610,0.2441,-0.1831,1,466,765,230
54436758,8847,-0.0288,-0.0210,1.0210,0.0610,0.3052,-0.1831,1,484,865,230
54441761,8848,-0.0293,-0.0195,1.0210,0.0000,0.3052,-0.1831,1,465,897,230
54446762,8849,-0.0293,-0.0181,1.0210,0.0000,0.1831,-0.1221,1,470,825,230
54451759,8850,-0.0283,-0.0176,1.0210,0.1221,0.3662,-0.1831,1,477,777,230
54456761,8851,-0.0278,-0.0186,1.0215,0.0000,0.3662,-0.1831,1,467,872,230
54461779,8852,-0.0283,-0.0190,1.0215,-0.0610,0.3662,-0.3662,1,474,814,230
54466762,8853,-0.0293,-0.0190,1.0215,0.0610,0.3662,-0.3052,1,465,861,230
54471759,8854,-0.0298,-0.0190,1.0215,0.1831,0.4883,-0.1831,1,509,851,230
54476758,8855,-0.0298,-0.0195,1.0220,0.1221,0.3662,-0.2441,1,468,875,230
54481763,8856,-0.0298,-0.0200,1.0210,0.1221,0.3662,-0.2441,1,493,810,230
54486759,8857,-0.0293,-0.0200,1.0200,0.0610,0.3052,-0.1831,1,483,852,230
54491754,8858,-0.0293,-0.0195,1.0210,0.1221,0.3662,-0.1831,1,473,839,230
54496759,8859,-0.0298,-0.0186,1.0225,0.0610,0.3052,-0.1221,1,488,845,230
54501759,8860,-0.0283,-0.0176,1.0229,0.1221,0.2441,-0.1831,1,483,836,230
54506758,8861,-0.0278,-0.0181,1.0225,0.0610,0.0610,-0.1831,1,473,851,230
54511762,8862,-0.0288,-0.0190,1.0229,0.0610,0.1221,-0.2441,1,481,843,230
54516761,8863,-0.0293,-0.0205,1.0234,0.0610,0.1831,-0.2441,1,493,849,230
54521755,8864,-0.0293,-0.0200,1.0225,0.0610,0.1831,-0.1831,1,466,878,230
54526755,8865,-0.0293,-0.0195,1.0210,0.0000,0.1831,-0.2441,1,483,873,230
54531755,8866,-0.0288,-0.0200,1.0200,0.1221,0.1221,-0.2441,1,466,819,230
54536759,8867,-0.0283,-0.0205,1.0205,0.1831,0.2441,-0.2441,1,483,860,230
54541758,8868,-0.0269,-0.0200,1.0225,0.1221,0.1831,-0.2441,1,466,880,230
54546754,8869,-0.0264,-0.0190,1.0229,0.1831,0.2441,-0.2441,1,475,934,230
54551758,8870,-0.0264,-0.0195,1.0220,0.2441,0.3052,-0.1831,1,465,871,230
54556757,8871,-0.0278,-0.0190,1.0215,0.1221,0.4272,-0.1831,1,465,874,230
54561757,8872,-0.0288,-0.0186,1.0220,0.0610,0.2441,-0.2441,1,470,858,230
54566775,8873,-0.0293,-0.0181,1.0220,0.1831,0.3052,-0.3052,1,476,859,230
54571757,8874,-0.0293,-0.0186,1.0225,0.1221,0.3052,-0.2441,1,478,846,230
54576755,8875,-0.0283,-0.0190,1.0220,0.1221,0.1831,-0.2441,1,511,850,230
54581756,8876,-0.0278,-0.0200,1.0215,0.1221,0.1831,-0.0610,1,488,878,230
54586755,8877,-0.0283,-0.0205,1.0215,0.0610,0.1831,-0.2441,1,466,826,230
54591756,8878,-0.0283,-0.0200,1.0205,0.0610,0.2441,-0.3052,1,487,859,230
54596755,8879,-0.0288,-0.0195,1.0200,0.0610,0.2441,-0.2441,1,492,843,230
54601761,8880,-0.0288,-0.0186,1.0205,0.0610,0.3052,-0.1831,1,473,850,230
54606762,8881,-0.0283,-0.0181,1.0220,0.1831,0.2441,-0.1221,1,475,844,230
54611760,8882,-0.0273,-0.0195,1.0234,0.1831,0.2441,-0.1831,1,483,846,230
54616756,8883,-0.0283,-0.0205,1.0225,0.0610,0.1831,-0.2441,1,488,855,230
54621759,8884,-0.0303,-0.0200,1.0215,0.0000,0.2441,-0.2441,1,466,849,230
54626760,8885,-0.0312,-0.0190,1.0220,0.0000,0.2441,-0.1831,1,465,826,230
54631754,8886,-0.0308,-0.0190,1.0234,0.1221,0.1221,-0.1221,1,466,857,230
54636756,8887,-0.0298,-0.0190,1.0234,0.1221,0.1831,-0.1831,1,466,854,230
54641756,8888,-0.0293,-0.0186,1.0220,0.1221,0.1221,-0.2441,1,485,867,230
54646761,8889,-0.0283,-0.0181,1.0215,-0.0610,0.1831,-0.1831,1,466,896,230
54651757,8890,-0.0273,-0.0176,1.0210,0.0610,0.1831,-0.1831,1,475,933,230
54656754,8891,-0.0278,-0.0186,1.0205,0.0610,0.1221,-0.2441,1,482,865,230
54661758,8892,-0.0288,-0.0205,1.0210,0.1221,0.1221,-0.1831,1,472,872,230
54666760,8893,-0.0298,-0.0215,1.0220,0.0000,0.1831,-0.2441,1,471,852,230
54671773,8894,-0.0298,-0.0210,1.0229,0.0610,0.1831,-0.2441,1,472,811,230
54676762,8895,-0.0298,-0.0200,1.0220,0.0610,0.1221,-0.2441,1,479,857,230
54681758,8896,-0.0298,-0.0195,1.0210,0.0000,0.3662,-0.3052,1,510,851,230
54686758,8897,-0.0298,-0.0200,1.0205,0.0610,0.2441,-0.3052,1,483,749,230
54691754,8898,-0.0298,-0.0205,1.0210,0.1221,0.2441,-0.3052,1,464,821,230
54696754,8899,-0.0288,-0.0195,1.0215,0.0000,0.3662,-0.3052,1,483,861,230
54701757,8900,-0.0283,-0.0181,1.0220,0.1221,0.4272,-0.1221,1,491,801,230
54706754,8901,-0.0283,-0.0171,1.0220,0.1221,0.3662,-0.2441,1,487,841,230
54711756,8902,-0.0288,-0.0181,1.0215,0.1221,0.3662,-0.2441,1,474,847,230
54716755,8903,-0.0298,-0.0190,1.0210,0.0000,0.1831,-0.2441,1,485,846,230
54721758,8904,-0.0298,-0.0190,1.0200,0.0000,0.2441,-0.1221,1,487,801,230
54726757,8905,-0.0288,-0.0181,1.0210,0.0610,0.1831,-0.1221,1,466,798,230
54731755,8906,-0.0273,-0.0181,1.0220,0.0610,0.1221,-0.2441,1,466,867,230
54736762,8907,-0.0278,-0.0190,1.0225,0.1221,0.0610,-0.1221,1,483,869,230
54741760,8908,-0.0283,-0.0195,1.0229,0.0000,0.2441,-0.1831,1,466,867,230
54746757,8909,-0.0288,-0.0186,1.0229,0.0000,0.2441,-0.2441,1,484,773,230
54751758,8910,-0.0293,-0.0190,1.0234,0.0610,0.2441,-0.1831,1,465,900,230
54756761,8911,-0.0293,-0.0190,1.0229,0.1221,0.1831,-0.2441,1,482,934,230
54761759,8912,-0.0283,-0.0195,1.0210,0.1831,0.2441,-0.3052,1,465,875,230
54766756,8913,-0.0288,-0.0200,1.0215,0.1221,0.1831,-0.3052,1,472,874,230
54771763,8914,-0.0293,-0.0200,1.0205,0.1221,0.2441,-0.1831,1,465,853,230
54776759,8915,-0.0298,-0.0200,1.0190,0.1221,0.0610,-0.1831,1,465,855,230
54781760,8916,-0.0298,-0.0205,1.0195,0.0610,0.0610,-0.1831,1,484,850,230
54786760,8917,-0.0303,-0.0210,1.0210,0.0610,0.2441,-0.2441,1,466,872,230
54791758,8918,-0.0298,-0.0210,1.0220,0.0610,0.2441,-0.2441,1,494,869,230
54796761,8919,-0.0288,-0.0205,1.0225,0.1221,0.3052,-0.2441,1,469,798,230
54801760,8920,-0.0283,-0.0195,1.0215,0.1221,0.1221,-0.1831,1,474,854,230
54806755,8921,-0.0288,-0.0190,1.0205,0.1831,0.3052,-0.3052,1,476,846,230
54811756,8922,-0.0298,-0.0190,1.0205,0.0610,0.3052,-0.2441,1,492,843,230
54816755,8923,-0.0308,-0.0200,1.0205,0.0610,0.1831,-0.1221,1,480,843,230
54821754,8924,-0.0308,-0.0210,1.0205,0.1831,0.2441,-0.1831,1,490,838,230
54826754,8925,-0.0308,-0.0200,1.0205,0.0610,0.2441,-0.3052,1,493,846,230
54831761,8926,-0.0308,-0.0195,1.0200,0.1221,0.2441,-0.2441,1,466,866,230
54836756,8927,-0.0308,-0.0205,1.0210,0.1221,0.2441,-0.3662,1,466,873,230
54841754,8928,-0.0308,-0.0215,1.0215,0.1221,0.1831,-0.3052,1,483,871,230
54846762,8929,-0.0303,-0.0200,1.0210,0.0000,0.3052,-0.1831,1,466,855,230
54851756,8930,-0.0303,-0.0176,1.0210,0.0000,0.3052,-0.1831,1,484,848,230
54856759,8931,-0.0293,-0.0161,1.0225,0.0610,0.2441,-0.1831,1,474,811,230
54861762,8932,-0.0293,-0.0171,1.0234,0.0000,0.3052,-0.2441,1,477,867,230
54866761,8933,-0.0293,-0.0190,1.0234,-0.1221,0.3052,-0.1831,1,478,824,230
54871754,8934,-0.0298,-0.0195,1.0229,0.0000,0.1831,-0.3052,1,481,842,230
54876759,8935,-0.0293,-0.0200,1.0225,0.0610,0.3662,-0.2441,1,472,812,230
54881760,8936,-0.0273,-0.0195,1.0220,0.0000,0.3052,-0.2441,1,468,855,230
54886756,8937,-0.0269,-0.0181,1.0220,0.1221,0.3662,-0.2441,1,484,811,230
54891754,8938,-0.0278,-0.0181,1.0220,0.0000,0.3662,-0.1221,1,466,873,230
54896762,8939,-0.0273,-0.0190,1.0210,0.1221,0.2441,-0.1831,1,494,750,230
54901754,8940,-0.0283,-0.0195,1.0210,0.1221,0.3662,-0.2441,1,471,802,230
54906760,8941,-0.0293,-0.0190,1.0210,0.0610,0.3662,-0.2441,1,478,849,230
54911759,8942,-0.0288,-0.0190,1.0215,0.1221,0.4272,-0.1221,1,479,846,230
54916762,8943,-0.0283,-0.0195,1.0225,0.0000,0.3052,-0.1221,1,490,843,230
54921759,8944,-0.0293,-0.0205,1.0229,0.0000,0.1831,-0.1221,1,473,798,230
54926759,8945,-0.0298,-0.0195,1.0229,0.0000,0.3052,-0.1221,1,483,800,230
54931756,8946,-0.0288,-0.0186,1.0215,0.0610,0.1831,-0.1831,1,493,796,230
54936759,8947,-0.0283,-0.0190,1.0200,0.1221,0.2441,-0.1221,1,494,848,230
54941756,8948,-0.0278,-0.0190,1.0200,0.1221,0.3662,-0.1831,1,466,872,230
54946755,8949,-0.0283,-0.0190,1.0220,0.1221,0.2441,-0.1831,1,483,876,230
54951758,8950,-0.0293,-0.0190,1.0234,0.1221,0.1831,-0.1221,1,466,865,230
54956763,8951,-0.0293,-0.0181,1.0249,0.0610,0.1221,-0.1831,1,484,815,230
54961760,8952,-0.0288,-0.0176,1.0249,0.1221,0.2441,-0.2441,1,465,898,230
54966762,8953,-0.0283,-0.0190,1.0239,0.2441,0.2441,-0.1831,1,471,954,230
54971761,8954,-0.0283,-0.0200,1.0229,0.2441,0.1221,-0.3052,1,472,874,230
54976757,8955,-0.0298,-0.0195,1.0229,0.1221,0.1831,-0.1221,1,478,871,230
54981762,8956,-0.0312,-0.0186,1.0225,0.2441,0.1831,-0.1221,1,482,855,230
54986783,8957,-0.0303,-0.0181,1.0220,-0.0610,0.0000,-0.3052,1,479,881,230
54991755,8958,-0.0298,-0.0181,1.0220,0.0000,0.0610,-0.2441,1,478,800,230
54996756,8959,-0.0293,-0.0186,1.0215,-0.0610,0.0610,-0.1831,1,466,752,230
55001762,8960,-0.0288,-0.0200,1.0210,0.0000,0.0610,-0.2441,1,494,869,230
55006754,8961,-0.0283,-0.0200,1.0200,0.1221,0.0610,-0.1831,1,493,752,230
55011754,8962,-0.0283,-0.0186,1.0205,0.0610,0.1221,-0.1831,1,488,852,230
55016760,8963,-0.0283,-0.0176,1.0215,0.0610,0.1831,-0.2441,1,473,845,230
55021761,8964,-0.0288,-0.0181,1.0225,0.1221,0.1831,-0.3052,1,478,850,230
55026759,8965,-0.0293,-0.0200,1.0225,0.1221,0.1831,-0.2441,1,486,840,230
55031756,8966,-0.0308,-0.0205,1.0210,0.0610,0.1221,-0.1831,1,476,844,230
55036759,8967,-0.0317,-0.0210,1.0205,0.0610,0.0610,-0.3052,1,477,839,230
55041757,8968,-0.0312,-0.0220,1.0195,0.0610,0.1221,-0.3052,1,493,838,230
55046754,8969,-0.0298,-0.0215,1.0195,0.0610,0.1831,-0.1221,1,466,894,230
55051763,8970,-0.0293,-0.0210,1.0205,0.0610,0.0610,-0.1831,1,484,872,230
55056755,8971,-0.0293,-0.0205,1.0220,0.1221,0.0610,-0.2441,1,465,859,230
55061759,8972,-0.0293,-0.0186,1.0215,0.0000,0.1221,-0.2441,1,484,861,230
55066755,8973,-0.0298,-0.0171,1.0210,0.1221,0.1831,-0.2441,1,469,815,230
55071758,8974,-0.0298,-0.0181,1.0215,0.1221,0.1221,-0.1221,1,481,859,230
55076762,8975,-0.0293,-0.0190,1.0220,0.0610,0.0000,-0.1831,1,482,863,230
55081757,8976,-0.0293,-0.0200,1.0220,0.0000,0.0000,-0.2441,1,465,810,230
55086759,8977,-0.0288,-0.0205,1.0229,0.2441,0.0000,-0.2441,1,473,764,230
55091756,8978,-0.0288,-0.0200,1.0229,0.1831,0.0610,-0.2441,1,473,818,230
55096754,8979,-0.0278,-0.0195,1.0215,0.0000,0.1221,-0.1831,1,509,861,230
55101754,8980,-0.0269,-0.0190,1.0220,0.1831,0.0000,-0.1221,1,466,785,230
55106763,8981,-0.0264,-0.0181,1.0229,0.0610,0.0610,-0.1831,1,490,752,230
55111754,8982,-0.0264,-0.0176,1.0234,0.0610,0.2441,-0.1831,1,464,814,230
55116759,8983,-0.0269,-0.0181,1.0239,0.1221,0.1831,-0.2441,1,487,848,230
55121755,8984,-0.0273,-0.0190,1.0239,0.0610,0.0610,-0.1831,1,489,846,230
55126757,8985,-0.0273,-0.0200,1.0225,0.1221,0.1831,-0.0610,1,483,869,230
55131758,8986,-0.0278,-0.0200,1.0210,0.0610,0.3662,-0.2441,1,488,842,230
55136761,8987,-0.0283,-0.0200,1.0210,0.1831,0.2441,-0.2441,1,470,847,230
55141757,8988,-0.0283,-0.0205,1.0220,0.0610,0.2441,-0.1831,1,488,851,230
55146767,8989,-0.0278,-0.0205,1.0234,0.0610,0.2441,-0.3052,1,466,849,230
55151757,8990,-0.0283,-0.0200,1.0225,0.0610,0.2441,-0.3052,1,466,875,230
55156756,8991,-0.0293,-0.0195,1.0220,0.0610,0.3052,-0.3052,1,484,872,230
55161756,8992,-0.0298,-0.0186,1.0220,0.0000,0.3052,-0.3052,1,477,856,230
55166763,8993,-0.0293,-0.0186,1.0210,0.0610,0.3052,-0.3052,1,466,886,230
55171754,8994,-0.0298,-0.0190,1.0205,0.0610,0.2441,-0.2441,1,482,903,230
55176757,8995,-0.0298,-0.0190,1.0210,-0.0610,0.1831,-0.3052,1,476,866,230
55181762,8996,-0.0288,-0.0195,1.0200,-0.1221,0.1831,-0.2441,1,477,860,230
55186760,8997,-0.0288,-0.0210,1.0195,0.0610,0.1831,-0.1831,1,474,832,230
55191763,8998,-0.0298,-0.0210,1.0210,-0.0610,0.1831,-0.3662,1,482,860,230
55196757,8999,-0.0303,-0.0190,1.0210,0.0000,0.2441,-0.2441,1,479,853,230
55201757,9000,-0.0298,-0.0190,1.0190,0.1221,0.2441,-0.1831,1,510,809,230
55206758,9001,-0.0303,-0.0195,1.0186,0.0610,0.3052,-0.3662,1,471,874,230
55211760,9002,-0.0298,-0.0200,1.0205,0.0610,0.3052,-0.3052,1,492,868,230
55216758,9003,-0.0293,-0.0195,1.0220,0.0000,0.1831,-0.1831,1,467,845,230
55221754,9004,-0.0288,-0.0186,1.0229,0.1221,0.1831,-0.2441,1,490,805,230
55226758,9005,-0.0288,-0.0176,1.0210,0.1221,0.1831,-0.2441,1,480,850,230
55231759,9006,-0.0293,-0.0181,1.0186,0.1221,0.1221,-0.2441,1,481,848,230
55236759,9007,-0.0298,-0.0200,1.0190,0.2441,0.1831,-0.2441,1,490,838,230
55241763,9008,-0.0308,-0.0205,1.0215,0.1221,0.1221,-0.2441,1,491,851,230
55246759,9009,-0.0303,-0.0195,1.0220,0.1831,0.1221,-0.3052,1,489,840,230
55251768,9010,-0.0288,-0.0190,1.0210,0.2441,0.1221,-0.1831,1,466,840,230
55256762,9011,-0.0283,-0.0190,1.0195,0.1831,0.0610,-0.1831,1,465,876,230
55261754,9012,-0.0278,-0.0186,1.0200,0.1221,0.0610,-0.3052,1,483,880,230
55266758,9013,-0.0283,-0.0190,1.0225,0.1831,0.1221,-0.2441,1,477,855,230
55271760,9014,-0.0283,-0.0200,1.0244,0.1221,0.1221,-0.2441,1,465,875,230
55276759,9015,-0.0278,-0.0186,1.0244,0.2441,0.1221,-0.2441,1,466,930,230
55281754,9016,-0.0283,-0.0186,1.0234,0.1221,0.1221,-0.2441,1,468,869,230
55286757,9017,-0.0288,-0.0200,1.0220,0.0610,0.0610,-0.1831,1,479,865,230
55291760,9018,-0.0288,-0.0205,1.0210,0.1831,0.1831,-0.3052,1,479,872,230
55296761,9019,-0.0288,-0.0210,1.0205,0.1221,0.2441,-0.2441,1,481,856,230
55301763,9020,-0.0278,-0.0210,1.0210,0.0610,0.1221,-0.2441,1,478,857,230
55306758,9021,-0.0269,-0.0210,1.0225,0.1221,0.1831,-0.3052,1,510,851,230
55311758,9022,-0.0264,-0.0200,1.0234,0.1221,0.2441,-0.1831,1,465,866,230
55316759,9023,-0.0269,-0.0195,1.0234,0.0610,0.1831,-0.1831,1,492,874,230
55321756,9024,-0.0273,-0.0186,1.0229,0.1831,0.1831,-0.1831,1,466,812,230
55326762,9025,-0.0278,-0.0186,1.0225,0.0610,0.2441,-0.2441,1,491,864,230
55331757,9026,-0.0283,-0.0186,1.0225,0.1221,0.2441,-0.2441,1,492,849,230
55336759,9027,-0.0298,-0.0186,1.0225,0.1831,0.2441,-0.1221,1,482,847,230
55341761,9028,-0.0312,-0.0190,1.0215,0.1221,0.3662,-0.1831,1,480,845,230
55346763,9029,-0.0308,-0.0200,1.0195,0.2441,0.3052,-0.2441,1,486,873,230
55351756,9030,-0.0288,-0.0200,1.0200,0.2441,0.3052,-0.1831,1,488,844,230
55356756,9031,-0.0278,-0.0195,1.0210,0.1831,0.1221,-0.1221,1,466,845,230
55361759,9032,-0.0278,-0.0181,1.0200,0.1221,0.0000,-0.0610,1,466,870,230
55366760,9033,-0.0273,-0.0171,1.0200,0.0610,0.1831,-0.1221,1,483,821,230
55371755,9034,-0.0283,-0.0181,1.0215,0.0610,0.2441,-0.2441,1,465,859,230
55376762,9035,-0.0303,-0.0190,1.0225,0.0610,0.1831,-0.1831,1,484,810,230
55381760,9036,-0.0303,-0.0200,1.0220,0.1221,0.1831,-0.1831,1,467,900,230
55386756,9037,-0.0298,-0.0205,1.0215,0.0610,0.2441,-0.1221,1,474,860,230
55391757,9038,-0.0293,-0.0200,1.0210,0.1221,0.0000,-0.2441,1,481,870,230
55396754,9039,-0.0283,-0.0195,1.0205,0.1831,-0.0610,-0.2441,1,480,806,230
55401759,9040,-0.0283,-0.0205,1.0210,0.1221,0.0610,-0.1221,1,468,862,230
55406769,9041,-0.0278,-0.0195,1.0210,0.3052,0.0000,-0.1221,1,465,849,230
55411756,9042,-0.0278,-0.0181,1.0220,0.3052,0.1221,-0.2441,1,484,804,230
55416755,9043,-0.0278,-0.0166,1.0220,0.3052,0.1221,-0.1831,1,492,851,230
55421760,9044,-0.0283,-0.0166,1.0220,0.2441,0.0610,-0.0610,1,481,872,230
55426754,9045,-0.0288,-0.0176,1.0225,0.1831,0.1221,-0.1831,1,466,802,230
55431758,9046,-0.0288,-0.0186,1.0229,0.3052,0.0610,-0.1831,1,479,848,230
55436762,9047,-0.0283,-0.0190,1.0225,0.2441,0.0610,-0.2441,1,485,848,230
55441756,9048,-0.0288,-0.0205,1.0210,0.1831,0.1221,-0.1831,1,480,850,230
55446757,9049,-0.0288,-0.0205,1.0190,0.1221,0.1221,-0.2441,1,474,848,230
55451756,9050,-0.0283,-0.0195,1.0186,0.1831,0.1221,-0.1221,1,483,845,230
55456762,9051,-0.0283,-0.0186,1.0200,0.1221,0.1831,-0.1221,1,488,845,230
55461757,9052,-0.0288,-0.0186,1.0220,0.1221,0.3662,-0.1831,1,493,841,230
55466758,9053,-0.0288,-0.0186,1.0229,0.1831,0.2441,-0.1221,1,466,876,230
55471754,9054,-0.0283,-0.0181,1.0229,0.1831,0.2441,-0.3052,1,483,877,230
55476757,9055,-0.0269,-0.0176,1.0229,0.0610,0.1831,-0.1831,1,465,866,230
55481754,9056,-0.0273,-0.0186,1.0225,-0.0610,0.2441,-0.1221,1,484,820,230
55486763,9057,-0.0288,-0.0190,1.0215,-0.0610,0.1831,-0.1831,1,476,899,230
55491760,9058,-0.0293,-0.0195,1.0210,0.1221,0.3052,-0.3052,1,470,868,230
55496758,9059,-0.0288,-0.0200,1.0210,0.2441,0.1831,-0.1831,1,479,863,230
55501761,9060,-0.0283,-0.0195,1.0215,0.1221,0.0000,-0.1831,1,466,832,230
55506757,9061,-0.0283,-0.0186,1.0220,0.1221,0.1221,-0.1831,1,467,813,230
55511770,9062,-0.0293,-0.0176,1.0220,0.1831,0.0000,-0.1831,1,470,853,230
55516755,9063,-0.0298,-0.0176,1.0215,0.1221,0.1221,-0.2441,1,483,812,230
55521757,9064,-0.0288,-0.0181,1.0210,0.1221,0.1221,-0.1831,1,493,869,230
55526762,9065,-0.0278,-0.0186,1.0210,0.2441,0.0610,-0.1831,1,490,866,230
55531756,9066,-0.0273,-0.0190,1.0220,0.2441,0.0000,-0.2441,1,465,819,230
55536759,9067,-0.0283,-0.0200,1.0220,0.0610,0.0610,-0.0610,1,491,806,230
55541762,9068,-0.0278,-0.0200,1.0210,0.1221,0.0000,-0.1831,1,490,840,230
55546755,9069,-0.0283,-0.0190,1.0210,0.2441,0.0000,-0.2441,1,480,799,230
55551755,9070,-0.0283,-0.0186,1.0220,0.1221,0.0610,-0.1831,1,478,805,230
55556759,9071,-0.0269,-0.0195,1.0225,0.1831,0.1221,-0.1831,1,490,843,230
55561755,9072,-0.0269,-0.0200,1.0225,0.1221,0.1221,-0.2441,1,493,846,230
55566760,9073,-0.0283,-0.0200,1.0229,0.1221,0.1221,-0.1831,1,466,868,230
55571755,9074,-0.0298,-0.0200,1.0234,0.1221,0.2441,-0.2441,1,466,871,230
55576758,9075,-0.0303,-0.0190,1.0234,0.2441,0.1831,-0.1831,1,466,875,230
55581759,9076,-0.0298,-0.0186,1.0229,0.2441,0.1831,-0.1221,1,485,869,230
55586762,9077,-0.0298,-0.0190,1.0220,0.1221,0.2441,-0.1221,1,465,903,230
55591761,9078,-0.0303,-0.0195,1.0220,0.0610,0.1831,-0.0610,1,482,933,230
55596754,9079,-0.0298,-0.0200,1.0225,0.0000,0.1831,-0.1831,1,465,870,230
55601757,9080,-0.0293,-0.0195,1.0229,0.0610,0.1831,-0.2441,1,475,811,230
55606754,9081,-0.0293,-0.0190,1.0215,0.0610,0.3662,-0.2441,1,479,861,230
55611756,9082,-0.0273,-0.0195,1.0200,0.0610,0.3052,-0.3052,1,466,857,230
55616759,9083,-0.0264,-0.0190,1.0195,0.0610,0.3052,-0.1831,1,483,848,230
55621757,9084,-0.0273,-0.0181,1.0200,0.0000,0.3052,-0.1831,1,510,854,230
55626761,9085,-0.0288,-0.0181,1.0215,0.0000,0.1831,-0.2441,1,473,749,230
55631758,9086,-0.0293,-0.0190,1.0215,0.1221,0.1831,-0.2441,1,493,765,230
55636756,9087,-0.0303,-0.0195,1.0210,0.1831,0.0610,-0.2441,1,488,799,230
55641755,9088,-0.0303,-0.0190,1.0210,0.1831,0.1831,-0.3662,1,475,845,230
55646762,9089,-0.0288,-0.0186,1.0225,0.0610,0.2441,-0.3052,1,473,846,230
55651758,9090,-0.0278,-0.0181,1.0244,0.1221,0.3662,-0.2441,1,475,864,230
55656755,9091,-0.0273,-0.0181,1.0244,0.1221,0.3662,-0.1831,1,485,848,230
55661761,9092,-0.0264,-0.0186,1.0234,0.0610,0.3052,-0.1831,1,471,848,230
55666754,9093,-0.0254,-0.0186,1.0229,0.0000,0.1831,-0.1831,1,493,843,230
55671754,9094,-0.0264,-0.0190,1.0234,0.0000,0.2441,-0.2441,1,466,832,230
55676755,9095,-0.0269,-0.0190,1.0225,0.0610,0.3052,-0.3052,1,466,834,230
55681762,9096,-0.0264,-0.0195,1.0220,0.0610,0.1831,-0.3052,1,466,853,230
55686755,9097,-0.0269,-0.0200,1.0229,-0.0610,0.2441,-0.1221,1,480,860,230
55691761,9098,-0.0278,-0.0195,1.0234,-0.0610,0.1221,-0.1221,1,465,898,230
55696761,9099,-0.0278,-0.0186,1.0234,-0.0610,0.0610,-0.2441,1,468,934,230
55701755,9100,-0.0269,-0.0171,1.0225,0.0610,0.0610,-0.2441,1,474,867,230
55706757,9101,-0.0273,-0.0171,1.0215,0.0610,0.0000,-0.0610,1,483,859,230
55711761,9102,-0.0273,-0.0176,1.0229,-0.0610,0.1831,-0.1831,1,482,805,230
55716757,9103,-0.0273,-0.0186,1.0249,0.0610,0.0610,-0.1831,1,481,861,230
55721756,9104,-0.0288,-0.0186,1.0225,0.0610,0.0000,-0.1221,1,480,857,230
55726756,9105,-0.0303,-0.0186,1.0186,-0.0610,0.0000,-0.1831,1,484,806,230
55731759,9106,-0.0308,-0.0190,1.0190,0.0000,-0.0610,-0.1221,1,466,749,230
55736759,9107,-0.0308,-0.0195,1.0215,0.0000,0.0000,0.0000,1,494,748,230
55741759,9108,-0.0298,-0.0190,1.0229,0.0000,-0.0610,-0.1221,1,466,705,230
55746760,9109,-0.0288,-0.0181,1.0225,0.0000,-0.0610,-0.1221,1,488,797,230
55751761,9110,-0.0283,-0.0181,1.0210,-0.0610,0.0610,-0.0610,1,489,795,230
55756759,9111,-0.0288,-0.0181,1.0210,-0.1831,-0.0610,-0.0610,1,478,838,230
55761755,9112,-0.0283,-0.0190,1.0210,-0.0610,0.0610,-0.0610,1,490,843,230
55766761,9113,-0.0273,-0.0186,1.0200,0.0000,0.0610,-0.1221,1,480,842,230
55771762,9114,-0.0283,-0.0195,1.0190,0.0000,0.0610,-0.1221,1,492,794,230
55776760,9115,-0.0298,-0.0210,1.0205,0.2441,0.1831,-0.1221,1,493,798,230
55781757,9116,-0.0298,-0.0205,1.0215,0.1831,0.1221,-0.1221,1,465,873,230
55786755,9117,-0.0293,-0.0195,1.0210,0.1831,0.1221,-0.1221,1,483,869,230
55791759,9118,-0.0288,-0.0186,1.0210,0.1831,0.2441,-0.2441,1,465,858,230
55796758,9119,-0.0293,-0.0181,1.0210,0.3052,0.3052,-0.1831,1,484,869,230
55801755,9120,-0.0283,-0.0186,1.0210,0.2441,0.3052,-0.2441,1,472,904,230
55806761,9121,-0.0269,-0.0195,1.0210,0.1831,0.3662,-0.1221,1,479,864,230
55811760,9122,-0.0259,-0.0200,1.0229,0.0610,0.3052,-0.2441,1,474,871,230
55816758,9123,-0.0269,-0.0186,1.0239,0.1221,0.3662,-0.2441,1,478,871,230
55821760,9124,-0.0269,-0.0186,1.0234,0.0610,0.3662,-0.1831,1,482,859,230
55826769,9125,-0.0273,-0.0195,1.0225,0.1831,0.2441,-0.1831,1,465,859,230
55831763,9126,-0.0278,-0.0205,1.0220,0.1831,0.3662,-0.2441,1,484,863,230
55836754,9127,-0.0269,-0.0210,1.0220,0.1831,0.4272,-0.3662,1,510,863,230
55841754,9128,-0.0264,-0.0210,1.0225,0.0610,0.3052,-0.2441,1,488,874,230
55846762,9129,-0.0259,-0.0200,1.0234,0.0000,0.4272,-0.1831,1,494,797,230
55851758,9130,-0.0259,-0.0181,1.0244,0.1221,0.3052,-0.3052,1,466,802,230
55856758,9131,-0.0264,-0.0176,1.0239,0.1221,0.2441,-0.2441,1,479,835,230
55861761,9132,-0.0273,-0.0186,1.0215,0.1221,0.3662,-0.2441,1,488,848,230
55866759,9133,-0.0273,-0.0181,1.0200,0.1221,0.3052,-0.1831,1,473,847,230
55871758,9134,-0.0273,-0.0176,1.0210,0.0000,0.1831,-0.1831,1,485,838,230
55876758,9135,-0.0273,-0.0195,1.0229,0.0000,0.1831,-0.1831,1,482,801,230
55881755,9136,-0.0269,-0.0200,1.0239,0.0610,0.3052,-0.1221,1,492,808,230
55886754,9137,-0.0269,-0.0195,1.0239,0.0000,0.1831,-0.2441,1,466,865,230
55891757,9138,-0.0269,-0.0195,1.0229,0.0610,0.2441,-0.3662,1,483,834,230
55896762,9139,-0.0273,-0.0195,1.0225,0.0610,0.3662,-0.3052,1,465,878,230
55901758,9140,-0.0278,-0.0186,1.0225,0.0000,0.3052,-0.3662,1,484,862,230
55906760,9141,-0.0278,-0.0181,1.0225,-0.0610,0.3052,-0.1831,1,465,903,230
55911758,9142,-0.0283,-0.0190,1.0220,0.1221,0.3052,-0.2441,1,480,933,230
55916761,9143,-0.0298,-0.0200,1.0210,0.1221,0.3662,-0.2441,1,483,861,230
55921756,9144,-0.0308,-0.0195,1.0200,0.0610,0.2441,-0.3662,1,465,871,230
55926756,9145,-0.0298,-0.0200,1.0195,-0.0610,0.3052,-0.1831,1,470,857,230
55931761,9146,-0.0303,-0.0205,1.0190,0.0610,0.1831,-0.1221,1,471,854,230
55936761,9147,-0.0298,-0.0195,1.0195,0.0000,0.1221,-0.1831,1,484,851,230
55941758,9148,-0.0293,-0.0195,1.0205,0.0610,0.1221,-0.1831,1,509,812,230
55946760,9149,-0.0293,-0.0200,1.0210,0.1221,0.0610,-0.1221,1,493,872,230
55951763,9150,-0.0298,-0.0200,1.0220,0.1221,0.0000,-0.0610,1,489,862,230
55956759,9151,-0.0298,-0.0200,1.0225,0.0000,0.0610,-0.2441,1,464,793,230
55961757,9152,-0.0298,-0.0195,1.0210,-0.1831,0.0000,-0.1221,1,490,797,230
55966755,9153,-0.0293,-0.0200,1.0205,0.0000,-0.0610,-0.1221,1,478,825,230
55971762,9154,-0.0288,-0.0200,1.0220,-0.0610,-0.0610,-0.1221,1,489,794,230
55976755,9155,-0.0278,-0.0200,1.0229,-0.0610,0.0610,-0.0610,1,485,841,230
55981754,9156,-0.0273,-0.0190,1.0220,0.0000,0.0000,-0.1221,1,479,844,230
55986756,9157,-0.0278,-0.0186,1.0210,0.0000,0.0610,-0.1221,1,493,750,230
55991758,9158,-0.0273,-0.0181,1.0210,-0.1221,0.1831,-0.2441,1,466,820,230
55996762,9159,-0.0278,-0.0186,1.0220,0.0000,0.2441,-0.2441,1,483,872,230
56001758,9160,-0.0288,-0.0195,1.0239,0.1221,0.1831,-0.1831,1,466,823,230
56006756,9161,-0.0298,-0.0195,1.0244,-0.0610,0.2441,-0.2441,1,485,870,230
56011762,9162,-0.0298,-0.0190,1.0234,-0.1221,0.3662,-0.3052,1,465,907,230
56016755,9163,-0.0288,-0.0190,1.0225,-0.0610,0.3052,-0.3052,1,481,931,230
56021754,9164,-0.0283,-0.0195,1.0225,0.0000,0.1831,-0.1831,1,468,867,230
56026762,9165,-0.0273,-0.0195,1.0220,0.0000,0.4272,-0.2441,1,473,817,230
56031754,9166,-0.0264,-0.0195,1.0220,0.0000,0.4272,-0.3052,1,470,815,230
56036761,9167,-0.0259,-0.0186,1.0234,0.0000,0.3052,-0.2441,1,478,808,230
56041782,9168,-0.0269,-0.0181,1.0234,0.0610,0.1221,-0.0610,1,484,808,230
56046760,9169,-0.0273,-0.0186,1.0229,-0.0610,0.3052,-0.1221,1,483,848,230
56051756,9170,-0.0278,-0.0190,1.0234,0.0610,0.4272,-0.1831,1,493,869,230
56056762,9171,-0.0278,-0.0195,1.0220,0.0610,0.2441,-0.1831,1,490,879,230
56061756,9172,-0.0269,-0.0200,1.0205,0.0610,0.3052,-0.1831,1,464,813,230
56066758,9173,-0.0259,-0.0195,1.0215,0.0610,0.2441,-0.1831,1,488,841,230
56071758,9174,-0.0259,-0.0190,1.0225,0.0610,0.1831,-0.1831,1,473,848,230
56076754,9175,-0.0264,-0.0200,1.0215,0.1221,0.1831,-0.2441,1,481,847,230
56081757,9176,-0.0273,-0.0215,1.0205,0.0000,0.1221,-0.3052,1,489,845,230
56086758,9177,-0.0273,-0.0210,1.0210,0.0000,0.1221,-0.2441,1,472,794,230
56091760,9178,-0.0278,-0.0190,1.0215,0.1221,0.0610,-0.1221,1,493,796,230
56096779,9179,-0.0283,-0.0166,1.0225,0.0610,0.0000,-0.1221,1,466,840,230
56101761,9180,-0.0283,-0.0166,1.0229,0.0000,0.1831,-0.1221,1,466,827,230
56106755,9181,-0.0288,-0.0176,1.0220,0.0000,0.0610,-0.1831,1,483,833,230
56111762,9182,-0.0298,-0.0190,1.0210,0.0610,0.1221,-0.2441,1,480,766,230
56116755,9183,-0.0298,-0.0195,1.0215,0.0000,0.1221,-0.2441,1,465,868,230
56121756,9184,-0.0288,-0.0195,1.0215,0.0610,0.1831,-0.2441,1,465,819,230
56126763,9185,-0.0283,-0.0190,1.0220,-0.0610,0.3052,-0.1831,1,467,869,230
56131757,9186,-0.0273,-0.0186,1.0210,-0.0610,0.2441,-0.2441,1,465,864,230
56136758,9187,-0.0283,-0.0186,1.0200,-0.1221,0.1221,-0.1831,1,474,874,230
56141755,9188,-0.0298,-0.0190,1.0205,0.0000,0.0610,-0.1221,1,479,854,230
56146769,9189,-0.0288,-0.0195,1.0220,0.0000,-0.1221,-0.1221,1,480,805,230
56151759,9190,-0.0273,-0.0205,1.0234,-0.0610,0.2441,-0.2441,1,484,807,230
56156759,9191,-0.0273,-0.0200,1.0239,-0.0610,0.1831,-0.1221,1,492,879,230
56161754,9192,-0.0283,-0.0181,1.0239,-0.0610,0.1221,-0.1831,1,473,873,230
56166756,9193,-0.0283,-0.0176,1.0239,-0.1831,0.1221,-0.3052,1,466,798,230
56171757,9194,-0.0278,-0.0190,1.0229,-0.0610,0.1221,-0.0610,1,492,799,230
56176757,9195,-0.0283,-0.0210,1.0215,-0.1221,0.2441,-0.0610,1,475,845,230
56181756,9196,-0.0283,-0.0205,1.0200,-0.2441,0.1831,-0.1831,1,474,844,230
56186761,9197,-0.0288,-0.0190,1.0195,-0.0610,0.1831,-0.1831,1,482,873,230
56191759,9198,-0.0298,-0.0176,1.0215,-0.0610,0.1221,-0.1221,1,485,852,230
56196755,9199,-0.0298,-0.0181,1.0229,-0.0610,0.3052,-0.1831,1,469,838,230
56201760,9200,-0.0293,-0.0195,1.0229,0.0000,0.3662,-0.1831,1,493,842,230
56206755,9201,-0.0283,-0.0195,1.0220,0.0000,0.3662,-0.1831,1,466,834,230
56211754,9202,-0.0283,-0.0186,1.0215,0.1221,0.3052,-0.3052,1,484,835,230
56216755,9203,-0.0293,-0.0186,1.0220,0.0610,0.3052,-0.2441,1,466,854,230
56221760,9204,-0.0288,-0.0195,1.0220,0.0610,0.3052,-0.1221,1,484,806,230
56226762,9205,-0.0278,-0.0190,1.0220,-0.0610,0.2441,-0.2441,1,465,897,230
56231759,9206,-0.0273,-0.0176,1.0229,-0.1221,0.2441,-0.2441,1,467,954,230
56236760,9207,-0.0264,-0.0181,1.0229,-0.1221,0.2441,-0.1831,1,472,877,230
56241754,9208,-0.0264,-0.0190,1.0215,-0.0610,0.2441,-0.1831,1,474,873,230
56246757,9209,-0.0278,-0.0205,1.0210,0.0000,0.3052,-0.1221,1,465,859,230
56251754,9210,-0.0278,-0.0215,1.0215,-0.0610,0.3052,-0.1831,1,482,804,230
56256762,9211,-0.0269,-0.0205,1.0229,-0.1221,0.3052,-0.2441,1,483,854,230
56261756,9212,-0.0269,-0.0186,1.0234,-0.1831,0.4272,-0.3662,1,484,853,230
56266762,9213,-0.0278,-0.0186,1.0229,-0.1221,0.4272,-0.3052,1,466,879,230
56271762,9214,-0.0273,-0.0195,1.0215,-0.1221,0.5493,-0.2441,1,494,871,230
56276762,9215,-0.0278,-0.0205,1.0210,-0.1221,0.3662,-0.1831,1,468,803,230
56281759,9216,-0.0283,-0.0210,1.0215,-0.1221,0.3662,-0.2441,1,490,856,230
56286754,9217,-0.0283,-0.0210,1.0215,-0.0610,0.3052,-0.2441,1,478,848,230
56291760,9218,-0.0288,-0.0205,1.0215,-0.1221,0.3662,-0.1831,1,492,843,230
56296761,9219,-0.0288,-0.0200,1.0215,0.0000,0.2441,-0.1221,1,473,848,230
56301756,9220,-0.0293,-0.0200,1.0205,0.0610,0.2441,-0.1221,1,480,799,230
56306756,9221,-0.0288,-0.0210,1.0205,0.1221,0.4272,-0.1221,1,493,840,230
56311758,9222,-0.0283,-0.0210,1.0220,0.0000,0.3052,-0.0610,1,493,841,230
56316762,9223,-0.0283,-0.0200,1.0229,-0.0610,0.2441,-0.2441,1,466,822,230
56321760,9224,-0.0288,-0.0186,1.0220,-0.0610,0.3662,-0.2441,1,465,880,230
56326755,9225,-0.0298,-0.0186,1.0210,-0.1221,0.1831,-0.0610,1,482,867,230
56331760,9226,-0.0308,-0.0190,1.0205,-0.0610,0.1221,-0.1831,1,466,896,230
56336763,9227,-0.0303,-0.0190,1.0205,0.0610,0.2441,-0.1831,1,467,933,230
56341755,9228,-0.0288,-0.0195,1.0205,-0.0610,0.3662,-0.1221,1,467,864,230
56346756,9229,-0.0288,-0.0210,1.0195,0.0000,0.3052,-0.1221,1,479,867,230
56351761,9230,-0.0283,-0.0210,1.0200,0.1831,0.3662,-0.0610,1,482,806,230
56356755,9231,-0.0273,-0.0195,1.0210,0.1831,0.2441,-0.1221,1,482,857,230
56361780,9232,-0.0278,-0.0181,1.0215,0.1221,0.1831,-0.1221,1,484,857,230
56366760,9233,-0.0288,-0.0176,1.0220,0.0610,0.3052,-0.2441,1,484,850,230
56371758,9234,-0.0278,-0.0176,1.0225,0.1221,0.2441,-0.1221,1,494,871,230
56376759,9235,-0.0273,-0.0181,1.0220,0.0610,0.3052,-0.0610,1,492,870,230
56381754,9236,-0.0278,-0.0190,1.0210,0.0610,0.3052,-0.1221,1,494,790,230
56386757,9237,-0.0288,-0.0186,1.0205,0.1221,0.4272,-0.0610,1,481,848,230
56391763,9238,-0.0288,-0.0186,1.0210,0.0000,0.5493,0.0000,1,486,844,230
56396759,9239,-0.0278,-0.0195,1.0220,0.1221,0.5493,-0.0610,1,488,755,230
56401754,9240,-0.0283,-0.0195,1.0225,-0.0610,0.5493,0.0000,1,478,847,230
56406755,9241,-0.0293,-0.0186,1.0220,0.0000,0.6104,0.0000,1,488,803,230
56411755,9242,-0.0298,-0.0176,1.0210,0.1221,0.5493,0.0000,1,491,749,230
56416770,9243,-0.0293,-0.0181,1.0210,0.0000,0.4883,0.0610,1,493,794,230
56421758,9244,-0.0278,-0.0190,1.0215,-0.1221,0.4883,0.0610,1,466,817,230
56426757,9245,-0.0273,-0.0190,1.0210,-0.1221,0.5493,-0.0610,1,484,869,230
56431762,9246,-0.0278,-0.0186,1.0195,-0.1221,0.4883,0.0000,1,473,861,230
56436761,9247,-0.0293,-0.0200,1.0186,0.0610,0.5493,-0.0610,1,484,856,230
56441758,9248,-0.0303,-0.0210,1.0190,0.1221,0.6714,0.0000,1,477,897,230
56446761,9249,-0.0303,-0.0205,1.0195,-0.0610,0.4883,0.0000,1,465,810,230
56451760,9250,-0.0288,-0.0190,1.0205,0.0000,0.3662,0.0000,1,467,823,230
56456756,9251,-0.0273,-0.0186,1.0225,0.1221,0.4272,0.0610,1,470,768,230
56461762,9252,-0.0273,-0.0186,1.0229,0.0000,0.5493,0.0610,1,481,852,230
56466776,9253,-0.0278,-0.0190,1.0220,-0.0610,0.6714,-0.1221,1,474,811,230
56471758,9254,-0.0293,-0.0195,1.0215,0.1221,0.5493,0.0000,1,484,852,230
56476755,9255,-0.0293,-0.0200,1.0210,0.0000,0.6104,-0.1221,1,493,826,230
56481755,9256,-0.0283,-0.0200,1.0215,0.0610,0.6714,-0.1831,1,466,743,230
56486756,9257,-0.0278,-0.0195,1.0220,0.0610,0.6104,-0.2441,1,494,871,230
56491760,9258,-0.0288,-0.0181,1.0220,0.1221,0.6714,-0.1221,1,470,855,230
56496755,9259,-0.0293,-0.0176,1.0215,0.1831,0.7324,-0.2441,1,475,838,230
56501762,9260,-0.0293,-0.0181,1.0215,0.0610,0.8545,-0.2441,1,487,849,230
56506758,9261,-0.0298,-0.0186,1.0220,0.0000,1.0376,-0.1831,1,491,841,230
56511760,9262,-0.0293,-0.0195,1.0225,-0.0610,0.9766,-0.1221,1,483,800,230
56516761,9263,-0.0288,-0.0195,1.0229,0.0000,0.9766,-0.2441,1,482,841,230
56521766,9264,-0.0283,-0.0186,1.0220,0.0610,0.9155,-0.3052,1,492,805,230
56526755,9265,-0.0288,-0.0186,1.0210,0.1221,0.7324,-0.1831,1,466,870,230
56531761,9266,-0.0298,-0.0195,1.0205,0.1221,0.7935,-0.1221,1,483,873,230
56536756,9267,-0.0288,-0.0200,1.0200,0.1831,0.5493,-0.1221,1,469,858,230
56541761,9268,-0.0278,-0.0200,1.0205,0.0610,0.6104,-0.0610,1,465,872,230
56546761,9269,-0.0278,-0.0200,1.0215,0.1221,0.7324,-0.1221,1,480,908,230
56551761,9270,-0.0269,-0.0205,1.0210,0.1221,0.6104,0.0000,1,465,860,230
56556758,9271,-0.0269,-0.0210,1.0205,0.0000,0.3662,0.0610,1,473,819,230
56561755,9272,-0.0283,-0.0200,1.0210,0.0610,0.3662,0.0000,1,481,806,230
56566760,9273,-0.0298,-0.0190,1.0210,0.1831,0.4883,0.0000,1,466,807,230
56571786,9274,-0.0303,-0.0195,1.0210,0.1831,0.4272,0.0000,1,481,807,230
56576762,9275,-0.0288,-0.0190,1.0210,0.1831,0.4883,-0.1221,1,483,809,230
56581761,9276,-0.0278,-0.0181,1.0215,0.1221,0.4883,-0.0610,1,466,871,230
56586758,9277,-0.0278,-0.0190,1.0195,0.0610,0.3052,-0.1221,1,466,867,230
56591761,9278,-0.0298,-0.0200,1.0190,0.1221,0.2441,-0.1221,1,494,790,230
56596756,9279,-0.0308,-0.0200,1.0200,0.3052,0.4272,-0.2441,1,483,851,230
56601762,9280,-0.0298,-0.0190,1.0205,0.1831,0.3052,-0.1831,1,475,840,230
56606760,9281,-0.0298,-0.0186,1.0215,0.0610,0.1221,-0.2441,1,480,847,230
56611755,9282,-0.0298,-0.0181,1.0220,-0.0610,0.1221,-0.2441,1,490,862,230
56616761,9283,-0.0293,-0.0181,1.0215,0.0000,0.1831,-0.1831,1,472,840,230
56621756,9284,-0.0288,-0.0190,1.0220,0.1221,0.1221,-0.1221,1,471,799,230
56626777,9285,-0.0288,-0.0205,1.0215,0.0610,0.0000,-0.1221,1,493,840,230
56631755,9286,-0.0288,-0.0215,1.0215,-0.0610,0.0610,-0.1831,1,466,823,230
56636763,9287,-0.0293,-0.0210,1.0220,0.0610,0.0610,-0.1831,1,466,874,230
56641758,9288,-0.0308,-0.0200,1.0215,0.0610,0.1221,-0.2441,1,469,859,230
56646757,9289,-0.0312,-0.0190,1.0200,0.0610,0.1221,-0.2441,1,466,865,230
56651760,9290,-0.0312,-0.0195,1.0195,0.0610,0.0000,-0.1831,1,465,923,230
56656757,9291,-0.0312,-0.0195,1.0205,0.1831,-0.0610,-0.1831,1,466,855,230
56661763,9292,-0.0298,-0.0190,1.0205,0.1831,0.0000,-0.1831,1,472,893,230
56666757,9293,-0.0288,-0.0190,1.0210,0.1831,-0.1221,-0.1221,1,470,814,230
56671754,9294,-0.0288,-0.0195,1.0225,0.1221,-0.0610,-0.3662,1,479,854,230
56676774,9295,-0.0298,-0.0195,1.0234,0.0610,0.1221,-0.1831,1,478,857,230
56681757,9296,-0.0303,-0.0200,1.0225,0.0000,0.0000,-0.1831,1,484,856,230
56686762,9297,-0.0298,-0.0190,1.0210,0.0000,0.0000,-0.4272,1,466,777,230
56691761,9298,-0.0293,-0.0176,1.0195,0.1831,-0.0610,-0.3052,1,466,733,230
56696763,9299,-0.0293,-0.0171,1.0205,0.1221,-0.1221,-0.1831,1,494,872,230
56701756,9300,-0.0293,-0.0176,1.0225,0.0000,-0.0610,-0.1831,1,464,850,230
56706760,9301,-0.0288,-0.0186,1.0234,0.0000,-0.0610,-0.1221,1,480,799,230
56711758,9302,-0.0278,-0.0176,1.0234,-0.0610,-0.1221,-0.2441,1,483,799,230
56716761,9303,-0.0278,-0.0171,1.0234,0.0610,-0.1831,-0.1831,1,487,848,230
56721754,9304,-0.0278,-0.0171,1.0234,0.1221,-0.1221,-0.2441,1,492,850,230
56726759,9305,-0.0269,-0.0181,1.0225,-0.1831,0.0000,-0.2441,1,490,845,230
56731764,9306,-0.0273,-0.0190,1.0210,-0.0610,-0.1831,-0.1221,1,492,800,230
56736757,9307,-0.0288,-0.0200,1.0210,-0.1221,-0.2441,-0.1221,1,466,872,230
56741761,9308,-0.0288,-0.0215,1.0215,-0.1831,-0.3662,-0.1221,1,483,869,230
56746760,9309,-0.0278,-0.0205,1.0225,-0.3662,-0.4883,-0.0610,1,466,866,230
56751757,9310,-0.0288,-0.0200,1.0225,-0.6104,-0.5493,-0.0610,1,484,818,230
56756754,9311,-0.0303,-0.0190,1.0225,-0.8545,-0.6714,0.0000,1,475,901,230
56761759,9312,-0.0312,-0.0181,1.0225,-1.0986,-1.0376,0.0610,1,465,816,230
56766756,9313,-0.0298,-0.0176,1.0225,-1.4648,-1.5869,-0.1831,1,482,885,230
56771756,9314,-0.0264,-0.0195,1.0239,-1.9531,-1.5259,-0.1221,1,470,835,230
56776757,9315,-0.0249,-0.0220,1.0234,-1.6479,-1.0986,0.0000,1,476,862,230
56781760,9316,-0.0259,-0.0234,1.0210,-0.7935,-0.6714,-0.0610,1,475,818,230
56786759,9317,-0.0278,-0.0229,1.0190,-0.8545,-0.4883,-0.1221,1,484,850,230
56791761,9318,-0.0288,-0.0215,1.0190,-0.7324,-0.6714,-0.1221,1,466,872,230
56796755,9319,-0.0283,-0.0205,1.0205,-0.7935,-0.6104,-0.1831,1,466,874,230
56801761,9320,-0.0283,-0.0215,1.0205,-0.5493,-0.1831,-0.1831,1,493,876,230
56806760,9321,-0.0298,-0.0215,1.0215,-0.0610,-0.0610,-0.1831,1,473,835,230
56811759,9322,-0.0308,-0.0200,1.0229,-0.3052,-0.2441,-0.3052,1,483,853,230
56816761,9323,-0.0303,-0.0190,1.0225,-0.6104,-0.3662,-0.2441,1,482,840,230
56821757,9324,-0.0288,-0.0205,1.0215,-0.4883,-0.0610,-0.2441,1,488,845,230
56826761,9325,-0.0278,-0.0220,1.0205,-0.3662,-0.1221,-0.3052,1,478,847,230
56831754,9326,-0.0288,-0.0225,1.0200,0.0000,0.0000,-0.2441,1,481,844,230
56836757,9327,-0.0293,-0.0229,1.0190,0.3052,0.1221,-0.2441,1,493,754,230
56841760,9328,-0.0278,-0.0234,1.0186,0.1831,0.1221,-0.3052,1,466,869,230
56846762,9329,-0.0273,-0.0229,1.0190,0.3052,0.0000,-0.1831,1,483,870,230
56851760,9330,-0.0273,-0.0215,1.0200,0.3662,0.0000,-0.0610,1,465,765,230
56856757,9331,-0.0278,-0.0195,1.0210,0.1831,0.0000,-0.1221,1,484,855,230
56861756,9332,-0.0278,-0.0190,1.0220,0.3662,0.0000,-0.2441,1,476,818,230
56866760,9333,-0.0273,-0.0195,1.0225,0.4272,0.0610,-0.1221,1,482,833,230
56871761,9334,-0.0283,-0.0205,1.0220,0.3662,0.0610,-0.1221,1,482,871,230
56876757,9335,-0.0298,-0.0210,1.0215,0.2441,0.0000,-0.2441,1,466,871,230
56881754,9336,-0.0288,-0.0200,1.0215,0.3052,0.0000,-0.2441,1,475,812,230
56886754,9337,-0.0269,-0.0215,1.0215,0.2441,0.1221,-0.1221,1,479,808,230
56891761,9338,-0.0259,-0.0234,1.0229,0.3052,0.0610,-0.1831,1,483,850,230
56896760,9339,-0.0264,-0.0234,1.0239,0.3052,0.2441,-0.3052,1,492,870,230
56901760,9340,-0.0259,-0.0220,1.0234,0.1831,0.2441,-0.3052,1,465,871,230
56906761,9341,-0.0269,-0.0210,1.0225,0.1831,0.3052,-0.2441,1,494,875,230
56911763,9342,-0.0273,-0.0200,1.0210,0.1831,0.1831,-0.3662,1,477,796,230
56916756,9343,-0.0273,-0.0186,1.0210,0.1221,0.1221,-0.3052,1,485,859,230
56921760,9344,-0.0273,-0.0190,1.0229,0.0610,0.3052,-0.1831,1,488,835,230
56926757,9345,-0.0273,-0.0210,1.0244,0.0000,0.2441,-0.3052,1,472,866,230
56931755,9346,-0.0273,-0.0229,1.0239,-0.0610,0.1221,-0.3052,1,485,801,230
56936756,9347,-0.0278,-0.0229,1.0220,-0.1831,0.2441,-0.3052,1,469,844,230
56941761,9348,-0.0278,-0.0225,1.0210,-0.1831,0.3052,-0.3662,1,493,849,230
56946761,9349,-0.0283,-0.0215,1.0215,-0.1831,0.2441,-0.2441,1,466,873,230
56951755,9350,-0.0293,-0.0205,1.0215,-0.1221,0.2441,-0.1831,1,484,880,230
56956758,9351,-0.0283,-0.0205,1.0215,-0.1831,0.3662,-0.3052,1,467,865,230
56961757,9352,-0.0283,-0.0200,1.0225,-0.2441,0.2441,-0.1221,1,484,818,230
56966755,9353,-0.0298,-0.0200,1.0229,-0.2441,0.1831,-0.1831,1,474,902,230
56971755,9354,-0.0298,-0.0210,1.0239,-0.3662,0.2441,-0.0610,1,481,960,230
56976761,9355,-0.0288,-0.0225,1.0239,-0.2441,0.1831,0.0610,1,482,875,230
56981757,9356,-0.0288,-0.0225,1.0215,-0.2441,0.1221,0.0610,1,480,878,230
56986754,9357,-0.0283,-0.0225,1.0195,-0.1831,0.2441,0.0000,1,467,854,230
56991760,9358,-0.0273,-0.0229,1.0195,0.0000,0.2441,0.1831,1,470,816,230
56996762,9359,-0.0273,-0.0225,1.0215,-0.0610,0.3052,0.1831,1,484,816,230
57001754,9360,-0.0273,-0.0210,1.0215,-0.0610,0.4272,0.0610,1,466,852,230
57006754,9361,-0.0283,-0.0210,1.0215,-0.1831,0.3662,0.1221,1,466,870,230
57011757,9362,-0.0293,-0.0220,1.0215,-0.3052,0.3052,0.1831,1,494,874,230
57016758,9363,-0.0288,-0.0225,1.0210,-0.4272,0.4272,-0.0610,1,480,793,230
57021757,9364,-0.0283,-0.0225,1.0215,-0.4883,0.4272,0.0000,1,478,845,230
57026762,9365,-0.0283,-0.0220,1.0229,-0.4883,0.3052,0.0000,1,488,801,230
57031763,9366,-0.0288,-0.0200,1.0220,-0.5493,0.1831,-0.0610,1,473,799,230
57036756,9367,-0.0293,-0.0195,1.0205,-0.6104,0.0000,-0.0610,1,485,847,230
57041763,9368,-0.0288,-0.0200,1.0200,-0.6714,0.0000,-0.0610,1,476,796,230
57046773,9369,-0.0278,-0.0200,1.0195,-0.6104,-0.0610,-0.1221,1,493,796,230
57051760,9370,-0.0269,-0.0205,1.0200,-0.6104,-0.1221,0.0000,1,494,841,230
57056762,9371,-0.0273,-0.0220,1.0215,-0.6104,-0.1831,0.0000,1,484,810,230
57061754,9372,-0.0273,-0.0229,1.0234,-0.7324,-0.1221,-0.0610,1,468,772,230
57066762,9373,-0.0273,-0.0229,1.0234,-0.7324,-0.1831,-0.0610,1,465,875,230
57071758,9374,-0.0278,-0.0220,1.0225,-0.8545,-0.3662,-0.1221,1,474,907,230
57076761,9375,-0.0278,-0.0215,1.0229,-0.9766,-0.5493,-0.1831,1,481,864,230
57081757,9376,-0.0283,-0.0215,1.0239,-1.1597,-0.7324,-0.1831,1,479,878,230
57086759,9377,-0.0278,-0.0215,1.0244,-1.2817,-0.6714,-0.3052,1,466,835,230
57091762,9378,-0.0259,-0.0225,1.0244,-1.2207,-0.6714,-0.4272,1,465,860,230
57096762,9379,-0.0249,-0.0220,1.0239,-1.4038,-0.8545,-0.4272,1,465,859,230
57101760,9380,-0.0264,-0.0205,1.0229,-1.7700,-0.9155,-0.5493,1,484,862,230
57106755,9381,-0.0278,-0.0200,1.0229,-2.0752,-1.2207,-0.4883,1,465,861,230
57111760,9382,-0.0283,-0.0210,1.0220,-2.3804,-1.6479,-0.3662,1,466,878,230
57116759,9383,-0.0278,-0.0225,1.0215,-2.5024,-1.8311,-0.3052,1,494,878,230
57121760,9384,-0.0264,-0.0244,1.0220,-2.1973,-1.6479,-0.3662,1,493,798,230
57126755,9385,-0.0264,-0.0239,1.0225,-2.1362,-1.8311,-0.4272,1,492,834,230
57131760,9386,-0.0288,-0.0220,1.0239,-2.6855,-2.6245,-0.6714,1,483,852,230
57136758,9387,-0.0308,-0.0200,1.0254,-3.9062,-3.7842,-1.0376,1,484,860,230
57141761,9388,-0.0293,-0.0200,1.0259,-5.0049,-4.6997,-1.1597,1,476,845,230
57146758,9389,-0.0264,-0.0234,1.0234,-5.5542,-5.1270,-1.2817,1,481,847,230
57151754,9390,-0.0225,-0.0273,1.0210,-5.3711,-5.0659,-1.2207,1,482,853,230
57156757,9391,-0.0195,-0.0303,1.0190,-4.5776,-4.3945,-1.0986,1,493,848,230
57161760,9392,-0.0190,-0.0308,1.0186,-3.4180,-3.8452,-1.2207,1,484,883,230
57166757,9393,-0.0205,-0.0293,1.0190,-2.8687,-3.6011,-1.4648,1,466,869,230
57171760,9394,-0.0229,-0.0278,1.0205,-2.9907,-4.0283,-1.5869,1,484,820,230
57176762,9395,-0.0254,-0.0259,1.0225,-3.6621,-4.6997,-1.5869,1,469,913,230
57181759,9396,-0.0244,-0.0259,1.0249,-4.3945,-5.5542,-1.5259,1,471,961,230
57186762,9397,-0.0229,-0.0283,1.0259,-4.5776,-6.1035,-2.0752,1,477,874,230
57191762,9398,-0.0244,-0.0298,1.0269,-4.2725,-6.6528,-2.1973,1,477,884,230
57196761,9399,-0.0283,-0.0303,1.0322,-4.3945,-7.9346,-1.9531,1,482,864,230
57201758,9400,-0.0303,-0.0303,1.0356,-4.2114,-10.0708,-1.8311,1,465,868,230
57206757,9401,-0.0293,-0.0303,1.0361,-3.4180,-12.2681,-1.4648,1,483,871,230
57211755,9402,-0.0283,-0.0298,1.0381,-3.3569,-14.5874,-1.3428,1,466,879,230
57216759,9403,-0.0244,-0.0298,1.0352,-3.7842,-16.4795,-1.3428,1,466,902,230
57221758,9404,-0.0176,-0.0317,1.0278,-3.9673,-17.0288,-1.3428,1,474,889,230
57226761,9405,-0.0132,-0.0322,1.0220,-4.0894,-16.9067,-1.5259,1,493,893,230
57231757,9406,-0.0112,-0.0303,1.0205,-4.1504,-16.5405,-1.5869,1,491,833,230
57236761,9407,-0.0107,-0.0308,1.0210,-4.5166,-16.1133,-1.4648,1,481,861,230
57241756,9408,-0.0107,-0.0337,1.0215,-4.5776,-16.2354,-1.5259,1,485,861,230
57246760,9409,-0.0107,-0.0352,1.0244,-4.2725,-16.8457,-1.7090,1,474,883,230
57251762,9410,-0.0078,-0.0352,1.0249,-3.6011,-17.0898,-1.8311,1,491,862,230
57256758,9411,-0.0054,-0.0361,1.0264,-2.6855,-17.6392,-1.8311,1,472,854,230
57261757,9412,-0.0054,-0.0366,1.0273,-2.3193,-18.7988,-1.8921,1,493,857,230
57266754,9413,-0.0034,-0.0347,1.0244,-1.8311,-19.1650,-2.0142,1,483,891,230
57271758,9414,-0.0015,-0.0327,1.0244,-1.4038,-18.9819,-2.0142,1,465,886,230
57276757,9415,-0.0010,-0.0337,1.0293,-1.5869,-19.4092,-1.9531,1,484,876,230
57281757,9416,-0.0029,-0.0342,1.0347,-2.1362,-20.5078,-2.2583,1,465,910,230
57286757,9417,-0.0059,-0.0312,1.0396,-3.2349,-22.7051,-2.8076,1,469,954,230
57291755,9418,-0.0049,-0.0308,1.0410,-4.5166,-25.3296,-2.8076,1,470,903,230
57296761,9419,0.0020,-0.0347,1.0356,-5.0659,-27.0996,-2.8687,1,476,883,230
57301760,9420,0.0078,-0.0371,1.0303,-4.9438,-27.9541,-3.1738,1,476,893,230
57306758,9421,0.0112,-0.0376,1.0273,-5.3711,-28.8086,-3.4180,1,477,879,230
57311782,9422,0.0142,-0.0376,1.0249,-5.8594,-28.8086,-3.8452,1,483,878,230
57316756,9423,0.0195,-0.0371,1.0205,-6.5308,-28.9917,-4.3945,1,483,881,230
57321754,9424,0.0220,-0.0366,1.0215,-6.6528,-28.9917,-4.3335,1,492,901,230
57326756,9425,0.0229,-0.0381,1.0249,-6.8359,-29.2969,-4.3335,1,467,899,230
57331757,9426,0.0249,-0.0405,1.0264,-6.8359,-29.4800,-4.3945,1,494,900,230
57336763,9427,0.0288,-0.0415,1.0234,-6.5918,-29.2358,-4.2114,1,483,830,230
57341760,9428,0.0322,-0.0415,1.0190,-6.3477,-28.3813,-4.0894,1,486,889,230
57346762,9429,0.0342,-0.0405,1.0176,-5.9204,-27.6489,-3.9062,1,473,872,230
57351755,9430,0.0342,-0.0400,1.0229,-5.8594,-27.4048,-3.7231,1,478,872,230
57356757,9431,0.0342,-0.0410,1.0293,-5.9814,-27.8931,-3.5400,1,484,870,230
57361755,9432,0.0352,-0.0430,1.0303,-5.8594,-28.7476,-3.2349,1,490,867,230
57366776,9433,0.0371,-0.0449,1.0273,-6.1646,-29.6020,-3.3569,1,494,864,230
57371758,9434,0.0400,-0.0454,1.0264,-6.4087,-30.2124,-3.2959,1,466,875,230
57376759,9435,0.0410,-0.0464,1.0273,-6.2866,-31.1279,-3.4790,1,484,893,230
57381755,9436,0.0430,-0.0474,1.0278,-5.4932,-31.6162,-3.7231,1,473,904,230
57386761,9437,0.0449,-0.0483,1.0288,-4.5776,-32.0435,-3.6011,1,466,845,230
57391761,9438,0.0474,-0.0503,1.0283,-3.8452,-32.6538,-3.6011,1,478,920,230
57396756,9439,0.0522,-0.0508,1.0273,-3.1738,-33.3862,-3.9673,1,481,955,230
57401757,9440,0.0562,-0.0493,1.0269,-2.8076,-33.8745,-4.3335,1,467,895,230
57406759,9441,0.0601,-0.0483,1.0254,-2.6245,-34.5459,-4.6997,1,468,894,230
57411758,9442,0.0649,-0.0493,1.0205,-2.1973,-34.9731,-4.8218,1,471,875,230
57416762,9443,0.0693,-0.0493,1.0151,-1.4038,-35.0342,-4.6387,1,470,879,230
57421775,9444,0.0713,-0.0469,1.0132,-0.6714,-34.8511,-4.3335,1,483,876,230
57426756,9445,0.0732,-0.0454,1.0146,0.0610,-34.6069,-3.5400,1,466,881,230
57431759,9446,0.0752,-0.0459,1.0210,0.6104,-34.9121,-2.9907,1,494,892,230
57436763,9447,0.0786,-0.0474,1.0254,0.5493,-35.1562,-3.0518,1,484,884,230
57441759,9448,0.0840,-0.0483,1.0225,1.0376,-35.0342,-2.8687,1,464,853,230
57446761,9449,0.0894,-0.0469,1.0151,1.2207,-34.4849,-2.8076,1,483,810,230
57451754,9450,0.0938,-0.0454,1.0093,0.9155,-33.8135,-2.4414,1,489,860,230
57456758,9451,0.0967,-0.0449,1.0098,0.6104,-33.0811,-2.4414,1,475,888,230
57461758,9452,0.0991,-0.0464,1.0112,0.7324,-31.9214,-2.3804,1,480,853,230
57466758,9453,0.1011,-0.0479,1.0127,1.2817,-30.7007,-2.3193,1,484,868,230
57471757,9454,0.1021,-0.0493,1.0151,1.4648,-29.5410,-2.4414,1,488,861,230
57476758,9455,0.1040,-0.0493,1.0151,1.5259,-28.6865,-2.4414,1,466,874,230
57481758,9456,0.1040,-0.0459,1.0176,1.8311,-28.0762,-2.3804,1,483,904,230
57486758,9457,0.1035,-0.0430,1.0229,1.5869,-28.5034,-2.5024,1,465,886,230
57491754,9458,0.1050,-0.0439,1.0239,1.1597,-29.7241,-2.6855,1,484,891,230
57496762,9459,0.1094,-0.0444,1.0220,1.1597,-30.7007,-2.8076,1,470,902,230
57501761,9460,0.1108,-0.0430,1.0244,0.8545,-31.8603,-2.5024,1,467,954,230
57506763,9461,0.1113,-0.0420,1.0269,0.1831,-33.4473,-2.4414,1,472,888,230
57511757,9462,0.1147,-0.0430,1.0259,0.0000,-34.7900,-2.3804,1,474,886,230
57516759,9463,0.1201,-0.0439,1.0220,0.2441,-35.4614,-2.4414,1,466,824,230
57521759,9464,0.1245,-0.0435,1.0181,0.1221,-35.8887,-2.5024,1,465,881,230
57526770,9465,0.1270,-0.0420,1.0161,-0.1221,-36.2549,-2.6245,1,483,868,230
57531757,9466,0.1309,-0.0425,1.0142,-0.4883,-36.3770,-2.5635,1,466,891,230
57536754,9467,0.1357,-0.0435,1.0112,-0.8545,-36.0718,-2.5635,1,494,886,230
57541761,9468,0.1392,-0.0435,1.0083,-0.8545,-35.7056,-2.3804,1,491,890,230
57546754,9469,0.1401,-0.0415,1.0103,-1.0986,-35.5225,-2.3193,1,464,810,230
57551762,9470,0.1426,-0.0405,1.0151,-1.5869,-36.0107,-2.0752,1,486,818,230
57556758,9471,0.1460,-0.0430,1.0171,-2.3193,-37.3535,-2.2583,1,476,864,230
57561754,9472,0.1499,-0.0454,1.0142,-2.8076,-37.8418,-2.3804,1,488,868,230
57566756,9473,0.1548,-0.0459,1.0107,-2.6855,-37.2314,-2.3193,1,476,892,230
57571754,9474,0.1606,-0.0488,1.0063,-2.6855,-36.4380,-2.4414,1,483,869,230
57576761,9475,0.1655,-0.0488,1.0024,-2.0752,-35.3394,-2.7466,1,487,872,230
57581762,9476,0.1650,-0.0439,1.0059,-1.5869,-34.8511,-2.2583,1,493,866,230
57586756,9477,0.1650,-0.0439,1.0093,-1.5869,-35.2783,-1.5869,1,493,866,230
57591762,9478,0.1704,-0.0479,1.0039,-0.9766,-34.3628,-1.7700,1,465,898,230
57596758,9479,0.1763,-0.0483,0.9976,-0.1221,-32.7148,-1.8921,1,484,877,230
57601762,9480,0.1777,-0.0464,0.9985,0.0610,-31.7383,-1.7700,1,465,886,230
57606755,9481,0.1792,-0.0449,1.0049,0.0610,-31.6162,-1.5869,1,476,922,230
57611755,9482,0.1802,-0.0464,1.0093,-0.1831,-31.9824,-1.8311,1,465,885,230
57616760,9483,0.1797,-0.0479,1.0122,-0.5493,-32.7148,-2.3193,1,467,883,230
57621756,9484,0.1782,-0.0483,1.0156,-1.0376,-33.9355,-2.5635,1,466,851,230
57626759,9485,0.1787,-0.0469,1.0186,-1.2817,-35.8276,-2.5635,1,472,880,230
