t_us, seq, ax, ay, az, gx, gy, gz, valid, t_imu_us, t_serial_us, missed
124629611,7201,-0.0562,-0.1060,1.0156,0.0610,0.5493,-0.4883,1,465,902,232
124634617,7202,-0.0557,-0.1050,1.0146,0.0610,0.6104,-0.3662,1,469,866,232
124639610,7203,-0.0562,-0.1040,1.0146,-0.0610,0.6714,-0.4272,1,465,871,232
124644635,7204,-0.0562,-0.1050,1.0161,-0.1831,0.6104,-0.4272,1,470,874,232
124649608,7205,-0.0562,-0.1050,1.0181,-0.1221,0.7935,-0.3662,1,472,876,232
124654616,7206,-0.0562,-0.1055,1.0186,-0.1831,0.8545,-0.4272,1,502,852,232
124659612,7207,-0.0552,-0.1074,1.0171,-0.1831,0.9766,-0.3662,1,484,857,232
124664613,7208,-0.0547,-0.1089,1.0166,-0.1831,0.9766,-0.4272,1,511,857,232
124669613,7209,-0.0562,-0.1084,1.0166,-0.1221,0.9766,-0.3662,1,476,857,232
124674613,7210,-0.0566,-0.1084,1.0171,-0.1831,1.0986,-0.4272,1,488,845,232
124679610,7211,-0.0562,-0.1084,1.0171,-0.1831,0.9766,-0.4272,1,475,852,232
124684608,7212,-0.0562,-0.1050,1.0156,-0.1831,0.7935,-0.2441,1,476,872,232
124689609,7213,-0.0566,-0.1021,1.0151,-0.3662,0.9155,-0.3052,1,490,851,232
124694609,7214,-0.0571,-0.1035,1.0151,-0.3662,0.8545,-0.2441,1,472,850,232
124699612,7215,-0.0576,-0.1050,1.0161,-0.2441,0.9766,-0.2441,1,493,857,232
124704611,7216,-0.0576,-0.1055,1.0171,-0.3662,0.8545,-0.1831,1,465,882,232
124709616,7217,-0.0557,-0.1055,1.0181,-0.4272,0.6714,-0.2441,1,465,878,232
124714616,7218,-0.0537,-0.1021,1.0176,-0.3052,0.9155,-0.1831,1,466,874,232
124719608,7219,-0.0557,-0.1006,1.0156,-0.4883,0.9766,-0.1831,1,466,875,232
124724614,7220,-0.0571,-0.1050,1.0137,-0.3662,0.9155,-0.1221,1,466,872,232
124729611,7221,-0.0566,-0.1074,1.0142,-0.3052,1.0376,-0.1221,1,484,868,232
124734608,7222,-0.0566,-0.1055,1.0156,-0.3662,0.9155,-0.1831,1,465,901,232
124739611,7223,-0.0586,-0.1045,1.0142,-0.3052,0.9766,-0.1831,1,482,924,232
124744608,7224,-0.0605,-0.1050,1.0122,-0.3052,0.6714,-0.1831,1,482,860,232
124749611,7225,-0.0586,-0.1055,1.0132,-0.2441,0.6104,-0.2441,1,467,873,232
124754614,7226,-0.0562,-0.1040,1.0142,-0.3662,0.7324,-0.3662,1,468,856,232
124759614,7227,-0.0571,-0.1035,1.0151,-0.3662,0.6714,-0.2441,1,495,860,232
124764612,7228,-0.0591,-0.1060,1.0146,-0.3662,0.7324,-0.2441,1,483,865,232
124769614,7229,-0.0605,-0.1074,1.0137,-0.1831,0.5493,-0.3052,1,511,860,232
124774613,7230,-0.0601,-0.1074,1.0132,-0.1221,0.4272,-0.3662,1,477,873,232
124779611,7231,-0.0571,-0.1079,1.0156,-0.1831,0.4272,-0.3662,1,486,854,232
124784617,7232,-0.0542,-0.1074,1.0190,-0.1831,0.4272,-0.4272,1,488,858,232
124789615,7233,-0.0542,-0.1064,1.0195,-0.1221,0.6104,-0.4272,1,491,853,232
124794608,7234,-0.0557,-0.1069,1.0176,-0.1221,0.6714,-0.3662,1,478,845,232
124799615,7235,-0.0571,-0.1074,1.0161,0.0610,0.6714,-0.2441,1,469,846,232
124804609,7236,-0.0576,-0.1060,1.0156,0.1221,0.4883,-0.1831,1,493,852,232
124809612,7237,-0.0576,-0.1040,1.0171,0.0610,0.3662,-0.1831,1,466,876,232
124814609,7238,-0.0571,-0.1040,1.0195,0.0000,0.2441,-0.1831,1,466,877,232
124819613,7239,-0.0566,-0.1055,1.0186,0.0000,0.2441,-0.2441,1,465,837,232
124824610,7240,-0.0562,-0.1069,1.0171,0.0000,0.4272,-0.2441,1,466,864,232
124829614,7241,-0.0571,-0.1064,1.0161,-0.0610,0.3052,-0.2441,1,466,820,232
124834611,7242,-0.0586,-0.1055,1.0156,0.0610,0.3052,-0.3052,1,484,868,232
124839609,7243,-0.0596,-0.1040,1.0156,0.1221,0.1831,-0.3052,1,465,896,232
124844610,7244,-0.0596,-0.1025,1.0181,0.0610,0.1831,-0.3052,1,480,932,232
124849613,7245,-0.0581,-0.1055,1.0195,0.0000,0.1831,-0.2441,1,483,860,232
124854614,7246,-0.0562,-0.1084,1.0186,0.1221,0.3662,-0.3662,1,466,817,232
124859616,7247,-0.0552,-0.1069,1.0171,0.2441,0.1831,-0.2441,1,466,854,232
124864609,7248,-0.0542,-0.1045,1.0176,0.2441,0.2441,-0.3662,1,466,860,232
124869614,7249,-0.0552,-0.1045,1.0181,0.1831,0.3662,-0.3662,1,483,859,232
124874615,7250,-0.0571,-0.1074,1.0171,0.2441,0.3052,-0.1831,1,511,856,232
124879610,7251,-0.0581,-0.1084,1.0161,0.4272,0.2441,-0.3662,1,471,801,232
124884612,7252,-0.0576,-0.1069,1.0171,0.4883,0.1221,-0.3662,1,484,864,232
124889615,7253,-0.0581,-0.1064,1.0171,0.2441,0.1831,-0.3052,1,479,847,232
124894612,7254,-0.0610,-0.1064,1.0142,0.3052,0.0610,-0.3662,1,486,849,232
124899609,7255,-0.0615,-0.1074,1.0137,0.4883,-0.3052,-0.3052,1,475,844,232
124904608,7256,-0.0591,-0.1069,1.0146,0.4883,-0.3052,-0.3052,1,487,845,232
124909616,7257,-0.0566,-0.1050,1.0166,0.4272,-0.1831,-0.3052,1,493,841,232
124914613,7258,-0.0557,-0.1025,1.0176,0.3052,-0.1831,-0.3662,1,466,877,232
124919617,7259,-0.0557,-0.1021,1.0181,0.2441,-0.0610,-0.1221,1,465,879,232
124924620,7260,-0.0566,-0.1035,1.0176,0.3662,0.0000,-0.1831,1,466,867,232
124929608,7261,-0.0566,-0.1055,1.0176,0.1831,0.0000,-0.1221,1,466,837,232
124934616,7262,-0.0571,-0.1064,1.0176,0.1831,0.1221,-0.1221,1,484,829,232
124939614,7263,-0.0576,-0.1045,1.0176,0.2441,0.0000,-0.1831,1,466,863,232
124944611,7264,-0.0576,-0.1045,1.0176,0.1831,-0.1221,-0.1831,1,484,832,232
124949610,7265,-0.0571,-0.1069,1.0171,0.0610,-0.0610,-0.1831,1,466,905,232
124954608,7266,-0.0586,-0.1060,1.0166,0.1831,-0.0610,-0.0610,1,468,865,232
124959608,7267,-0.0601,-0.1040,1.0161,0.2441,0.0000,-0.1831,1,472,873,232
124964619,7268,-0.0586,-0.1060,1.0146,0.1831,-0.3662,-0.3662,1,477,811,232
124969614,7269,-0.0557,-0.1074,1.0171,0.3052,-0.2441,-0.3052,1,468,862,232
124974611,7270,-0.0547,-0.1074,1.0195,0.3052,-0.1831,-0.1221,1,496,851,232
124979610,7271,-0.0552,-0.1064,1.0190,0.3052,-0.1221,-0.3662,1,487,854,232
124984611,7272,-0.0557,-0.1045,1.0186,0.3052,-0.1221,-0.1831,1,511,852,232
124989612,7273,-0.0566,-0.1030,1.0171,0.1221,0.0000,-0.1831,1,464,850,232
124994614,7274,-0.0591,-0.1064,1.0142,-0.0610,-0.1221,-0.1831,1,487,800,232
124999613,7275,-0.0586,-0.1099,1.0151,0.4272,-0.3662,-0.0610,1,492,844,232
125004617,7276,-0.0547,-0.1055,1.0171,0.6104,-0.1831,-0.1831,1,480,870,232
125009615,7277,-0.0552,-0.1016,1.0156,0.1221,0.1221,-0.4883,1,481,843,232
125014612,7278,-0.0586,-0.1050,1.0122,-0.0610,-0.1831,-0.4272,1,488,840,232
125019610,7279,-0.0601,-0.1099,1.0122,0.0000,-0.3052,-0.3052,1,484,850,232
125024608,7280,-0.0610,-0.1099,1.0127,0.3052,-0.3662,-0.2441,1,493,823,232
125029616,7281,-0.0610,-0.1064,1.0132,0.3662,-0.4883,-0.2441,1,466,876,232
125034615,7282,-0.0586,-0.1064,1.0156,0.3662,-0.6714,-0.2441,1,465,882,232
125039608,7283,-0.0562,-0.1069,1.0176,0.4883,-0.4883,-0.3052,1,466,882,232
125044616,7284,-0.0557,-0.1045,1.0176,0.4272,-0.5493,-0.3052,1,484,872,232
125049609,7285,-0.0557,-0.1035,1.0161,0.3662,-0.4883,-0.1831,1,466,872,232
125054608,7286,-0.0571,-0.1040,1.0156,0.4883,-0.6104,-0.1221,1,484,872,232
125059610,7287,-0.0566,-0.1050,1.0166,0.5493,-0.3662,-0.2441,1,465,902,232
125064609,7288,-0.0552,-0.1055,1.0181,0.3662,-0.4272,-0.1221,1,473,927,232
125069610,7289,-0.0552,-0.1060,1.0190,0.3662,-0.3662,-0.0610,1,475,862,232
125074609,7290,-0.0547,-0.1079,1.0176,0.4272,-0.3662,-0.1221,1,475,867,232
125079608,7291,-0.0542,-0.1084,1.0166,0.4272,-0.3662,-0.1221,1,477,874,232
125084612,7292,-0.0557,-0.1074,1.0171,0.4883,-0.3052,-0.1831,1,502,857,232
125089610,7293,-0.0576,-0.1055,1.0171,0.7324,-0.3662,-0.0610,1,495,884,232
125094614,7294,-0.0571,-0.1040,1.0171,0.7324,-0.4883,-0.1831,1,489,856,232
125099614,7295,-0.0571,-0.1045,1.0166,0.6104,-0.3662,-0.0610,1,494,798,232
125104613,7296,-0.0586,-0.1074,1.0151,0.5493,-0.4272,-0.1221,1,480,855,232
125109615,7297,-0.0591,-0.1079,1.0146,0.8545,-0.4272,0.0000,1,485,851,232
125114609,7298,-0.0581,-0.1045,1.0142,1.1597,-0.4883,0.0610,1,487,804,232
125119617,7299,-0.0566,-0.1035,1.0156,0.9155,-0.6714,0.0000,1,488,844,232
125124608,7300,-0.0562,-0.1079,1.0166,0.9155,-0.6714,0.0000,1,485,808,232
125129609,7301,-0.0586,-0.1094,1.0142,1.2207,-0.6104,0.0610,1,475,804,232
125134616,7302,-0.0605,-0.1050,1.0122,1.2207,-0.7324,-0.1831,1,493,841,232
125139608,7303,-0.0581,-0.1030,1.0146,1.0986,-0.9155,-0.1221,1,493,854,232
125144610,7304,-0.0562,-0.1040,1.0171,1.1597,-0.7935,-0.1221,1,466,880,232
125149615,7305,-0.0557,-0.1050,1.0166,1.1597,-0.7935,-0.2441,1,466,869,232
125154615,7306,-0.0552,-0.1055,1.0161,1.0986,-0.8545,-0.3052,1,466,880,232
125159609,7307,-0.0542,-0.1035,1.0161,1.0986,-0.7324,-0.2441,1,483,875,232
125164613,7308,-0.0552,-0.1021,1.0166,1.0376,-0.7935,-0.2441,1,465,884,232
125169615,7309,-0.0557,-0.1045,1.0176,1.0986,-0.7935,-0.2441,1,484,864,232
125174609,7310,-0.0557,-0.1045,1.0181,1.3428,-0.7935,-0.2441,1,466,877,232
125179608,7311,-0.0557,-0.1006,1.0186,1.1597,-0.6714,-0.2441,1,469,930,232
125184609,7312,-0.0542,-0.0996,1.0181,0.8545,-0.6714,-0.3052,1,469,863,232
125189616,7313,-0.0537,-0.1001,1.0171,-0.1221,-0.1831,0.0610,1,471,858,232
125194625,7314,-0.0532,-0.1025,1.0171,-0.3052,0.0000,-0.0610,1,466,865,232
125199613,7315,-0.0527,-0.1040,1.0195,0.6714,-0.2441,0.0000,1,477,837,232
125204609,7316,-0.0532,-0.1035,1.0205,0.6714,-0.0610,-0.1831,1,509,814,232
125209611,7317,-0.0532,-0.1016,1.0195,0.6104,-0.1221,-0.3662,1,491,859,232
125214612,7318,-0.0532,-0.1016,1.0200,-0.0610,0.1831,-0.2441,1,511,854,232
125219609,7319,-0.0537,-0.1025,1.0190,0.4272,0.1831,-0.1831,1,483,801,232
125224609,7320,-0.0552,-0.1050,1.0166,0.1831,0.2441,-0.2441,1,481,867,232
125229608,7321,-0.0552,-0.1069,1.0161,0.6104,-0.0610,-0.3052,1,488,854,232
125234614,7322,-0.0547,-0.1055,1.0156,0.6714,0.0000,-0.3052,1,475,863,232
125239608,7323,-0.0557,-0.1030,1.0151,0.4883,0.1221,-0.3052,1,491,796,232
125244616,7324,-0.0557,-0.1025,1.0151,0.8545,-0.1831,-0.2441,1,483,871,232
125249612,7325,-0.0547,-0.1045,1.0151,0.7324,-0.2441,-0.1831,1,493,854,232
125254613,7326,-0.0537,-0.1060,1.0146,0.6104,-0.0610,-0.1831,1,493,851,232
125259614,7327,-0.0537,-0.1035,1.0171,0.6714,-0.0610,-0.1831,1,466,877,232
125264615,7328,-0.0532,-0.1025,1.0190,0.8545,-0.1221,-0.3662,1,466,877,232
125269614,7329,-0.0532,-0.1040,1.0186,0.9155,-0.0610,-0.1831,1,466,878,232
125274614,7330,-0.0552,-0.1050,1.0151,0.9766,0.0000,-0.3052,1,483,879,232
125279608,7331,-0.0557,-0.1045,1.0156,1.0986,0.0610,-0.2441,1,466,767,232
125284611,7332,-0.0557,-0.1040,1.0161,1.1597,-0.0610,-0.1831,1,484,867,232
125289614,7333,-0.0562,-0.1030,1.0171,1.2207,-0.1221,-0.0610,1,466,906,232
125294611,7334,-0.0562,-0.1011,1.0181,1.0986,-0.0610,-0.2441,1,479,930,232
125299616,7335,-0.0557,-0.1001,1.0181,1.0376,-0.1221,-0.1831,1,480,860,232
125304616,7336,-0.0552,-0.1021,1.0181,1.1597,-0.1831,-0.1221,1,479,856,232
125309613,7337,-0.0557,-0.1030,1.0166,1.0376,-0.2441,-0.1221,1,477,867,232
125314609,7338,-0.0571,-0.1025,1.0146,0.9155,-0.2441,-0.2441,1,477,857,232
125319614,7339,-0.0571,-0.1021,1.0151,0.9766,-0.4272,-0.1221,1,482,869,232
125324614,7340,-0.0552,-0.1025,1.0166,0.9155,-0.4272,-0.1831,1,491,854,232
125329615,7341,-0.0537,-0.1025,1.0156,0.7324,-0.1831,-0.1831,1,493,824,232
125334611,7342,-0.0532,-0.1030,1.0132,0.6714,-0.2441,-0.2441,1,490,837,232
125339610,7343,-0.0547,-0.1021,1.0132,0.6714,-0.1221,-0.3052,1,478,852,232
125344613,7344,-0.0542,-0.0996,1.0161,0.6104,-0.1831,-0.3662,1,485,835,232
125349616,7345,-0.0518,-0.0986,1.0210,0.4883,0.1221,-0.3052,1,488,850,232
125354615,7346,-0.0513,-0.0996,1.0215,0.4272,0.3662,-0.3662,1,479,839,232
125359611,7347,-0.0532,-0.1001,1.0186,0.2441,0.3662,-0.3662,1,484,880,232
125364614,7348,-0.0547,-0.0996,1.0161,0.0000,0.4272,-0.3662,1,493,848,232
125369615,7349,-0.0542,-0.0996,1.0156,0.0610,0.4883,-0.1221,1,466,862,232
125374612,7350,-0.0527,-0.1016,1.0166,0.0610,0.3052,0.0000,1,465,871,232
125379631,7351,-0.0513,-0.1030,1.0195,0.0610,0.4272,0.0000,1,466,826,232
125384609,7352,-0.0498,-0.1021,1.0210,-0.2441,0.6714,0.0000,1,465,831,232
125389617,7353,-0.0518,-0.1006,1.0195,-0.3052,0.7935,-0.0610,1,484,817,232
125394609,7354,-0.0547,-0.1021,1.0176,-0.1221,0.7935,-0.0610,1,467,856,232
125399615,7355,-0.0552,-0.1035,1.0156,-0.0610,0.7935,0.1221,1,465,864,232
125404615,7356,-0.0547,-0.1030,1.0146,-0.3662,0.9766,0.0000,1,473,900,232
125409612,7357,-0.0542,-0.1016,1.0161,-0.6104,1.1597,-0.1831,1,475,829,232
125414608,7358,-0.0542,-0.1025,1.0171,-0.6104,1.0986,0.0000,1,482,872,232
125419609,7359,-0.0552,-0.1040,1.0166,-0.4883,1.0376,0.0000,1,466,807,232
125424615,7360,-0.0552,-0.1030,1.0156,-0.5493,0.8545,-0.1221,1,465,810,232
125429611,7361,-0.0552,-0.1001,1.0156,-0.4883,1.1597,-0.1221,1,475,855,232
125434610,7362,-0.0566,-0.0981,1.0166,-0.7935,1.0986,-0.3662,1,483,848,232
125439612,7363,-0.0562,-0.0996,1.0181,-0.7935,0.9766,-0.3662,1,511,863,232
125444616,7364,-0.0542,-0.1011,1.0190,-0.8545,1.0376,-0.4883,1,464,844,232
125449613,7365,-0.0532,-0.1011,1.0205,-0.8545,1.1597,-0.3662,1,490,823,232
125454608,7366,-0.0522,-0.1011,1.0210,-0.9766,1.1597,-0.2441,1,492,846,232
125459608,7367,-0.0522,-0.1016,1.0200,-0.9766,1.0986,-0.1831,1,483,844,232
125464608,7368,-0.0537,-0.1011,1.0181,-1.0986,1.1597,-0.3662,1,492,848,232
125469613,7369,-0.0552,-0.1011,1.0176,-1.0376,1.0986,-0.3052,1,476,877,232
125474616,7370,-0.0562,-0.1021,1.0176,-0.9155,1.0986,-0.1221,1,493,840,232
125479608,7371,-0.0566,-0.1035,1.0176,-0.8545,1.0376,0.0610,1,466,843,232
125484614,7372,-0.0562,-0.1035,1.0171,-0.7935,1.0376,0.0000,1,465,905,232
125489622,7373,-0.0552,-0.1025,1.0176,-0.6714,1.0986,0.0610,1,466,826,232
125494613,7374,-0.0557,-0.1035,1.0186,-0.6104,1.0376,0.0000,1,466,875,232
125499610,7375,-0.0566,-0.1025,1.0190,-0.6104,1.0986,-0.1831,1,484,815,232
125504614,7376,-0.0566,-0.1021,1.0181,-0.5493,1.0376,-0.1831,1,470,870,232
125509608,7377,-0.0562,-0.1035,1.0156,-0.4272,0.8545,-0.1831,1,484,865,232
125514616,7378,-0.0557,-0.1045,1.0142,-0.2441,0.9766,-0.3052,1,482,909,232
125519610,7379,-0.0552,-0.1035,1.0137,-0.1221,0.8545,-0.3662,1,476,861,232
125524610,7380,-0.0542,-0.1016,1.0161,-0.1831,0.7324,-0.4272,1,482,873,232
125529613,7381,-0.0537,-0.1016,1.0195,-0.1221,0.7935,-0.4883,1,466,877,232
125534613,7382,-0.0542,-0.1025,1.0195,0.0000,0.9766,-0.5493,1,465,854,232
125539612,7383,-0.0562,-0.1025,1.0171,0.1221,0.9155,-0.4883,1,509,812,232
125544611,7384,-0.0581,-0.1016,1.0156,0.1831,0.8545,-0.5493,1,483,852,232
125549612,7385,-0.0581,-0.1021,1.0151,0.2441,0.7324,-0.6714,1,512,860,232
125554608,7386,-0.0566,-0.1035,1.0166,0.1221,0.5493,-0.4883,1,466,803,232
125559608,7387,-0.0557,-0.1035,1.0176,0.1221,0.6714,-0.4883,1,485,862,232
125564613,7388,-0.0557,-0.1025,1.0176,0.1221,0.6714,-0.4883,1,491,844,232
125569613,7389,-0.0571,-0.1021,1.0176,0.0610,0.6104,-0.4272,1,492,865,232
125574616,7390,-0.0566,-0.1030,1.0181,0.0610,0.4272,-0.3662,1,477,843,232
125579611,7391,-0.0557,-0.1040,1.0176,0.0610,0.4883,-0.3052,1,480,877,232
125584615,7392,-0.0547,-0.1040,1.0181,0.1221,0.3662,-0.2441,1,492,840,232
125589615,7393,-0.0542,-0.1050,1.0181,0.1831,0.4272,-0.2441,1,493,844,232
125594608,7394,-0.0547,-0.1060,1.0181,0.4272,0.4272,-0.1831,1,466,877,232
125599620,7395,-0.0557,-0.1060,1.0181,0.5493,0.3662,-0.1221,1,466,877,232
125604613,7396,-0.0566,-0.1055,1.0181,0.6714,0.3052,-0.2441,1,466,873,232
125609609,7397,-0.0562,-0.1045,1.0186,0.8545,0.3052,-0.3052,1,483,874,232
125614614,7398,-0.0547,-0.1035,1.0186,1.0376,0.3662,-0.3662,1,469,854,232
125619611,7399,-0.0542,-0.1035,1.0186,1.0376,0.5493,-0.3662,1,484,867,232
125624609,7400,-0.0591,-0.1001,1.0146,1.2207,0.4883,-0.2441,1,476,906,232
125629612,7401,-0.0625,-0.0967,1.0103,0.8545,-0.0610,-0.3052,1,481,862,232
125634616,7402,-0.0581,-0.1006,1.0142,0.7935,-0.3052,-0.4272,1,481,892,232
125639622,7403,-0.0557,-0.1050,1.0181,0.9155,0.1221,-0.3052,1,479,869,232
125644614,7404,-0.0562,-0.1055,1.0190,0.7935,-0.2441,-0.1221,1,475,848,232
125649613,7405,-0.0547,-0.1035,1.0186,0.8545,-0.1221,-0.2441,1,509,854,232
125654613,7406,-0.0566,-0.1011,1.0156,0.7935,0.0610,-0.2441,1,493,853,232
125659610,7407,-0.0586,-0.1006,1.0137,0.5493,-0.2441,-0.1831,1,494,856,232
125664614,7408,-0.0566,-0.1025,1.0146,0.6104,-0.1831,-0.2441,1,466,872,232
125669613,7409,-0.0547,-0.1021,1.0156,0.6714,-0.2441,-0.1221,1,491,866,232
125674615,7410,-0.0537,-0.1006,1.0166,0.4883,-0.1831,-0.1221,1,478,873,232
125679616,7411,-0.0522,-0.1016,1.0195,0.4272,-0.2441,-0.2441,1,481,846,232
125684613,7412,-0.0522,-0.1021,1.0205,0.4272,0.0000,-0.1221,1,488,882,232
125689611,7413,-0.0542,-0.1021,1.0181,0.3662,-0.0610,-0.0610,1,490,799,232
125694608,7414,-0.0566,-0.1035,1.0151,0.2441,-0.0610,-0.0610,1,490,839,232
125699612,7415,-0.0552,-0.1045,1.0161,0.3052,-0.0610,-0.0610,1,466,851,232
125704613,7416,-0.0527,-0.1040,1.0176,0.3662,-0.1221,0.0000,1,466,868,232
125709631,7417,-0.0527,-0.1035,1.0166,0.3662,-0.0610,0.1831,1,465,831,232
125714612,7418,-0.0552,-0.1021,1.0156,0.3662,-0.0610,0.1221,1,466,882,232
125719608,7419,-0.0576,-0.1006,1.0142,0.4272,-0.1831,0.0000,1,465,870,232
125724612,7420,-0.0581,-0.1011,1.0137,0.3052,-0.2441,0.0610,1,484,822,232
125729613,7421,-0.0562,-0.1021,1.0146,0.4883,-0.2441,0.0000,1,465,869,232
125734612,7422,-0.0542,-0.1016,1.0171,0.4883,-0.2441,0.0610,1,466,820,232
125739609,7423,-0.0542,-0.1011,1.0181,0.5493,-0.1831,0.0610,1,470,857,232
125744614,7424,-0.0557,-0.0996,1.0161,0.5493,-0.1831,0.0000,1,481,861,232
125749611,7425,-0.0571,-0.0991,1.0146,0.4272,-0.1831,0.0610,1,479,817,232
125754609,7426,-0.0566,-0.1011,1.0166,0.4883,-0.2441,0.1221,1,483,862,232
125759615,7427,-0.0557,-0.1025,1.0190,0.4883,-0.1221,0.0000,1,492,856,232
125764610,7428,-0.0547,-0.1016,1.0200,0.4272,-0.1221,0.0000,1,493,733,232
125769610,7429,-0.0547,-0.1006,1.0171,0.4883,-0.0610,0.0610,1,464,794,232
125774608,7430,-0.0581,-0.1016,1.0132,0.6104,-0.1221,0.0610,1,481,836,232
125779611,7431,-0.0596,-0.1016,1.0122,0.6714,-0.3052,0.0610,1,489,840,232
125784611,7432,-0.0576,-0.1001,1.0151,0.5493,-0.3052,0.0610,1,473,840,232
125789616,7433,-0.0552,-0.1001,1.0181,0.6104,-0.4272,0.1221,1,473,843,232
125794617,7434,-0.0537,-0.1006,1.0205,0.4883,-0.3052,0.0610,1,476,833,232
125799615,7435,-0.0542,-0.1016,1.0205,0.7324,-0.2441,0.1831,1,481,841,232
125804617,7436,-0.0566,-0.1011,1.0171,0.6714,-0.3662,0.1221,1,494,849,232
125809608,7437,-0.0576,-0.1006,1.0161,0.6104,-0.3662,0.0610,1,466,900,232
125814630,7438,-0.0566,-0.1011,1.0176,0.7324,-0.4272,0.1221,1,466,875,232
125819616,7439,-0.0542,-0.1040,1.0190,0.9155,-0.4883,0.1831,1,466,875,232
125824612,7440,-0.0518,-0.1030,1.0176,0.2441,-0.2441,0.4883,1,484,878,232
125829611,7441,-0.0552,-0.0996,1.0161,-0.7324,0.2441,0.1831,1,479,866,232
125834615,7442,-0.0566,-0.1016,1.0176,0.6714,-0.3052,0.0610,1,466,804,232
125839615,7443,-0.0557,-0.1035,1.0176,1.0986,-0.0610,0.0610,1,482,899,232
125844613,7444,-0.0566,-0.1025,1.0151,1.0986,-0.1831,0.1221,1,465,864,232
125849614,7445,-0.0566,-0.1011,1.0137,0.7935,-0.1221,-0.0610,1,467,908,232
125854617,7446,-0.0566,-0.1001,1.0156,0.6714,-0.1221,0.0000,1,465,868,232
125859608,7447,-0.0562,-0.1011,1.0171,0.8545,-0.3662,0.0000,1,465,807,232
125864613,7448,-0.0557,-0.1025,1.0161,1.1597,-0.4272,-0.1221,1,497,803,232
125869608,7449,-0.0542,-0.1021,1.0166,1.4038,-0.3662,-0.1831,1,483,859,232
125874608,7450,-0.0542,-0.0996,1.0161,1.4648,-0.4883,-0.0610,1,494,859,232
125879610,7451,-0.0562,-0.0996,1.0171,1.0986,-0.4272,-0.1831,1,479,872,232
125884614,7452,-0.0566,-0.1006,1.0181,1.1597,-0.3662,-0.1831,1,488,859,232
125889614,7453,-0.0557,-0.1016,1.0171,1.1597,-0.3662,-0.1831,1,481,878,232
125894615,7454,-0.0557,-0.1011,1.0156,1.4648,-0.3052,-0.1831,1,490,846,232
125899608,7455,-0.0562,-0.0991,1.0151,0.9766,-0.1831,-0.3662,1,473,847,232
125904608,7456,-0.0552,-0.0977,1.0166,1.0986,-0.2441,-0.4883,1,486,851,232
125909611,7457,-0.0527,-0.0977,1.0176,0.9155,-0.0610,-0.4883,1,493,849,232
125914612,7458,-0.0518,-0.0981,1.0176,0.7935,0.0610,-0.6104,1,466,873,232
125919611,7459,-0.0522,-0.0972,1.0161,0.7935,0.0000,-0.4883,1,466,870,232
125924609,7460,-0.0527,-0.0957,1.0156,0.2441,0.2441,-0.4883,1,466,831,232
125929614,7461,-0.0527,-0.0986,1.0171,0.1831,0.1831,-0.5493,1,483,882,232
125934613,7462,-0.0542,-0.1006,1.0171,0.2441,0.2441,-0.4272,1,466,881,232
125939611,7463,-0.0547,-0.0981,1.0166,0.2441,0.1221,-0.4272,1,484,863,232
125944609,7464,-0.0542,-0.0967,1.0171,0.2441,0.1831,-0.4883,1,465,876,232
125949611,7465,-0.0537,-0.0991,1.0171,0.4883,0.1221,-0.6714,1,474,930,232
125954617,7466,-0.0532,-0.1001,1.0176,0.6104,0.0000,-0.5493,1,474,860,232
125959609,7467,-0.0513,-0.0986,1.0200,0.5493,0.0000,-0.6104,1,472,823,232
125964623,7468,-0.0503,-0.0977,1.0220,0.6104,0.0000,-0.5493,1,481,808,232
125969617,7469,-0.0527,-0.0962,1.0210,0.7324,0.0610,-0.4272,1,469,805,232
125974609,7470,-0.0532,-0.0957,1.0190,0.7324,0.0610,-0.5493,1,495,885,232
125979617,7471,-0.0518,-0.0991,1.0190,0.7324,0.1221,-0.5493,1,493,860,232
125984612,7472,-0.0513,-0.1016,1.0200,0.9155,0.1831,-0.4272,1,493,857,232
125989613,7473,-0.0537,-0.1006,1.0195,0.8545,0.1831,-0.4883,1,466,819,232
125994612,7474,-0.0557,-0.0996,1.0176,0.7324,0.1831,-0.3662,1,486,847,232
125999609,7475,-0.0566,-0.0986,1.0161,0.5493,0.2441,-0.3052,1,492,853,232
126004612,7476,-0.0571,-0.0986,1.0156,0.6714,0.2441,-0.4883,1,485,873,232
126009613,7477,-0.0552,-0.0986,1.0156,0.7935,0.0610,-0.3052,1,488,852,232
126014613,7478,-0.0537,-0.0986,1.0156,0.7935,0.0610,-0.2441,1,469,844,232
126019610,7479,-0.0542,-0.0981,1.0156,0.6714,0.0610,-0.3052,1,493,851,232
126024609,7480,-0.0552,-0.0981,1.0151,0.5493,0.0000,-0.2441,1,466,843,232
126029609,7481,-0.0562,-0.0977,1.0146,0.8545,-0.1831,-0.0610,1,466,834,232
126034613,7482,-0.0562,-0.0972,1.0151,0.5493,-0.1221,-0.1221,1,466,874,232
126039610,7483,-0.0566,-0.0977,1.0166,0.3662,-0.0610,-0.1221,1,483,873,232
126044612,7484,-0.0562,-0.0977,1.0166,0.1221,-0.1221,-0.1221,1,466,863,232
126049616,7485,-0.0547,-0.0977,1.0166,0.1221,-0.1221,-0.1831,1,484,856,232
126054611,7486,-0.0527,-0.0972,1.0171,0.0610,-0.0610,0.0000,1,465,898,232
126059611,7487,-0.0522,-0.0972,1.0181,0.0610,-0.1221,0.1221,1,482,814,232
126064615,7488,-0.0532,-0.0972,1.0181,0.2441,-0.0610,-0.0610,1,466,891,232
126069613,7489,-0.0552,-0.0981,1.0161,0.2441,-0.0610,-0.0610,1,467,871,232
126074611,7490,-0.0562,-0.0986,1.0161,0.2441,-0.0610,0.0000,1,472,859,232
126079613,7491,-0.0542,-0.0977,1.0176,0.2441,-0.2441,0.1221,1,474,814,232
126084614,7492,-0.0537,-0.0986,1.0190,0.1831,0.0610,0.0000,1,483,854,232
126089616,7493,-0.0537,-0.0996,1.0181,0.1221,0.0610,0.0610,1,512,814,232
126094616,7494,-0.0537,-0.0986,1.0171,0.1221,0.1221,0.0000,1,494,763,232
126099614,7495,-0.0537,-0.0977,1.0166,0.0610,0.1831,0.0000,1,490,795,232
126104612,7496,-0.0532,-0.0991,1.0166,0.0610,0.1831,0.0000,1,480,802,232
126109616,7497,-0.0532,-0.1011,1.0171,0.1221,0.1831,-0.1221,1,491,805,232
126114616,7498,-0.0532,-0.1016,1.0176,-0.0610,0.2441,-0.0610,1,479,839,232
126119614,7499,-0.0532,-0.0996,1.0176,-0.0610,0.3662,-0.1221,1,490,845,232
126124613,7500,-0.0537,-0.0972,1.0181,0.1221,0.1831,0.0000,1,488,846,232
126129609,7501,-0.0532,-0.0952,1.0166,-0.5493,0.4883,-0.0610,1,466,797,232
126134616,7502,-0.0532,-0.0991,1.0190,-0.9155,0.8545,-0.2441,1,465,880,232
126139614,7503,-0.0547,-0.1021,1.0205,1.6479,-0.0610,-0.1221,1,466,882,232
126144614,7504,-0.0547,-0.0986,1.0151,0.3662,0.1221,0.2441,1,483,872,232
126149614,7505,-0.0532,-0.0957,1.0142,-0.6714,0.7935,-0.8545,1,465,866,232
126154609,7506,-0.0532,-0.0957,1.0171,0.0000,0.8545,-1.0376,1,484,864,232
126159615,7507,-0.0552,-0.0962,1.0176,0.3052,0.2441,0.1221,1,473,817,232
126164612,7508,-0.0547,-0.0967,1.0161,0.1831,0.3052,0.2441,1,472,858,232
126169608,7509,-0.0527,-0.0977,1.0161,-0.3052,0.5493,0.3052,1,480,873,232
126174615,7510,-0.0522,-0.0972,1.0166,-0.1221,0.6714,0.0610,1,469,871,232
126179608,7511,-0.0522,-0.0986,1.0186,0.0000,0.7324,-0.5493,1,465,853,232
126184608,7512,-0.0527,-0.1006,1.0200,-0.0610,0.9155,-0.9155,1,497,817,232
126189612,7513,-0.0532,-0.0991,1.0190,0.1221,0.9766,-0.9766,1,491,856,232
126194608,7514,-0.0547,-0.0957,1.0181,0.0000,0.9766,-0.6714,1,489,852,232
126199609,7515,-0.0537,-0.0942,1.0190,-0.1221,0.6104,-0.2441,1,464,795,232
126204615,7516,-0.0513,-0.0957,1.0200,-0.2441,0.6104,-0.1831,1,485,847,232
126209609,7517,-0.0508,-0.0977,1.0200,-0.5493,0.9155,-0.1831,1,481,848,232
126214616,7518,-0.0527,-0.0981,1.0190,-0.6104,1.0376,-0.1831,1,474,847,232
126219613,7519,-0.0557,-0.0986,1.0166,-0.3662,0.6714,-0.2441,1,473,848,232
126224608,7520,-0.0566,-0.0996,1.0161,-0.2441,0.5493,-0.1831,1,491,854,232
126229610,7521,-0.0552,-0.1001,1.0176,-0.1831,0.3052,-0.2441,1,476,858,232
126234613,7522,-0.0537,-0.0981,1.0186,-0.0610,0.4272,-0.1831,1,493,841,232
126239609,7523,-0.0542,-0.0972,1.0181,-0.0610,0.4883,-0.2441,1,466,881,232
126244625,7524,-0.0537,-0.0991,1.0171,0.0610,0.4883,-0.3052,1,466,870,232
126249611,7525,-0.0532,-0.0991,1.0176,-0.0610,0.5493,-0.3662,1,465,870,232
126254611,7526,-0.0552,-0.0962,1.0176,-0.1221,0.6104,-0.4272,1,465,881,232
126259614,7527,-0.0581,-0.0962,1.0142,-0.2441,0.6714,-0.3662,1,479,856,232
126264610,7528,-0.0591,-0.0981,1.0117,-0.1221,0.3662,-0.1831,1,466,799,232
126269611,7529,-0.0557,-0.0991,1.0156,-0.1831,0.1831,-0.2441,1,465,919,232
126274612,7530,-0.0518,-0.0991,1.0200,0.0000,0.4272,-0.2441,1,465,873,232
126279613,7531,-0.0518,-0.0991,1.0210,-0.0610,0.5493,-0.3052,1,482,831,232
126284617,7532,-0.0542,-0.0991,1.0190,0.0000,0.5493,-0.4272,1,466,869,232
126289641,7533,-0.0562,-0.0986,1.0166,0.1221,0.3662,-0.4272,1,482,843,232
126294614,7534,-0.0562,-0.0977,1.0161,0.1221,0.4272,-0.3662,1,466,859,232
126299610,7535,-0.0542,-0.0977,1.0186,0.1221,0.3662,-0.2441,1,508,857,232
126304610,7536,-0.0527,-0.0977,1.0205,0.0610,0.4272,-0.3052,1,494,852,232
126309611,7537,-0.0527,-0.0981,1.0190,-0.1831,0.4883,-0.3662,1,464,853,232
126314614,7538,-0.0527,-0.0986,1.0161,-0.0610,0.6104,-0.3052,1,490,863,232
126319608,7539,-0.0537,-0.0972,1.0166,0.0610,0.6104,-0.3052,1,491,845,232
126324609,7540,-0.0542,-0.0967,1.0195,-0.2441,0.6104,-0.4272,1,476,841,232
126329610,7541,-0.0522,-0.0986,1.0200,-0.1221,0.7324,-0.3662,1,481,848,232
126334614,7542,-0.0527,-0.0996,1.0186,-0.0610,0.7324,-0.3052,1,485,879,232
126339614,7543,-0.0542,-0.0991,1.0176,-0.1221,0.7324,-0.2441,1,485,847,232
126344614,7544,-0.0537,-0.1001,1.0190,-0.1221,0.7324,-0.3052,1,493,847,232
126349612,7545,-0.0537,-0.0996,1.0200,-0.1831,0.7324,-0.3662,1,466,898,232
126354633,7546,-0.0532,-0.0986,1.0181,-0.1221,0.7324,-0.3052,1,466,884,232
126359616,7547,-0.0537,-0.0996,1.0171,0.0000,0.7324,-0.1831,1,466,873,232
126364614,7548,-0.0566,-0.1001,1.0161,0.0000,0.7935,-0.3662,1,483,832,232
126369612,7549,-0.0586,-0.1006,1.0142,-0.0610,0.6104,-0.4272,1,469,743,232
126374615,7550,-0.0571,-0.1001,1.0161,0.0610,0.4883,-0.2441,1,484,813,232
126379611,7551,-0.0547,-0.0977,1.0181,-0.1221,0.5493,-0.2441,1,472,901,232
126384616,7552,-0.0552,-0.0967,1.0166,-0.1221,0.6714,-0.2441,1,481,861,232
126389611,7553,-0.0576,-0.0967,1.0151,-0.1831,0.4883,-0.1831,1,479,871,232
126394616,7554,-0.0591,-0.0972,1.0151,-0.4272,0.5493,-0.1831,1,465,880,232
126399643,7555,-0.0581,-0.0977,1.0156,-0.5493,0.4883,-0.1831,1,466,860,232
126404617,7556,-0.0547,-0.0986,1.0166,-0.4883,0.4272,-0.2441,1,482,862,232
126409615,7557,-0.0522,-0.0986,1.0171,-0.4272,0.5493,-0.1221,1,483,860,232
126414608,7558,-0.0532,-0.0957,1.0166,-0.4883,0.6714,-0.1831,1,494,856,232
126419609,7559,-0.0552,-0.0938,1.0161,-0.6104,0.5493,-0.1831,1,473,777,232
126424613,7560,-0.0552,-0.0967,1.0166,-0.6104,0.5493,-0.1221,1,473,846,232
126429616,7561,-0.0542,-0.1001,1.0176,-0.4883,0.5493,0.0000,1,477,844,232
126434613,7562,-0.0552,-0.0996,1.0176,-0.4883,0.5493,-0.0610,1,485,796,232
126439616,7563,-0.0571,-0.0977,1.0161,-0.6714,0.6714,-0.0610,1,475,845,232
126444613,7564,-0.0566,-0.0986,1.0156,-0.7324,0.5493,-0.0610,1,478,847,232
126449610,7565,-0.0552,-0.1016,1.0181,-0.6104,0.4883,-0.0610,1,492,854,232
126454611,7566,-0.0542,-0.1016,1.0190,-0.6104,0.4883,0.0000,1,466,864,232
126459614,7567,-0.0537,-0.0991,1.0186,-0.6714,0.7324,-0.1221,1,466,823,232
126464611,7568,-0.0547,-0.0986,1.0176,-0.5493,0.6714,-0.0610,1,466,877,232
126469612,7569,-0.0557,-0.1001,1.0181,-0.4883,0.6714,-0.0610,1,483,873,232
126474609,7570,-0.0566,-0.0996,1.0181,-0.4272,0.7324,0.0000,1,466,852,232
126479611,7571,-0.0571,-0.0986,1.0176,-0.3662,0.7324,-0.0610,1,484,832,232
126484612,7572,-0.0566,-0.0996,1.0176,-0.3662,0.7324,-0.1221,1,467,908,232
126489608,7573,-0.0557,-0.1001,1.0186,-0.2441,0.7324,-0.1221,1,471,869,232
126494613,7574,-0.0547,-0.1011,1.0190,-0.1831,0.5493,-0.1221,1,477,896,232
126499617,7575,-0.0532,-0.1006,1.0186,-0.2441,0.6714,0.0610,1,475,871,232
126504635,7576,-0.0542,-0.0991,1.0166,-0.1831,0.7324,0.0000,1,475,854,232
126509610,7577,-0.0571,-0.0981,1.0156,-0.2441,0.7324,-0.1221,1,482,816,232
126514613,7578,-0.0576,-0.0991,1.0166,-0.3662,0.6714,-0.1221,1,484,861,232
126519610,7579,-0.0557,-0.0996,1.0171,-0.2441,0.6714,-0.1221,1,512,859,232
126524616,7580,-0.0542,-0.0996,1.0171,-0.1221,0.8545,-0.0610,1,470,797,232
126529608,7581,-0.0542,-0.1016,1.0181,-0.3052,0.6714,-0.0610,1,487,849,232
126534616,7582,-0.0547,-0.1030,1.0181,-0.1831,0.7324,-0.0610,1,482,835,232
126539614,7583,-0.0566,-0.1006,1.0171,-0.3662,0.7935,-0.1221,1,485,845,232
126544611,7584,-0.0576,-0.0996,1.0166,-0.5493,0.7935,-0.1831,1,474,843,232
126549617,7585,-0.0576,-0.1006,1.0171,-0.4883,0.7935,-0.1221,1,487,854,232
126554612,7586,-0.0576,-0.1006,1.0156,-0.3052,0.7324,-0.1221,1,493,838,232
126559616,7587,-0.0576,-0.1016,1.0137,-0.4272,0.6714,-0.1221,1,493,844,232
126564617,7588,-0.0586,-0.1016,1.0117,-0.2441,0.5493,-0.1221,1,466,873,232
126569611,7589,-0.0581,-0.1016,1.0142,-0.2441,0.3052,-0.2441,1,466,877,232
126574609,7590,-0.0557,-0.1021,1.0186,-0.2441,0.3662,-0.1831,1,483,876,232
126579612,7591,-0.0571,-0.1001,1.0186,-0.1221,0.6104,-0.1831,1,465,866,232
126584614,7592,-0.0581,-0.0981,1.0181,-0.1831,0.4272,-0.2441,1,484,859,232
126589617,7593,-0.0557,-0.0986,1.0176,-0.2441,0.2441,-0.2441,1,469,908,232
126594616,7594,-0.0552,-0.1001,1.0156,0.0000,0.4272,-0.4272,1,472,873,232
126599608,7595,-0.0557,-0.1021,1.0156,0.0610,0.3052,-0.3662,1,479,826,232
126604615,7596,-0.0547,-0.1025,1.0171,0.1831,0.1831,-0.3662,1,469,868,232
126609610,7597,-0.0542,-0.1021,1.0190,0.1221,0.1221,-0.3052,1,467,861,232
126614610,7598,-0.0542,-0.1021,1.0200,0.1831,0.3662,-0.1831,1,498,844,232
126619612,7599,-0.0562,-0.1006,1.0186,0.3052,0.3662,-0.3052,1,483,856,232
126624609,7600,-0.0576,-0.0996,1.0166,0.2441,0.1221,-0.2441,1,494,864,232
126629611,7601,-0.0581,-0.0991,1.0161,0.1221,0.1831,-0.2441,1,464,815,232
126634609,7602,-0.0576,-0.0996,1.0166,0.1831,0.1221,-0.2441,1,488,863,232
126639608,7603,-0.0562,-0.1011,1.0176,0.1221,0.1831,-0.3052,1,480,853,232
126644609,7604,-0.0552,-0.1030,1.0186,0.1221,0.2441,-0.3052,1,490,838,232
126649614,7605,-0.0537,-0.1025,1.0186,0.0000,0.3052,-0.1831,1,481,870,232
126654611,7606,-0.0552,-0.1001,1.0166,0.0000,0.4883,-0.2441,1,484,802,232
126659611,7607,-0.0571,-0.0991,1.0137,-0.0610,0.2441,-0.3052,1,492,798,232
126664615,7608,-0.0566,-0.1001,1.0132,0.0610,0.1221,-0.3052,1,465,875,232
126669613,7609,-0.0557,-0.1006,1.0137,0.1831,0.1831,-0.3052,1,466,864,232
126674610,7610,-0.0562,-0.1006,1.0146,0.1221,0.2441,-0.3052,1,483,872,232
126679617,7611,-0.0552,-0.1006,1.0161,0.0610,0.1831,-0.2441,1,465,859,232
126684608,7612,-0.0542,-0.1001,1.0166,0.0610,0.2441,-0.2441,1,484,865,232
126689612,7613,-0.0542,-0.0991,1.0176,0.1831,0.1831,-0.4272,1,465,901,232
126694614,7614,-0.0537,-0.0991,1.0190,0.0610,0.1831,-0.4272,1,469,870,232
126699614,7615,-0.0537,-0.1006,1.0190,0.1221,0.1831,-0.3052,1,473,876,232
126704616,7616,-0.0547,-0.1011,1.0186,0.1831,0.0000,-0.4272,1,479,824,232
126709614,7617,-0.0557,-0.0996,1.0176,0.1831,0.0610,-0.3052,1,466,809,232
126714613,7618,-0.0566,-0.0962,1.0181,0.1221,0.1221,-0.2441,1,467,883,232
126719613,7619,-0.0571,-0.0962,1.0186,0.0610,0.3662,-0.3662,1,484,850,232
126724611,7620,-0.0571,-0.0986,1.0186,0.1221,0.1831,-0.2441,1,494,875,232
126729610,7621,-0.0566,-0.0986,1.0176,0.1831,0.0000,-0.2441,1,465,813,232
126734614,7622,-0.0571,-0.0986,1.0171,0.1831,0.0000,-0.1221,1,487,838,232
126739609,7623,-0.0576,-0.0991,1.0176,0.0610,0.0000,-0.2441,1,492,800,232
126744615,7624,-0.0566,-0.1006,1.0181,0.1831,0.0000,-0.1831,1,488,804,232
126749615,7625,-0.0557,-0.1001,1.0171,0.3052,0.1221,-0.1221,1,471,801,232
126754616,7626,-0.0566,-0.1006,1.0156,0.1221,0.0610,0.0000,1,481,829,232
126759614,7627,-0.0571,-0.1016,1.0146,0.1221,0.0000,-0.1831,1,492,797,232
126764608,7628,-0.0562,-0.1006,1.0151,0.1831,0.0000,-0.2441,1,465,830,232
126769614,7629,-0.0547,-0.0991,1.0176,0.0610,0.0000,-0.3052,1,466,832,232
126774611,7630,-0.0547,-0.0986,1.0186,0.0000,0.0610,-0.2441,1,483,824,232
126779613,7631,-0.0552,-0.0986,1.0181,0.0610,0.2441,-0.2441,1,465,819,232
126784616,7632,-0.0566,-0.0981,1.0171,0.0610,0.2441,-0.2441,1,484,864,232
126789613,7633,-0.0566,-0.0991,1.0166,0.0610,0.1221,-0.1831,1,469,907,232
126794613,7634,-0.0552,-0.0991,1.0151,0.1221,0.0610,-0.1221,1,479,867,232
126799608,7635,-0.0542,-0.1001,1.0156,-0.0610,0.1221,-0.3052,1,483,895,232
126804610,7636,-0.0547,-0.1011,1.0166,-0.0610,-0.0610,-0.1831,1,474,861,232
126809611,7637,-0.0562,-0.0996,1.0166,0.0000,0.0610,-0.0610,1,478,854,232
126814610,7638,-0.0576,-0.0981,1.0166,-0.0610,0.0610,-0.1831,1,505,809,232
126819611,7639,-0.0566,-0.0981,1.0181,-0.1221,-0.0610,-0.1221,1,465,860,232
126824616,7640,-0.0552,-0.0996,1.0195,-0.0610,0.0610,-0.1221,1,493,868,232
126829609,7641,-0.0552,-0.1001,1.0195,-0.0610,-0.0610,-0.1831,1,466,823,232
126834613,7642,-0.0547,-0.1001,1.0186,0.0610,0.0610,-0.2441,1,473,872,232
126839609,7643,-0.0532,-0.0996,1.0181,-0.0610,0.0610,-0.2441,1,477,838,232
126844614,7644,-0.0527,-0.0996,1.0171,-0.0610,0.1221,-0.1221,1,488,867,232
126849611,7645,-0.0532,-0.1011,1.0161,-0.0610,0.2441,-0.1221,1,492,840,232
126854610,7646,-0.0542,-0.1011,1.0166,-0.0610,0.3052,-0.1221,1,479,846,232
126859612,7647,-0.0552,-0.1006,1.0161,-0.1831,0.2441,-0.1831,1,493,837,232
126864612,7648,-0.0562,-0.0996,1.0151,-0.0610,0.3052,-0.1221,1,466,907,232
126869612,7649,-0.0571,-0.0986,1.0156,-0.0610,0.3662,-0.1831,1,466,871,232
126874608,7650,-0.0581,-0.0977,1.0156,-0.1221,0.1831,-0.3662,1,465,882,232
126879614,7651,-0.0586,-0.0977,1.0156,-0.1831,0.1831,-0.3662,1,466,877,232
126884608,7652,-0.0566,-0.0981,1.0176,-0.0610,0.1831,-0.3052,1,484,869,232
126889610,7653,-0.0542,-0.0986,1.0190,-0.0610,0.3052,-0.1831,1,465,902,232
126894613,7654,-0.0532,-0.0986,1.0200,-0.1221,0.3052,-0.3052,1,483,932,232
126899612,7655,-0.0537,-0.0986,1.0195,-0.1831,0.5493,-0.1221,1,482,858,232
126904611,7656,-0.0562,-0.0986,1.0176,-0.3052,0.4883,-0.2441,1,469,873,232
126909626,7657,-0.0581,-0.0981,1.0156,-0.2441,0.3052,-0.2441,1,476,855,232
126914612,7658,-0.0586,-0.0986,1.0151,-0.1831,0.4272,-0.1831,1,466,863,232
126919613,7659,-0.0571,-0.1006,1.0156,-0.1831,0.3052,-0.1831,1,500,864,232
126924613,7660,-0.0557,-0.1011,1.0166,-0.1831,0.1221,-0.1831,1,481,857,232
126929612,7661,-0.0557,-0.1006,1.0176,-0.0610,0.0610,-0.0610,1,494,876,232
126934615,7662,-0.0566,-0.1001,1.0171,-0.0610,0.0610,-0.1831,1,471,848,232
126939613,7663,-0.0576,-0.0996,1.0161,0.0000,0.0610,-0.1221,1,476,869,232
126944610,7664,-0.0571,-0.1011,1.0166,-0.1221,-0.0610,-0.1831,1,487,822,232
126949612,7665,-0.0537,-0.1035,1.0186,0.0000,0.2441,-0.1221,1,475,847,232
126954616,7666,-0.0547,-0.1006,1.0176,0.0000,0.3052,-0.2441,1,483,803,232
126959610,7667,-0.0562,-0.0991,1.0166,0.0000,0.3052,-0.2441,1,484,795,232
126964609,7668,-0.0566,-0.1001,1.0156,-0.0610,0.2441,-0.3052,1,493,801,232
126969616,7669,-0.0562,-0.0996,1.0156,-0.0610,0.2441,-0.3052,1,466,870,232
126974608,7670,-0.0566,-0.0991,1.0151,0.0610,0.1831,-0.3662,1,466,876,232
126979611,7671,-0.0566,-0.1001,1.0156,0.0000,0.0610,-0.3052,1,484,881,232
126984614,7672,-0.0566,-0.0996,1.0171,0.0610,0.1831,-0.3052,1,466,812,232
126989614,7673,-0.0566,-0.0981,1.0181,0.0000,0.1221,-0.3052,1,485,861,232
126994617,7674,-0.0557,-0.0986,1.0176,0.0000,0.0610,-0.2441,1,466,813,232
126999614,7675,-0.0547,-0.0996,1.0176,0.0000,0.1831,-0.3052,1,466,827,232
127004609,7676,-0.0537,-0.1011,1.0171,0.0000,0.1221,-0.2441,1,474,826,232
127009608,7677,-0.0542,-0.1006,1.0156,-0.0610,0.1831,-0.1831,1,466,806,232
127014608,7678,-0.0557,-0.0996,1.0137,0.0000,0.1831,-0.1831,1,471,856,232
127019609,7679,-0.0566,-0.1006,1.0132,0.0610,0.0610,-0.3052,1,468,815,232
127024613,7680,-0.0562,-0.1025,1.0146,0.0000,0.0000,-0.4272,1,484,849,232
127029614,7681,-0.0542,-0.1025,1.0166,0.0000,0.0000,-0.4272,1,511,693,232
127034609,7682,-0.0532,-0.1011,1.0171,-0.0610,0.0000,-0.3662,1,494,760,232
127039609,7683,-0.0542,-0.1011,1.0176,-0.1221,0.1221,-0.3662,1,488,827,232
127044616,7684,-0.0557,-0.1016,1.0176,-0.0610,0.1221,-0.4883,1,474,839,232
127049610,7685,-0.0562,-0.1016,1.0176,0.0610,0.0610,-0.4272,1,481,838,232
127054608,7686,-0.0566,-0.1006,1.0176,0.1221,-0.0610,-0.3662,1,476,869,232
127059609,7687,-0.0562,-0.1001,1.0176,0.3052,-0.0610,-0.3662,1,490,843,232
127064614,7688,-0.0557,-0.1006,1.0181,0.2441,-0.0610,-0.4272,1,486,838,232
127069608,7689,-0.0552,-0.1011,1.0181,0.3662,-0.0610,-0.3662,1,493,844,232
127074615,7690,-0.0552,-0.1016,1.0176,0.5493,-0.1221,-0.3052,1,466,870,232
127079613,7691,-0.0547,-0.1006,1.0181,0.3662,-0.0610,-0.3052,1,466,869,232
127084612,7692,-0.0542,-0.0996,1.0181,0.0610,0.0000,-0.3052,1,483,896,232
127089611,7693,-0.0552,-0.1011,1.0181,0.1831,0.0610,-0.3662,1,469,744,232
127094611,7694,-0.0562,-0.1011,1.0176,0.1831,0.0000,-0.3052,1,484,815,232
127099613,7695,-0.0542,-0.1001,1.0186,0.0610,0.1221,-0.3052,1,481,812,232
127104610,7696,-0.0527,-0.0996,1.0195,0.1831,0.1221,-0.3052,1,482,851,232
127109613,7697,-0.0532,-0.1006,1.0181,0.0610,0.1831,-0.3662,1,472,866,232
127114613,7698,-0.0547,-0.1011,1.0161,0.1221,0.0000,-0.3052,1,473,871,232
127119613,7699,-0.0557,-0.1006,1.0151,0.1221,-0.1221,-0.3052,1,477,802,232
127124611,7700,-0.0571,-0.1006,1.0161,0.0000,0.0000,-0.3052,1,505,876,232
127129608,7701,-0.0571,-0.1006,1.0171,0.2441,-0.1221,-0.2441,1,484,658,232
127134613,7702,-0.0566,-0.1001,1.0171,0.2441,-0.1221,-0.3052,1,490,872,232
127139611,7703,-0.0562,-0.1001,1.0161,0.1831,-0.1221,-0.3662,1,464,847,232
127144609,7704,-0.0557,-0.1006,1.0146,0.1221,-0.1221,-0.3662,1,488,843,232
127149616,7705,-0.0547,-0.1006,1.0146,0.1221,-0.2441,-0.1831,1,480,844,232
127154610,7706,-0.0537,-0.1011,1.0166,0.0610,-0.1831,-0.2441,1,481,867,232
127159617,7707,-0.0537,-0.1006,1.0186,0.1221,-0.0610,-0.3662,1,475,906,232
127164609,7708,-0.0552,-0.0986,1.0176,-0.0610,-0.0610,-0.3052,1,490,843,232
127169613,7709,-0.0562,-0.0991,1.0161,-0.0610,0.0000,-0.3052,1,492,841,232
127174611,7710,-0.0547,-0.1006,1.0166,-0.1221,0.1221,-0.3662,1,466,826,232
127179610,7711,-0.0542,-0.1001,1.0186,-0.0610,0.1831,-0.2441,1,466,871,232
127184609,7712,-0.0542,-0.0981,1.0205,-0.2441,0.1221,-0.3052,1,466,871,232
127189610,7713,-0.0537,-0.0977,1.0200,-0.1831,0.0610,-0.2441,1,465,873,232
127194614,7714,-0.0537,-0.0991,1.0176,-0.1831,0.1221,-0.1221,1,484,866,232
127199617,7715,-0.0547,-0.1001,1.0166,-0.3052,0.1221,-0.3052,1,466,873,232
127204615,7716,-0.0552,-0.1006,1.0181,-0.1831,0.0610,-0.3052,1,469,851,232
127209610,7717,-0.0547,-0.1006,1.0195,-0.1831,0.1221,-0.1831,1,476,856,232
127214616,7718,-0.0542,-0.0991,1.0200,-0.3052,0.4272,-0.1831,1,467,873,232
127219624,7719,-0.0542,-0.0986,1.0186,-0.3052,0.4883,-0.1221,1,465,856,232
127224613,7720,-0.0552,-0.1001,1.0156,-0.3052,0.3052,-0.1221,1,482,850,232
127229612,7721,-0.0557,-0.1006,1.0151,-0.3052,0.1221,-0.1221,1,495,845,232
127234608,7722,-0.0566,-0.0996,1.0161,-0.3662,0.1831,-0.1831,1,466,864,232
127239615,7723,-0.0566,-0.0996,1.0166,-0.3662,0.2441,-0.1831,1,494,884,232
127244611,7724,-0.0547,-0.0996,1.0171,-0.4272,0.0610,-0.2441,1,473,830,232
127249614,7725,-0.0532,-0.1006,1.0181,-0.4272,0.0000,-0.2441,1,488,847,232
127254608,7726,-0.0532,-0.1016,1.0181,-0.4883,0.1831,-0.1221,1,473,801,232
127259616,7727,-0.0537,-0.1011,1.0190,-0.3662,0.1831,-0.0610,1,492,863,232
127264610,7728,-0.0547,-0.1006,1.0171,-0.3052,0.1831,-0.1831,1,486,848,232
127269611,7729,-0.0557,-0.1021,1.0156,-0.2441,0.1831,-0.1831,1,478,840,232
127274615,7730,-0.0557,-0.1016,1.0171,-0.1221,0.1221,-0.1221,1,493,852,232
127279615,7731,-0.0557,-0.1006,1.0181,-0.1221,0.1221,-0.1221,1,466,863,232
127284616,7732,-0.0542,-0.1016,1.0186,-0.1831,0.1221,0.0000,1,466,863,232
127289613,7733,-0.0532,-0.1021,1.0190,-0.1831,0.2441,-0.0610,1,483,814,232
127294611,7734,-0.0532,-0.1011,1.0190,-0.1831,0.1831,-0.1221,1,469,865,232
127299611,7735,-0.0542,-0.1011,1.0181,-0.1831,0.3662,-0.0610,1,465,875,232
127304608,7736,-0.0542,-0.1016,1.0176,-0.1831,0.3662,-0.0610,1,467,931,232
127309609,7737,-0.0537,-0.0996,1.0186,-0.1831,0.3662,-0.0610,1,475,864,232
127314616,7738,-0.0532,-0.0986,1.0190,-0.2441,0.3662,-0.1831,1,482,899,232
127319614,7739,-0.0542,-0.1001,1.0181,-0.3052,0.6104,-0.1831,1,483,838,232
127324609,7740,-0.0557,-0.1006,1.0171,-0.1831,0.6104,0.0000,1,468,845,232
127329615,7741,-0.0566,-0.1016,1.0156,-0.2441,0.5493,-0.1221,1,499,804,232
127334610,7742,-0.0576,-0.1025,1.0137,-0.2441,0.3662,0.0000,1,466,876,232
127339612,7743,-0.0566,-0.1016,1.0156,-0.1831,0.4272,-0.0610,1,494,762,232
127344616,7744,-0.0552,-0.1001,1.0176,-0.1831,0.3662,-0.1221,1,472,858,232
127349617,7745,-0.0552,-0.0996,1.0166,-0.2441,0.3662,-0.1831,1,479,872,232
127354611,7746,-0.0557,-0.1001,1.0156,-0.1831,0.2441,-0.1831,1,491,856,232
127359616,7747,-0.0557,-0.1006,1.0156,-0.1831,0.2441,-0.1831,1,486,870,232
127364611,7748,-0.0552,-0.1011,1.0156,-0.1221,0.2441,-0.2441,1,473,853,232
127369613,7749,-0.0562,-0.1011,1.0146,-0.1831,0.2441,-0.2441,1,479,846,232
127374617,7750,-0.0566,-0.1025,1.0151,-0.1831,0.3052,-0.1831,1,493,853,232
127379621,7751,-0.0566,-0.1025,1.0166,-0.1221,0.3662,-0.3052,1,466,882,232
127384609,7752,-0.0566,-0.1011,1.0181,-0.0610,0.3052,-0.2441,1,466,878,232
127389609,7753,-0.0562,-0.1011,1.0176,-0.0610,0.2441,-0.2441,1,484,899,232
127394616,7754,-0.0557,-0.1016,1.0171,-0.1221,0.4883,-0.2441,1,473,862,232
127399612,7755,-0.0547,-0.1011,1.0171,-0.1831,0.3662,-0.3662,1,484,859,232
127404613,7756,-0.0532,-0.1001,1.0181,0.0000,0.4272,-0.1831,1,466,929,232
127409608,7757,-0.0532,-0.1016,1.0181,-0.0610,0.5493,-0.2441,1,466,816,232
127414611,7758,-0.0547,-0.1025,1.0161,0.1221,0.4272,-0.3052,1,476,865,232
127419613,7759,-0.0552,-0.0996,1.0166,0.0000,0.3662,-0.3052,1,477,871,232
127424611,7760,-0.0547,-0.0996,1.0181,-0.0610,0.4272,-0.3052,1,482,812,232
127429609,7761,-0.0552,-0.1025,1.0190,0.1221,0.4272,-0.3662,1,492,850,232
127434614,7762,-0.0542,-0.1011,1.0195,0.0000,0.3052,-0.3052,1,511,859,232
127439616,7763,-0.0532,-0.0991,1.0200,0.0000,0.4883,-0.3052,1,485,746,232
127444614,7764,-0.0537,-0.1001,1.0181,-0.0610,0.4272,-0.2441,1,464,800,232
127449614,7765,-0.0547,-0.1016,1.0161,0.0000,0.4272,-0.2441,1,483,843,232
127454611,7766,-0.0566,-0.1011,1.0171,0.0610,0.5493,-0.1831,1,492,803,232
127459617,7767,-0.0576,-0.1001,1.0181,-0.0610,0.4272,-0.1221,1,483,846,232
127464617,7768,-0.0552,-0.1001,1.0186,-0.1221,0.3662,-0.1221,1,488,867,232
127469614,7769,-0.0532,-0.0996,1.0190,-0.1221,0.4272,-0.1831,1,488,837,232
127474610,7770,-0.0537,-0.1001,1.0181,-0.1831,0.4883,-0.1831,1,493,851,232
127479609,7771,-0.0537,-0.1006,1.0176,-0.1831,0.5493,-0.2441,1,466,871,232
127484608,7772,-0.0547,-0.1006,1.0186,-0.1221,0.4883,-0.0610,1,466,879,232
127489608,7773,-0.0552,-0.1006,1.0186,-0.1831,0.6104,-0.1221,1,466,866,232
127494614,7774,-0.0552,-0.1006,1.0171,-0.0610,0.4883,-0.3052,1,465,867,232
127499610,7775,-0.0562,-0.1025,1.0166,0.0610,0.4272,-0.3662,1,482,854,232
127504617,7776,-0.0566,-0.1030,1.0146,0.8545,0.1831,-0.3662,1,465,880,232
127509611,7777,-0.0576,-0.1016,1.0132,-0.3052,0.4883,-0.1831,1,467,923,232
127514611,7778,-0.0576,-0.1011,1.0156,-0.2441,0.3052,0.0000,1,475,862,232
127519616,7779,-0.0557,-0.1006,1.0176,-0.0610,0.3052,-0.1831,1,481,828,232
127524616,7780,-0.0537,-0.1006,1.0176,0.1221,0.3052,-0.1831,1,481,866,232
127529616,7781,-0.0537,-0.1001,1.0156,0.2441,0.1831,-0.1831,1,466,880,232
127534611,7782,-0.0552,-0.0996,1.0146,-0.2441,0.3662,-0.1831,1,508,862,232
127539614,7783,-0.0562,-0.1006,1.0161,-0.1221,0.3662,-0.0610,1,511,866,232
127544608,7784,-0.0557,-0.1006,1.0161,0.0000,0.4272,-0.1831,1,490,869,232
127549612,7785,-0.0557,-0.1006,1.0156,-0.3662,0.4883,-0.1831,1,465,831,232
127554615,7786,-0.0566,-0.1001,1.0166,0.0000,0.3662,-0.3052,1,490,848,232
127559614,7787,-0.0562,-0.0991,1.0171,0.0610,0.3662,-0.3052,1,473,798,232
127564614,7788,-0.0562,-0.1006,1.0171,0.0610,0.3052,-0.2441,1,483,841,232
127569615,7789,-0.0547,-0.1025,1.0176,0.1221,0.4272,-0.4272,1,483,894,232
127574615,7790,-0.0542,-0.1016,1.0181,0.1831,0.3052,-0.3662,1,490,847,232
127579609,7791,-0.0552,-0.1006,1.0166,0.1221,0.3052,-0.3052,1,492,841,232
127584611,7792,-0.0557,-0.1016,1.0151,0.1221,0.3052,-0.1831,1,466,862,232
127589610,7793,-0.0557,-0.1030,1.0151,-0.0610,0.3052,-0.3052,1,466,870,232
127594612,7794,-0.0552,-0.1035,1.0171,0.0000,0.3052,-0.3052,1,466,870,232
127599610,7795,-0.0552,-0.1021,1.0186,0.0610,0.3662,-0.1221,1,466,757,232
127604614,7796,-0.0547,-0.1011,1.0190,-0.0610,0.4883,-0.0610,1,484,857,232
127609609,7797,-0.0547,-0.1016,1.0181,0.0000,0.4883,-0.2441,1,465,895,232
127614612,7798,-0.0557,-0.1011,1.0166,0.0610,0.4883,-0.2441,1,480,814,232
127619613,7799,-0.0557,-0.0996,1.0176,-0.0610,0.6104,-0.1831,1,480,864,232
127624616,7800,-0.0542,-0.0996,1.0190,-0.1831,0.8545,-0.2441,1,466,872,232
127629622,7801,-0.0547,-0.1011,1.0176,-0.0610,0.4883,-0.1221,1,466,860,232
127634639,7802,-0.0562,-0.1016,1.0156,0.0610,0.3662,-0.1831,1,465,876,232
127639611,7803,-0.0562,-0.1011,1.0151,0.0000,0.4883,-0.1831,1,471,857,232
127644609,7804,-0.0552,-0.1011,1.0151,-0.0610,0.4272,-0.1831,1,466,727,232
127649615,7805,-0.0532,-0.1030,1.0161,0.1221,0.3052,-0.2441,1,494,874,232
127654615,7806,-0.0542,-0.1030,1.0171,0.1221,0.3662,-0.1831,1,464,856,232
127659612,7807,-0.0566,-0.1016,1.0171,0.0000,0.3052,-0.3052,1,476,845,232
127664616,7808,-0.0571,-0.1016,1.0161,0.0610,0.3662,-0.2441,1,486,792,232
127669614,7809,-0.0566,-0.1030,1.0156,0.0610,0.2441,-0.2441,1,483,850,232
127674613,7810,-0.0571,-0.1030,1.0166,0.0000,0.2441,-0.2441,1,473,852,232
127679615,7811,-0.0562,-0.1016,1.0161,0.0000,0.3052,-0.2441,1,485,808,232
127684611,7812,-0.0576,-0.1011,1.0132,0.0610,0.3662,-0.2441,1,492,800,232
127689614,7813,-0.0596,-0.1001,1.0142,0.1221,0.1831,-0.3662,1,466,875,232
127694610,7814,-0.0542,-0.1021,1.0220,-0.0610,-0.1221,-0.3052,1,466,871,232
127699610,7815,-0.0493,-0.1011,1.0249,0.0610,0.5493,-0.2441,1,483,865,232
127704609,7816,-0.0522,-0.0972,1.0195,-0.1221,0.6104,-0.2441,1,465,878,232
127709610,7817,-0.0566,-0.0991,1.0132,-0.1831,0.3662,-0.1831,1,484,864,232
127714609,7818,-0.0571,-0.1021,1.0127,0.0000,0.3052,-0.2441,1,465,883,232
127719614,7819,-0.0552,-0.1021,1.0166,-0.1221,0.3662,-0.1221,1,466,825,232
127724616,7820,-0.0547,-0.1011,1.0181,0.0000,0.3662,-0.1831,1,483,860,232
127729608,7821,-0.0566,-0.1021,1.0166,-0.1831,0.4883,-0.3662,1,467,807,232
127734610,7822,-0.0566,-0.1025,1.0161,-0.1221,0.3052,-0.1831,1,479,861,232
127739610,7823,-0.0547,-0.1001,1.0181,-0.0610,0.3052,-0.0610,1,482,888,232
127744613,7824,-0.0552,-0.0996,1.0190,-0.1831,0.3662,-0.1831,1,504,842,232
127749616,7825,-0.0562,-0.1006,1.0176,-0.1831,0.4883,-0.1831,1,466,880,232
127754612,7826,-0.0562,-0.1016,1.0161,-0.0610,0.5493,-0.0610,1,494,875,232
127759616,7827,-0.0562,-0.1030,1.0161,-0.0610,0.4272,-0.1831,1,483,853,232
127764615,7828,-0.0562,-0.1035,1.0161,-0.1221,0.3662,-0.2441,1,488,861,232
127769608,7829,-0.0571,-0.1030,1.0156,-0.0610,0.3052,-0.1831,1,488,852,232
127774608,7830,-0.0571,-0.1016,1.0151,-0.0610,0.3052,-0.1831,1,483,868,232
127779614,7831,-0.0562,-0.1011,1.0161,0.0000,0.3052,-0.2441,1,492,845,232
127784611,7832,-0.0557,-0.1021,1.0161,0.1221,0.1831,-0.2441,1,470,828,232
127789612,7833,-0.0562,-0.1025,1.0161,-0.1221,0.1831,-0.1831,1,493,847,232
127794610,7834,-0.0562,-0.1025,1.0166,0.0000,0.1221,-0.1221,1,465,880,232
127799612,7835,-0.0562,-0.1021,1.0166,0.0610,0.2441,-0.4272,1,466,828,232
127804612,7836,-0.0562,-0.1006,1.0166,0.1221,0.1831,-0.3052,1,483,876,232
127809613,7837,-0.0566,-0.1001,1.0171,0.1221,0.0610,-0.2441,1,465,859,232
127814608,7838,-0.0566,-0.0996,1.0166,0.0610,0.3052,-0.2441,1,485,857,232
127819613,7839,-0.0576,-0.1001,1.0146,-0.0610,0.3052,-0.2441,1,465,905,232
127824613,7840,-0.0586,-0.1001,1.0127,-0.1831,0.1831,-0.3662,1,482,931,232
127829613,7841,-0.0552,-0.1006,1.0171,-0.0610,0.0000,-0.3052,1,465,872,232
127834616,7842,-0.0527,-0.1021,1.0195,-0.0610,0.1831,-0.3052,1,472,801,232
127839610,7843,-0.0542,-0.1025,1.0171,0.0000,0.2441,-0.1831,1,473,855,232
127844616,7844,-0.0566,-0.1011,1.0151,-0.0610,0.0610,-0.2441,1,480,813,232
127849610,7845,-0.0571,-0.1011,1.0151,-0.0610,0.0610,-0.4883,1,470,857,232
127854613,7846,-0.0562,-0.1016,1.0166,-0.0610,0.0610,-0.3662,1,466,871,232
127859608,7847,-0.0547,-0.1011,1.0171,0.0000,0.1221,-0.3662,1,494,874,232
127864615,7848,-0.0542,-0.1006,1.0171,-0.0610,0.1831,-0.3662,1,481,821,232
127869616,7849,-0.0552,-0.1016,1.0186,0.0000,0.0000,-0.3052,1,485,853,232
127874610,7850,-0.0562,-0.1030,1.0200,0.0000,0.0000,-0.2441,1,481,747,232
127879609,7851,-0.0562,-0.1021,1.0195,0.0000,0.0610,-0.4272,1,476,755,232
127884615,7852,-0.0562,-0.1006,1.0171,-0.0610,0.0610,-0.3662,1,485,800,232
127889611,7853,-0.0562,-0.1006,1.0161,0.1221,-0.0610,-0.2441,1,487,838,232
127894614,7854,-0.0557,-0.1006,1.0156,0.3052,0.0610,-0.4272,1,493,843,232
127899608,7855,-0.0566,-0.1006,1.0166,0.0610,0.1221,-0.4272,1,466,869,232
127904613,7856,-0.0571,-0.1011,1.0161,0.7324,-0.1221,-0.4883,1,466,872,232
127909612,7857,-0.0571,-0.1006,1.0146,0.3052,-0.1221,-0.4272,1,484,875,232
127914609,7858,-0.0571,-0.1006,1.0137,0.2441,-0.1831,-0.2441,1,466,862,232
127919608,7859,-0.0576,-0.1006,1.0132,-0.1831,0.0610,-0.1221,1,485,870,232
127924614,7860,-0.0581,-0.1006,1.0137,0.5493,-0.3662,-0.2441,1,469,899,232
127929613,7861,-0.0586,-0.1006,1.0142,0.3662,-0.4272,-0.3662,1,468,871,232
127934610,7862,-0.0571,-0.1016,1.0151,0.4883,-0.4883,-0.4272,1,474,874,232
127939616,7863,-0.0542,-0.0991,1.0166,0.1831,-0.3052,-0.3052,1,480,876,232
127944608,7864,-0.0532,-0.0981,1.0186,-0.1831,0.1831,-0.4272,1,479,855,232
127949614,7865,-0.0527,-0.0996,1.0176,0.4883,-0.1831,-0.3052,1,467,864,232
127954616,7866,-0.0537,-0.1006,1.0161,0.0610,0.0000,-0.2441,1,507,857,232
127959613,7867,-0.0547,-0.1016,1.0176,-0.0610,0.0610,-0.2441,1,466,726,232
127964611,7868,-0.0547,-0.1016,1.0195,0.0610,0.2441,-0.4272,1,493,899,232
127969616,7869,-0.0562,-0.1016,1.0181,0.3052,0.3052,-0.3662,1,492,771,232
127974613,7870,-0.0571,-0.1006,1.0171,0.3052,0.1831,-0.4883,1,488,866,232
127979609,7871,-0.0562,-0.1011,1.0176,0.1831,0.1221,-0.5493,1,480,841,232
127984609,7872,-0.0552,-0.1011,1.0166,0.3052,0.1221,-0.5493,1,471,894,232
127989616,7873,-0.0552,-0.1006,1.0156,0.3662,0.0000,-0.4272,1,485,841,232
127994610,7874,-0.0566,-0.1001,1.0151,0.3052,-0.1221,-0.4272,1,484,804,232
127999617,7875,-0.0562,-0.1011,1.0156,0.4272,-0.1221,-0.4272,1,466,872,232
128004626,7876,-0.0537,-0.1016,1.0166,0.3662,-0.1221,-0.3052,1,466,872,232
128009614,7877,-0.0522,-0.1011,1.0166,0.3052,-0.0610,-0.3052,1,466,873,232
128014612,7878,-0.0532,-0.1006,1.0166,0.1831,-0.1831,-0.4272,1,484,898,232
128019612,7879,-0.0547,-0.1016,1.0161,0.1831,-0.1831,-0.4272,1,482,871,232
128024612,7880,-0.0557,-0.1030,1.0181,0.3052,-0.1831,-0.4883,1,465,879,232
128029613,7881,-0.0547,-0.1025,1.0205,0.2441,-0.0610,-0.4272,1,474,932,232
128034615,7882,-0.0532,-0.0996,1.0200,0.1831,0.0000,-0.4272,1,480,868,232
128039612,7883,-0.0527,-0.0977,1.0181,0.1221,0.0610,-0.3662,1,482,833,232
128044610,7884,-0.0542,-0.0986,1.0161,0.1831,0.1221,-0.3052,1,467,851,232
128049643,7885,-0.0557,-0.1001,1.0156,0.0610,0.1221,-0.2441,1,472,884,232
128054611,7886,-0.0557,-0.1001,1.0156,0.0000,-0.0610,-0.1831,1,465,850,232
128059612,7887,-0.0547,-0.1006,1.0181,0.0000,0.0610,-0.2441,1,466,755,232
128064614,7888,-0.0537,-0.1016,1.0200,0.0000,0.1221,-0.2441,1,494,749,232
128069616,7889,-0.0547,-0.1011,1.0195,0.0000,0.0000,-0.2441,1,466,837,232
128074611,7890,-0.0566,-0.0991,1.0171,0.0000,0.1831,-0.3052,1,488,754,232
128079615,7891,-0.0586,-0.0981,1.0146,0.0610,0.1831,-0.3662,1,481,800,232
128084611,7892,-0.0591,-0.1001,1.0142,0.1831,0.0000,-0.3662,1,485,851,232
128089616,7893,-0.0581,-0.1016,1.0156,0.1831,-0.0610,-0.4272,1,474,797,232
128094612,7894,-0.0562,-0.1016,1.0176,0.1221,0.0610,-0.3662,1,477,851,232
128099612,7895,-0.0552,-0.1016,1.0181,0.0610,0.0000,-0.3052,1,492,841,232
128104610,7896,-0.0557,-0.1016,1.0176,0.0000,0.0610,-0.1831,1,493,790,232
128109610,7897,-0.0571,-0.1011,1.0156,0.0610,0.1221,-0.3662,1,466,825,232
128114611,7898,-0.0566,-0.1011,1.0156,0.1221,0.1221,-0.4272,1,466,873,232
128119611,7899,-0.0542,-0.1021,1.0171,0.2441,0.0000,-0.3052,1,465,872,232
128124616,7900,-0.0537,-0.1025,1.0176,0.1831,-0.0610,-0.2441,1,480,744,232
128129614,7901,-0.0542,-0.1021,1.0171,0.1221,-0.0610,-0.3662,1,466,872,232
128134611,7902,-0.0552,-0.1021,1.0161,0.0610,0.1221,-0.4272,1,482,896,232
128139611,7903,-0.0562,-0.1016,1.0166,0.1831,0.0610,-0.3052,1,467,860,232
128144611,7904,-0.0557,-0.1006,1.0171,0.1831,-0.1831,-0.3662,1,471,860,232
128149613,7905,-0.0547,-0.0996,1.0171,0.1831,-0.1831,-0.4272,1,474,874,232
128154625,7906,-0.0532,-0.0986,1.0181,0.1831,-0.0610,-0.3052,1,476,860,232
128159610,7907,-0.0522,-0.0986,1.0181,0.1221,0.0610,-0.3662,1,465,853,232
128164612,7908,-0.0522,-0.1001,1.0181,0.0610,0.1831,-0.4883,1,511,853,232
128169616,7909,-0.0527,-0.1011,1.0181,0.1831,0.1831,-0.2441,1,481,866,232
128174617,7910,-0.0527,-0.1016,1.0181,0.1831,-0.0610,-0.3052,1,494,904,232
128179615,7911,-0.0537,-0.1001,1.0176,0.1831,0.0610,-0.3052,1,464,851,232
128184616,7912,-0.0552,-0.1001,1.0166,0.1221,0.0610,-0.3052,1,478,840,232
128189613,7913,-0.0557,-0.1006,1.0176,0.1221,0.0610,-0.1221,1,486,836,232
128194608,7914,-0.0557,-0.1011,1.0176,0.0610,0.0610,-0.1831,1,480,892,232
128199610,7915,-0.0557,-0.1025,1.0161,0.2441,0.0610,-0.2441,1,473,842,232
128204611,7916,-0.0552,-0.1030,1.0156,0.1831,-0.0610,-0.3052,1,469,853,232
128209613,7917,-0.0552,-0.1030,1.0166,0.1831,-0.0610,-0.3052,1,492,875,232
128214626,7918,-0.0547,-0.1025,1.0176,0.1831,0.0000,-0.3052,1,466,873,232
128219612,7919,-0.0532,-0.1011,1.0176,0.1221,0.0610,-0.2441,1,465,858,232
128224616,7920,-0.0522,-0.1011,1.0176,0.2441,0.1221,-0.1831,1,484,902,232
128229609,7921,-0.0537,-0.1011,1.0176,0.1221,0.1831,-0.2441,1,477,864,232
128234609,7922,-0.0557,-0.1016,1.0171,0.1221,0.2441,-0.2441,1,465,874,232
128239610,7923,-0.0562,-0.1021,1.0171,0.1831,0.1221,-0.3052,1,470,931,232
128244608,7924,-0.0557,-0.1016,1.0176,0.1221,0.1221,-0.3052,1,472,854,232
128249616,7925,-0.0557,-0.1001,1.0181,0.0610,0.1831,-0.3052,1,478,854,232
128254614,7926,-0.0557,-0.0996,1.0166,0.0610,0.1831,-0.3662,1,472,862,232
128259630,7927,-0.0552,-0.1006,1.0161,0.0610,0.1831,-0.3052,1,479,861,232
128264609,7928,-0.0527,-0.1011,1.0176,0.0000,0.3052,-0.3662,1,465,851,232
128269609,7929,-0.0518,-0.1011,1.0200,-0.0610,0.4272,-0.3052,1,511,807,232
128274613,7930,-0.0532,-0.1001,1.0195,-0.1221,0.4272,-0.3662,1,466,895,232
128279614,7931,-0.0547,-0.1001,1.0176,0.0000,0.3662,-0.3052,1,494,874,232
128284611,7932,-0.0547,-0.1011,1.0171,0.0000,0.4272,-0.2441,1,474,792,232
128289612,7933,-0.0537,-0.1006,1.0181,0.0610,0.4883,-0.2441,1,486,798,232
128294609,7934,-0.0537,-0.1001,1.0181,-0.0610,0.5493,-0.2441,1,492,843,232
128299609,7935,-0.0542,-0.1001,1.0171,0.1221,0.4272,-0.2441,1,480,845,232
128304616,7936,-0.0547,-0.1001,1.0176,0.1221,0.4272,-0.1221,1,491,839,232
128309612,7937,-0.0547,-0.0996,1.0200,0.0610,0.5493,-0.0610,1,483,835,232
128314608,7938,-0.0527,-0.0996,1.0205,0.1221,0.5493,-0.1221,1,493,873,232
128319627,7939,-0.0522,-0.1001,1.0186,0.0610,0.6104,-0.2441,1,466,875,232
128324614,7940,-0.0542,-0.1001,1.0176,0.1221,0.4272,-0.1831,1,466,868,232
128329608,7941,-0.0552,-0.0996,1.0171,0.1221,0.4272,-0.1221,1,484,871,232
128334617,7942,-0.0542,-0.0996,1.0176,0.1221,0.5493,-0.1831,1,475,858,232
128339615,7943,-0.0542,-0.1001,1.0181,0.1221,0.5493,-0.1221,1,484,864,232
128344615,7944,-0.0552,-0.1011,1.0181,0.1831,0.4883,-0.1831,1,476,903,232
128349610,7945,-0.0557,-0.1011,1.0176,0.2441,0.4272,-0.2441,1,481,861,232
128354613,7946,-0.0552,-0.1001,1.0181,0.2441,0.4883,-0.2441,1,467,866,232
128359615,7947,-0.0552,-0.1001,1.0181,0.2441,0.4272,-0.2441,1,465,869,232
128364619,7948,-0.0537,-0.1001,1.0181,0.3662,0.4883,-0.1831,1,467,854,232
128369611,7949,-0.0527,-0.0996,1.0181,0.3052,0.5493,-0.2441,1,465,854,232
128374616,7950,-0.0542,-0.1001,1.0176,0.3052,0.4272,-0.3662,1,511,857,232
128379612,7951,-0.0542,-0.1006,1.0166,0.1831,0.4883,-0.2441,1,465,867,232
128384609,7952,-0.0527,-0.1001,1.0156,0.1831,0.4883,-0.3662,1,494,903,232
128389614,7953,-0.0532,-0.0996,1.0166,0.1831,0.3662,-0.1831,1,471,855,232
128394609,7954,-0.0542,-0.1001,1.0166,0.1831,0.4883,-0.2441,1,475,887,232
128399616,7955,-0.0547,-0.1011,1.0161,0.0000,0.4883,-0.2441,1,488,845,232
128404614,7956,-0.0547,-0.1001,1.0166,0.0000,0.3662,-0.2441,1,490,800,232
128409614,7957,-0.0537,-0.0996,1.0171,0.1221,0.4272,-0.2441,1,492,800,232
128414612,7958,-0.0527,-0.1001,1.0176,0.0610,0.3662,-0.1831,1,479,847,232
128419612,7959,-0.0513,-0.1001,1.0181,0.0000,0.3662,-0.1831,1,492,846,232
128424617,7960,-0.0513,-0.0996,1.0176,0.0000,0.3052,-0.1221,1,466,822,232
128429613,7961,-0.0518,-0.0996,1.0166,-0.0610,0.4272,-0.0610,1,465,853,232
128434613,7962,-0.0527,-0.1006,1.0190,0.3052,0.4272,-0.3052,1,484,876,232
128439616,7963,-0.0537,-0.1001,1.0190,0.7324,0.3052,-0.2441,1,465,859,232
128444616,7964,-0.0557,-0.0991,1.0161,-0.0610,0.4272,0.0000,1,484,807,232
128449617,7965,-0.0566,-0.0991,1.0151,-0.1221,0.3662,0.3662,1,469,823,232
128454616,7966,-0.0562,-0.1011,1.0166,-0.1831,0.4272,0.1831,1,474,870,232
128459615,7967,-0.0557,-0.1021,1.0176,0.5493,0.1221,0.0610,1,479,876,232
128464608,7968,-0.0547,-0.1025,1.0176,0.1221,0.4272,-0.1221,1,466,865,232
128469626,7969,-0.0537,-0.1001,1.0171,0.3662,0.3052,0.0610,1,476,853,232
128474613,7970,-0.0532,-0.0977,1.0176,-0.4272,0.7935,-0.0610,1,482,877,232
128479616,7971,-0.0537,-0.0986,1.0200,-0.1221,0.6104,-0.1221,1,483,856,232
128484616,7972,-0.0542,-0.0986,1.0195,0.0610,0.6104,-0.1221,1,466,868,232
128489610,7973,-0.0542,-0.0986,1.0195,-0.2441,0.7324,0.0610,1,494,897,232
128494613,7974,-0.0532,-0.0991,1.0200,-0.3662,0.7935,0.0610,1,475,832,232
128499609,7975,-0.0532,-0.0996,1.0195,-0.4272,1.0376,-0.1831,1,483,876,232
128504617,7976,-0.0537,-0.0991,1.0176,-0.1831,1.0986,-0.0610,1,475,854,232
128509608,7977,-0.0557,-0.0986,1.0151,-0.3662,1.2207,-0.3052,1,490,850,232
128514609,7978,-0.0571,-0.0991,1.0146,-0.2441,1.0376,-0.3052,1,487,849,232
128519608,7979,-0.0562,-0.1011,1.0156,-0.3052,1.1597,-0.2441,1,469,850,232
128524611,7980,-0.0542,-0.1016,1.0171,-0.2441,1.0376,-0.0610,1,493,874,232
128529616,7981,-0.0547,-0.1006,1.0166,-0.5493,1.0376,-0.1221,1,466,868,232
128534613,7982,-0.0562,-0.0991,1.0161,-0.4883,1.0376,-0.1831,1,466,872,232
128539609,7983,-0.0562,-0.0991,1.0176,-0.4272,0.9155,-0.0610,1,484,878,232
128544609,7984,-0.0552,-0.0996,1.0186,-0.3662,0.9155,0.0000,1,469,865,232
128549613,7985,-0.0542,-0.1006,1.0186,-0.3052,0.9766,0.0000,1,484,832,232
128554609,7986,-0.0542,-0.1006,1.0176,-0.3662,0.9766,-0.1221,1,472,809,232
128559608,7987,-0.0552,-0.1006,1.0166,-0.4272,0.9155,-0.0610,1,482,857,232
128564616,7988,-0.0562,-0.1006,1.0176,-0.3662,0.8545,-0.1831,1,465,865,232
128569610,7989,-0.0586,-0.0996,1.0161,-0.3662,0.7324,-0.1831,1,480,873,232
128574610,7990,-0.0669,-0.0972,1.0054,-0.2441,0.0000,-0.2441,1,472,866,232
128579616,7991,-0.0630,-0.1006,1.0078,-0.4272,-0.9766,-0.2441,1,473,811,232
128584611,7992,-0.0522,-0.1084,1.0200,-0.0610,0.1221,-0.3052,1,484,856,232
128589614,7993,-0.0562,-0.1040,1.0200,0.4272,0.4883,-0.2441,1,466,867,232
128594609,7994,-0.0557,-0.0977,1.0225,-0.3662,-0.4883,-0.3662,1,494,905,232
128599608,7995,-0.0518,-0.1006,1.0225,-0.0610,0.4883,-0.3052,1,485,871,232
128604616,7996,-0.0557,-0.1025,1.0161,0.0610,0.5493,-0.2441,1,473,837,232
128609610,7997,-0.0586,-0.1006,1.0132,0.0610,0.3662,-0.3052,1,488,852,232
128614616,7998,-0.0581,-0.0981,1.0137,-0.1221,0.3052,-0.3052,1,483,868,232
128619609,7999,-0.0552,-0.0996,1.0166,-0.1831,0.3662,-0.3662,1,485,841,232
128624608,8000,-0.0518,-0.1011,1.0210,-0.1831,0.3662,-0.3052,1,472,854,232
128629612,8001,-0.0532,-0.1006,1.0210,-0.1221,0.4272,-0.2441,1,493,872,232
128634618,8002,-0.0566,-0.1001,1.0186,-0.3052,0.4883,-0.2441,1,465,873,232
128639612,8003,-0.0581,-0.1006,1.0166,-0.3052,0.3662,-0.1831,1,466,869,232
128644608,8004,-0.0601,-0.1001,1.0117,-0.2441,0.1221,-0.1831,1,484,879,232
128649610,8005,-0.0571,-0.1006,1.0146,-0.4272,-0.2441,-0.3052,1,475,859,232
128654609,8006,-0.0513,-0.1025,1.0205,-0.2441,0.3052,-0.3662,1,466,799,232
128659610,8007,-0.0522,-0.1025,1.0186,-0.0610,0.4883,-0.2441,1,482,905,232
128664615,8008,-0.0562,-0.1025,1.0161,-0.2441,0.2441,-0.1831,1,465,869,232
128669616,8009,-0.0581,-0.1030,1.0156,-0.0610,0.3662,-0.3662,1,482,874,232
128674614,8010,-0.0566,-0.1006,1.0166,-0.0610,0.5493,-0.1831,1,466,879,232
128679611,8011,-0.0532,-0.0977,1.0195,-0.1831,0.6714,-0.1221,1,471,861,232
128684608,8012,-0.0532,-0.0972,1.0195,-0.0610,0.7324,-0.1221,1,473,858,232
128689617,8013,-0.0596,-0.0986,1.0117,-0.1831,0.1221,-0.1221,1,510,856,232
128694608,8014,-0.0581,-0.1011,1.0142,-0.2441,0.1221,-0.1221,1,466,872,232
128699610,8015,-0.0552,-0.1040,1.0181,-0.1221,0.3052,-0.1831,1,494,814,232
128704614,8016,-0.0547,-0.1035,1.0195,0.0000,0.4272,-0.1221,1,473,792,232
128709612,8017,-0.0552,-0.1011,1.0176,-0.1831,0.4272,-0.1221,1,490,803,232
128714615,8018,-0.0562,-0.1006,1.0156,-0.1831,0.3662,-0.1221,1,477,845,232
128719609,8019,-0.0566,-0.1016,1.0151,-0.1221,0.4272,-0.2441,1,484,846,232
128724609,8020,-0.0571,-0.1025,1.0151,-0.0610,0.4272,-0.2441,1,478,850,232
128729610,8021,-0.0571,-0.1035,1.0146,-0.0610,0.4272,-0.1831,1,485,855,232
128734616,8022,-0.0576,-0.1035,1.0146,0.0000,0.4272,-0.1221,1,493,855,232
128739613,8023,-0.0581,-0.1035,1.0156,0.1221,0.2441,-0.1221,1,466,832,232
128744614,8024,-0.0586,-0.1030,1.0146,0.0610,0.3662,-0.1831,1,466,877,232
128749614,8025,-0.0576,-0.1025,1.0156,0.1221,0.2441,-0.2441,1,483,879,232
128754612,8026,-0.0557,-0.1021,1.0171,0.1831,0.1831,-0.1831,1,465,882,232
128759610,8027,-0.0547,-0.1016,1.0176,0.1221,0.3052,-0.1831,1,484,865,232
128764611,8028,-0.0552,-0.1011,1.0176,0.0610,0.3662,-0.2441,1,465,895,232
128769612,8029,-0.0557,-0.1016,1.0176,0.1221,0.4883,-0.3052,1,482,931,232
128774613,8030,-0.0566,-0.1016,1.0171,0.1221,0.4272,-0.1221,1,466,892,232
128779615,8031,-0.0571,-0.1011,1.0166,0.0000,0.4272,-0.1831,1,465,822,232
128784608,8032,-0.0571,-0.1006,1.0161,0.1831,0.4272,-0.2441,1,469,816,232
128789631,8033,-0.0566,-0.0996,1.0161,0.0610,0.3662,-0.3052,1,479,864,232
128794614,8034,-0.0566,-0.0991,1.0166,0.0000,0.2441,-0.2441,1,478,858,232
128799616,8035,-0.0557,-0.0991,1.0176,-0.0610,0.3662,-0.2441,1,510,819,232
128804613,8036,-0.0542,-0.0991,1.0190,-0.0610,0.3052,-0.2441,1,486,878,232
128809616,8037,-0.0542,-0.0996,1.0181,-0.1221,0.1221,-0.2441,1,464,769,232
128814609,8038,-0.0557,-0.0996,1.0166,-0.0610,0.1831,-0.1831,1,472,853,232
128819612,8039,-0.0571,-0.0991,1.0156,-0.1831,0.3052,-0.1831,1,489,853,232
128824609,8040,-0.0562,-0.1011,1.0151,-0.1831,0.1831,-0.1831,1,475,852,232
128829611,8041,-0.0552,-0.1025,1.0161,0.1221,0.0610,-0.1831,1,487,900,232
128834611,8042,-0.0557,-0.1011,1.0181,-0.0610,0.0000,-0.1831,1,473,848,232
128839608,8043,-0.0547,-0.1021,1.0195,-0.1221,0.0610,-0.1831,1,493,797,232
128844617,8044,-0.0537,-0.1035,1.0181,0.0000,0.3052,-0.2441,1,493,843,232
128849616,8045,-0.0557,-0.1021,1.0151,-0.0610,0.1221,-0.2441,1,466,828,232
128854614,8046,-0.0571,-0.1025,1.0142,-0.1221,0.0610,-0.1221,1,465,871,232
128859611,8047,-0.0566,-0.1035,1.0156,-0.0610,0.1221,-0.1831,1,465,872,232
128864610,8048,-0.0562,-0.1035,1.0176,0.0000,0.0000,-0.2441,1,484,869,232
128869616,8049,-0.0562,-0.1030,1.0176,-0.1221,0.0000,-0.1831,1,465,775,232
128874609,8050,-0.0562,-0.1030,1.0171,-0.0610,0.0000,-0.2441,1,476,818,232
128879616,8051,-0.0562,-0.1021,1.0166,-0.1221,-0.0610,-0.3052,1,466,827,232
128884615,8052,-0.0566,-0.1011,1.0161,-0.0610,-0.1221,-0.2441,1,466,865,232
128889608,8053,-0.0571,-0.1006,1.0166,-0.2441,-0.1831,-0.1831,1,468,857,232
128894637,8054,-0.0566,-0.1011,1.0176,-0.3052,-0.1831,-0.2441,1,481,865,232
128899610,8055,-0.0562,-0.1035,1.0176,-0.1221,-0.1221,-0.3662,1,473,856,232
128904615,8056,-0.0552,-0.1040,1.0181,-0.1221,-0.1831,-0.2441,1,511,853,232
128909617,8057,-0.0552,-0.1001,1.0181,-0.1831,-0.0610,-0.1831,1,489,876,232
128914612,8058,-0.0552,-0.0991,1.0181,-0.0610,-0.2441,-0.4883,1,494,808,232
128919613,8059,-0.0552,-0.1016,1.0176,0.1831,-0.3052,-0.3662,1,483,855,232
128924608,8060,-0.0566,-0.1021,1.0166,-0.3052,-0.1221,-0.1221,1,471,844,232
128929608,8061,-0.0576,-0.1016,1.0166,-0.3052,-0.3662,0.1221,1,487,840,232
128934609,8062,-0.0576,-0.1001,1.0171,-0.1221,-0.4272,0.0610,1,474,846,232
128939610,8063,-0.0566,-0.1001,1.0181,0.0000,-0.4272,-0.1831,1,483,838,232
128944611,8064,-0.0542,-0.1011,1.0186,-0.0610,-0.4272,-0.0610,1,479,798,232
128949615,8065,-0.0532,-0.1016,1.0166,-0.1831,-0.4272,-0.1221,1,493,840,232
128954612,8066,-0.0542,-0.1016,1.0146,-0.3052,-0.2441,-0.1221,1,466,878,232
128959611,8067,-0.0562,-0.1021,1.0146,-0.1831,-0.4272,-0.0610,1,483,872,232
128964609,8068,-0.0581,-0.1025,1.0156,0.0000,-0.6104,-0.1221,1,465,866,232
128969611,8069,-0.0566,-0.1021,1.0161,-0.0610,-0.5493,-0.1221,1,484,829,232
128974608,8070,-0.0552,-0.1006,1.0151,-0.1221,-0.4883,0.0610,1,466,902,232
128979616,8071,-0.0566,-0.1001,1.0142,-0.3662,-0.5493,-0.0610,1,469,858,232
128984614,8072,-0.0571,-0.1001,1.0142,-0.1221,-0.9766,-0.2441,1,466,873,232
128989615,8073,-0.0601,-0.0986,1.0107,-0.3052,-0.9766,-0.4883,1,469,869,232
128994609,8074,-0.0576,-0.1006,1.0127,-0.5493,-1.8311,-0.4883,1,474,849,232
128999638,8075,-0.0503,-0.1069,1.0215,-0.3052,-1.0986,-0.4883,1,482,886,232
129004610,8076,-0.0527,-0.1064,1.0195,0.3052,-0.5493,-0.4272,1,475,854,232
129009613,8077,-0.0566,-0.1045,1.0161,0.0000,-0.9155,-0.6714,1,466,881,232
129014613,8078,-0.0532,-0.1045,1.0200,0.0000,-0.8545,-0.3052,1,466,767,232
129019611,8079,-0.0503,-0.1016,1.0229,0.2441,-0.3052,-0.1831,1,493,759,232
129024609,8080,-0.0503,-0.1011,1.0229,-0.1221,-0.2441,-0.3052,1,481,855,232
129029612,8081,-0.0513,-0.1011,1.0210,-0.0610,-0.1831,-0.3052,1,490,840,232
129034616,8082,-0.0542,-0.0986,1.0186,-0.1221,-0.1831,-0.4883,1,476,839,232
129039613,8083,-0.0562,-0.0986,1.0176,-0.3052,-0.2441,-0.2441,1,480,875,232
129044616,8084,-0.0586,-0.0981,1.0151,-0.1831,-0.3662,-0.1221,1,480,849,232
129049617,8085,-0.0586,-0.0972,1.0132,-0.4883,-0.7935,-0.3052,1,483,850,232
129054609,8086,-0.0532,-0.1021,1.0181,-0.6714,-0.8545,-0.3052,1,492,870,232
129059621,8087,-0.0483,-0.1069,1.0229,-0.2441,-0.3662,-0.3052,1,466,866,232
129064612,8088,-0.0493,-0.1060,1.0229,-0.2441,-0.0610,-0.3662,1,466,882,232
129069609,8089,-0.0522,-0.1021,1.0210,-0.2441,0.0610,-0.1831,1,484,882,232
129074614,8090,-0.0557,-0.0991,1.0181,-0.3662,0.1221,-0.1221,1,469,865,232
129079608,8091,-0.0562,-0.1001,1.0156,-0.3052,-0.0610,-0.2441,1,485,860,232
129084612,8092,-0.0537,-0.1025,1.0166,-0.1221,-0.1831,-0.2441,1,477,898,232
129089615,8093,-0.0532,-0.1021,1.0181,-0.1221,-0.0610,-0.1831,1,477,872,232
129094611,8094,-0.0542,-0.1016,1.0181,-0.1221,-0.0610,-0.3662,1,476,896,232
129099612,8095,-0.0537,-0.1025,1.0186,-0.0610,-0.1221,-0.3662,1,480,821,232
129104608,8096,-0.0527,-0.1035,1.0190,0.0610,-0.0610,-0.2441,1,482,859,232
129109624,8097,-0.0527,-0.1040,1.0171,0.1221,-0.1221,-0.1831,1,467,860,232
129114613,8098,-0.0532,-0.1035,1.0151,0.0000,-0.1221,-0.0610,1,483,853,232
129119615,8099,-0.0547,-0.1021,1.0156,0.0000,-0.2441,-0.2441,1,510,812,232
129124614,8100,-0.0552,-0.1025,1.0171,0.0000,-0.2441,-0.1221,1,473,728,232
129129609,8101,-0.0537,-0.1045,1.0186,-0.1831,-0.1831,-0.2441,1,494,771,232
129134609,8102,-0.0532,-0.1050,1.0186,-0.1221,-0.2441,-0.2441,1,474,894,232
129139617,8103,-0.0552,-0.1025,1.0176,-0.1831,-0.1831,-0.3662,1,483,850,232
129144611,8104,-0.0557,-0.1001,1.0161,-0.1831,-0.3052,-0.3052,1,476,854,232
129149609,8105,-0.0532,-0.1016,1.0176,-0.0610,-0.1831,-0.3052,1,490,866,232
129154611,8106,-0.0508,-0.1035,1.0205,-0.1221,0.0000,-0.1831,1,480,844,232
129159614,8107,-0.0508,-0.1030,1.0205,-0.1831,0.1831,-0.3052,1,481,799,232
129164614,8108,-0.0513,-0.1021,1.0186,-0.1221,0.1221,-0.1831,1,494,845,232
129169610,8109,-0.0522,-0.1021,1.0171,-0.1831,0.1831,-0.1221,1,466,868,232
129174608,8110,-0.0522,-0.1025,1.0161,-0.1831,0.1831,-0.1221,1,483,874,232
129179612,8111,-0.0522,-0.1030,1.0171,-0.3052,0.3052,-0.1831,1,466,882,232
129184615,8112,-0.0518,-0.1025,1.0176,-0.2441,0.2441,-0.1221,1,484,860,232
129189616,8113,-0.0527,-0.1016,1.0176,-0.2441,0.1831,-0.1831,1,466,875,232
129194615,8114,-0.0552,-0.1011,1.0176,-0.3052,0.2441,-0.3052,1,473,921,232
129199616,8115,-0.0547,-0.1016,1.0176,-0.3052,0.3662,-0.1221,1,476,857,232
129204616,8116,-0.0518,-0.1025,1.0186,-0.4272,0.4272,-0.1831,1,477,857,232
129209616,8117,-0.0508,-0.1030,1.0205,-0.3662,0.3662,-0.3662,1,481,879,232
129214616,8118,-0.0518,-0.1040,1.0215,-0.1831,0.3662,-0.3052,1,465,862,232
129219612,8119,-0.0542,-0.1040,1.0195,-0.1831,0.5493,-0.0610,1,481,857,232
129224615,8120,-0.0552,-0.1030,1.0171,-0.2441,0.4272,0.0000,1,510,859,232
129229610,8121,-0.0532,-0.1035,1.0161,-0.0610,0.2441,-0.0610,1,466,726,232
129234616,8122,-0.0513,-0.1025,1.0166,-0.0610,0.3662,-0.1221,1,493,879,232
129239608,8123,-0.0527,-0.1016,1.0186,-0.0610,0.3662,0.0610,1,475,772,232
129244616,8124,-0.0542,-0.1025,1.0190,-0.2441,0.4883,-0.0610,1,490,854,232
129249608,8125,-0.0547,-0.1035,1.0166,-0.1221,0.4883,-0.0610,1,484,848,232
129254611,8126,-0.0562,-0.1035,1.0137,-0.1221,0.3662,-0.0610,1,477,874,232
129259616,8127,-0.0557,-0.1030,1.0142,-0.1831,0.3662,0.0000,1,483,846,232
129264616,8128,-0.0537,-0.1021,1.0161,-0.1221,0.4883,-0.1831,1,485,833,232
129269613,8129,-0.0532,-0.1021,1.0176,-0.1831,0.6104,-0.1221,1,493,847,232
129274624,8130,-0.0542,-0.1035,1.0171,-0.2441,0.6104,-0.2441,1,466,869,232
129279608,8131,-0.0552,-0.1040,1.0156,-0.2441,0.5493,-0.1831,1,465,875,232
129284615,8132,-0.0562,-0.1030,1.0156,-0.1831,0.4883,-0.1221,1,465,883,232
129289617,8133,-0.0547,-0.1021,1.0171,-0.0610,0.3052,-0.1831,1,475,865,232
129294616,8134,-0.0527,-0.1016,1.0186,-0.1221,0.2441,-0.1831,1,465,865,232
129299609,8135,-0.0527,-0.1021,1.0181,0.0000,0.4272,-0.1831,1,465,932,232
129304617,8136,-0.0542,-0.1021,1.0171,-0.1831,0.4272,-0.1221,1,477,818,232
129309610,8137,-0.0542,-0.1035,1.0171,-0.1831,0.3662,-0.1831,1,477,860,232
129314612,8138,-0.0527,-0.1030,1.0176,-0.0610,0.3662,-0.2441,1,467,862,232
129319610,8139,-0.0522,-0.1016,1.0181,-0.1221,0.5493,-0.2441,1,469,861,232
129324614,8140,-0.0527,-0.1021,1.0186,-0.0610,0.4272,-0.1221,1,483,856,232
129329613,8141,-0.0532,-0.1025,1.0181,-0.0610,0.4272,-0.1831,1,510,852,232
129334608,8142,-0.0542,-0.1030,1.0176,-0.1831,0.3052,-0.1831,1,466,877,232
129339612,8143,-0.0537,-0.1035,1.0181,-0.1831,0.4272,-0.0610,1,493,874,232
129344612,8144,-0.0527,-0.1045,1.0186,-0.1831,0.4883,-0.0610,1,487,802,232
129349608,8145,-0.0527,-0.1040,1.0176,-0.1831,0.3662,-0.1221,1,489,848,232
129354609,8146,-0.0537,-0.1030,1.0156,0.0000,0.3052,0.0000,1,483,849,232
129359616,8147,-0.0547,-0.1030,1.0142,0.0610,0.3052,-0.0610,1,490,756,232
129364614,8148,-0.0547,-0.1040,1.0142,-0.1221,0.3662,-0.1221,1,475,837,232
129369614,8149,-0.0542,-0.1035,1.0151,0.0000,0.4272,-0.0610,1,481,843,232
129374609,8150,-0.0537,-0.1021,1.0161,0.0000,0.6104,-0.1221,1,493,802,232
129379616,8151,-0.0537,-0.1025,1.0161,0.0000,0.5493,-0.0610,1,466,824,232
129384615,8152,-0.0547,-0.1025,1.0171,0.0610,0.4272,-0.1221,1,466,864,232
129389609,8153,-0.0552,-0.1021,1.0195,0.0610,0.4883,-0.1221,1,465,869,232
129394616,8154,-0.0547,-0.1025,1.0195,0.0610,0.4272,-0.1221,1,483,859,232
129399609,8155,-0.0537,-0.1040,1.0186,0.0000,0.4272,-0.1221,1,465,903,232
129404617,8156,-0.0537,-0.1016,1.0176,0.0610,0.4272,-0.1831,1,467,826,232
129409608,8157,-0.0557,-0.1001,1.0166,0.0610,0.3662,-0.1221,1,465,874,232
129414614,8158,-0.0566,-0.1021,1.0146,0.0610,0.3052,-0.1831,1,475,822,232
129419611,8159,-0.0562,-0.1040,1.0142,0.1831,0.2441,-0.2441,1,476,856,232
129424630,8160,-0.0557,-0.1045,1.0156,0.1831,0.4272,-0.0610,1,465,862,232
129429616,8161,-0.0557,-0.1021,1.0166,0.2441,0.4272,-0.0610,1,483,860,232
129434610,8162,-0.0566,-0.1011,1.0142,0.0610,0.3662,-0.4272,1,510,858,232
129439612,8163,-0.0586,-0.1040,1.0103,0.1221,0.0000,-0.3662,1,490,903,232
129444615,8164,-0.0557,-0.1050,1.0142,0.3052,-0.1221,-0.3052,1,466,807,232
129449610,8165,-0.0518,-0.1021,1.0205,0.2441,0.2441,-0.2441,1,478,847,232
129454612,8166,-0.0542,-0.0996,1.0200,0.3052,0.3662,-0.3662,1,489,850,232
129459608,8167,-0.0576,-0.1016,1.0151,0.1831,0.0610,-0.3662,1,478,845,232
129464610,8168,-0.0581,-0.1040,1.0127,0.3052,-0.0610,-0.2441,1,490,850,232
129469612,8169,-0.0566,-0.1040,1.0146,0.3052,-0.1221,-0.3052,1,476,846,232
129474608,8170,-0.0542,-0.1040,1.0186,0.1831,-0.0610,-0.3662,1,493,843,232
129479615,8171,-0.0537,-0.1011,1.0200,0.1831,0.1221,-0.1831,1,493,847,232
129484613,8172,-0.0557,-0.0981,1.0176,0.0000,0.1221,-0.1221,1,466,874,232
129489609,8173,-0.0566,-0.0996,1.0146,-0.1831,0.0000,-0.2441,1,483,822,232
129494611,8174,-0.0547,-0.1050,1.0151,-0.1831,-0.0610,-0.3052,1,467,783,232
129499616,8175,-0.0513,-0.1064,1.0186,-0.1831,-0.1221,-0.1831,1,484,816,232
129504612,8176,-0.0508,-0.1021,1.0200,-0.1831,0.1221,-0.0610,1,474,906,232
129509612,8177,-0.0522,-0.1021,1.0181,-0.3052,0.3052,-0.0610,1,482,856,232
129514614,8178,-0.0537,-0.1035,1.0166,-0.0610,0.1831,0.0000,1,467,855,232
129519608,8179,-0.0552,-0.1035,1.0156,-0.2441,0.1831,0.0000,1,469,817,232
129524613,8180,-0.0552,-0.1035,1.0151,-0.4272,0.1831,-0.0610,1,480,818,232
129529612,8181,-0.0532,-0.1035,1.0176,-0.1831,0.1831,-0.0610,1,475,862,232
129534609,8182,-0.0537,-0.1050,1.0195,-0.1831,0.2441,0.0000,1,483,862,232
129539612,8183,-0.0547,-0.1030,1.0171,-0.1221,0.4272,-0.1831,1,466,771,232
129544616,8184,-0.0552,-0.1035,1.0161,-0.1831,0.3662,-0.1221,1,494,870,232
129549609,8185,-0.0557,-0.1040,1.0166,-0.1221,0.1221,-0.0610,1,493,812,232
129554611,8186,-0.0547,-0.1030,1.0186,0.0000,0.2441,-0.1831,1,474,842,232
129559612,8187,-0.0537,-0.1025,1.0200,-0.0610,0.3662,-0.1221,1,482,824,232
129564610,8188,-0.0542,-0.1025,1.0181,-0.0610,0.3052,-0.1221,1,492,847,232
129569610,8189,-0.0547,-0.1025,1.0146,0.0000,0.1831,-0.1831,1,485,838,232
129574617,8190,-0.0552,-0.1025,1.0127,0.0000,0.1831,-0.1831,1,471,807,232
129579614,8191,-0.0552,-0.1025,1.0127,0.0000,0.0610,-0.2441,1,487,806,232
129584609,8192,-0.0537,-0.1025,1.0146,0.1221,0.0610,-0.1831,1,466,802,232
129589616,8193,-0.0522,-0.1025,1.0166,0.0000,0.0610,-0.1831,1,466,877,232
129594613,8194,-0.0522,-0.1021,1.0176,0.0000,0.1831,-0.1831,1,465,823,232
129599612,8195,-0.0537,-0.1021,1.0166,0.0610,0.1831,-0.2441,1,484,822,232
129604608,8196,-0.0552,-0.1030,1.0161,0.0610,0.1221,-0.2441,1,465,877,232
129609615,8197,-0.0547,-0.1040,1.0176,0.0610,0.0000,-0.1221,1,479,931,232
129614613,8198,-0.0532,-0.1035,1.0195,0.0610,0.0000,-0.1831,1,477,812,232
129619611,8199,-0.0527,-0.1025,1.0190,0.0610,0.1221,-0.1221,1,465,817,232
129624613,8200,-0.0527,-0.1030,1.0186,0.0000,0.1831,-0.2441,1,469,854,232
129629613,8201,-0.0532,-0.1016,1.0186,0.0000,0.2441,-0.2441,1,467,816,232
129634614,8202,-0.0542,-0.0991,1.0181,-0.0610,0.2441,-0.2441,1,484,815,232
129639614,8203,-0.0552,-0.1006,1.0186,-0.1221,0.2441,-0.2441,1,510,856,232
129644608,8204,-0.0552,-0.1025,1.0195,-0.1221,0.2441,-0.1831,1,466,901,232
129649613,8205,-0.0547,-0.1030,1.0181,-0.1831,0.3052,-0.1831,1,491,880,232
129654609,8206,-0.0547,-0.1035,1.0156,-0.2441,0.1831,-0.1831,1,464,825,232
129659608,8207,-0.0552,-0.1040,1.0146,-0.1831,0.1831,-0.1221,1,488,866,232
129664611,8208,-0.0557,-0.1045,1.0146,-0.1831,0.0610,-0.1221,1,473,849,232
129669614,8209,-0.0566,-0.1050,1.0151,-0.1831,0.0000,-0.2441,1,478,875,232
129674614,8210,-0.0566,-0.1045,1.0146,0.0000,0.0610,-0.1831,1,483,809,232
129679609,8211,-0.0542,-0.1050,1.0146,-0.0610,0.0610,-0.3052,1,488,806,232
129684613,8212,-0.0518,-0.1050,1.0166,-0.0610,0.0610,-0.3052,1,488,871,232
129689626,8213,-0.0513,-0.1030,1.0181,0.0000,0.1831,-0.2441,1,493,841,232
129694615,8214,-0.0537,-0.1021,1.0171,0.0610,-0.0610,-0.3052,1,466,831,232
129699613,8215,-0.0557,-0.1021,1.0146,0.0000,-0.1221,-0.3052,1,483,894,232
129704611,8216,-0.0557,-0.1035,1.0146,0.0000,-0.0610,-0.2441,1,466,745,232
129709610,8217,-0.0542,-0.1045,1.0176,0.0000,0.0610,-0.3052,1,484,862,232
129714615,8218,-0.0522,-0.1035,1.0195,0.0610,0.0000,-0.2441,1,480,811,232
129719613,8219,-0.0522,-0.1016,1.0186,0.0000,0.0000,-0.1831,1,477,833,232
129724615,8220,-0.0532,-0.1011,1.0161,0.1221,0.1221,-0.1831,1,482,766,232
129729610,8221,-0.0532,-0.1030,1.0156,-0.1221,0.1221,-0.2441,1,465,872,232
129734614,8222,-0.0537,-0.1050,1.0176,0.0610,0.1221,-0.2441,1,469,858,232
129739633,8223,-0.0542,-0.1045,1.0181,0.1221,0.1831,-0.3052,1,466,855,232
129744610,8224,-0.0552,-0.1025,1.0176,0.0000,0.0610,-0.2441,1,484,848,232
129749617,8225,-0.0552,-0.1025,1.0166,0.0610,0.0610,-0.3052,1,493,812,232
129754608,8226,-0.0547,-0.1035,1.0166,0.0000,0.0610,-0.2441,1,466,870,232
129759608,8227,-0.0522,-0.1040,1.0181,0.1221,0.0610,-0.1831,1,494,729,232
129764611,8228,-0.0508,-0.1045,1.0186,0.0610,0.2441,-0.2441,1,481,853,232
129769612,8229,-0.0508,-0.1050,1.0190,0.1221,0.1831,-0.3052,1,486,845,232
129774616,8230,-0.0518,-0.1040,1.0200,0.1831,0.1831,-0.1831,1,492,839,232
129779608,8231,-0.0527,-0.1035,1.0195,0.0610,0.1831,-0.1831,1,473,850,232
129784609,8232,-0.0537,-0.1035,1.0186,0.0610,0.2441,-0.2441,1,481,854,232
129789614,8233,-0.0537,-0.1030,1.0181,0.1221,0.1831,-0.3662,1,488,853,232
129794610,8234,-0.0532,-0.1025,1.0181,0.0000,0.1831,-0.3052,1,492,847,232
129799608,8235,-0.0527,-0.1035,1.0176,0.0000,0.2441,-0.3662,1,466,827,232
129804616,8236,-0.0537,-0.1050,1.0161,0.2441,0.1831,-0.2441,1,484,834,232
129809616,8237,-0.0542,-0.1045,1.0146,0.0610,0.1831,-0.3052,1,465,886,232
129814615,8238,-0.0552,-0.1040,1.0142,0.1831,0.2441,-0.3052,1,484,862,232
129819614,8239,-0.0562,-0.1035,1.0156,0.0610,0.1831,-0.2441,1,465,874,232
129824609,8240,-0.0557,-0.1021,1.0181,0.1221,0.0610,-0.3052,1,479,922,232
129829617,8241,-0.0537,-0.1030,1.0190,0.0610,0.2441,-0.3052,1,467,888,232
129834610,8242,-0.0518,-0.1050,1.0186,0.1221,0.1221,-0.3052,1,465,873,232
129839614,8243,-0.0513,-0.1045,1.0171,-0.0610,0.1831,-0.3052,1,476,845,232
129844624,8244,-0.0522,-0.1030,1.0161,0.1221,0.1831,-0.3662,1,475,880,232
129849643,8245,-0.0537,-0.1025,1.0161,0.0610,0.1221,-0.3052,1,484,861,232
129854609,8246,-0.0557,-0.1040,1.0171,0.0000,0.1221,-0.3662,1,484,854,232
129859616,8247,-0.0566,-0.1050,1.0186,0.0000,-0.0610,-0.3662,1,466,758,232
129864616,8248,-0.0547,-0.1035,1.0205,0.2441,0.0000,-0.3662,1,494,727,232
129869615,8249,-0.0522,-0.1035,1.0205,0.1831,0.0000,-0.3662,1,465,805,232
129874608,8250,-0.0513,-0.1040,1.0190,0.3662,0.1221,-0.3662,1,475,808,232
129879611,8251,-0.0518,-0.1035,1.0171,0.3662,0.1221,-0.3052,1,490,847,232
129884608,8252,-0.0522,-0.1045,1.0166,0.2441,0.1221,-0.3662,1,485,869,232
129889612,8253,-0.0527,-0.1045,1.0181,0.4272,0.1221,-0.4272,1,473,851,232
129894616,8254,-0.0518,-0.1025,1.0190,0.3052,0.3662,-0.4883,1,476,846,232
129899614,8255,-0.0518,-0.1011,1.0190,0.3052,0.3662,-0.3662,1,493,876,232
129904609,8256,-0.0518,-0.1016,1.0195,0.2441,0.3662,-0.3052,1,466,871,232
129909615,8257,-0.0508,-0.1030,1.0210,0.2441,0.6104,-0.2441,1,466,874,232
129914612,8258,-0.0503,-0.1025,1.0195,0.3052,0.5493,-0.1831,1,484,901,232
129919610,8259,-0.0508,-0.1006,1.0190,0.2441,0.6714,-0.1831,1,480,866,232
129924609,8260,-0.0498,-0.0986,1.0195,0.0000,0.8545,-0.2441,1,465,871,232
129929610,8261,-0.0513,-0.1016,1.0195,0.0000,0.7324,-0.1831,1,467,825,232
129934610,8262,-0.0537,-0.1064,1.0205,-0.1221,0.7935,0.0000,1,467,822,232
129939613,8263,-0.0532,-0.1035,1.0215,0.0000,1.0376,0.0610,1,466,829,232
129944615,8264,-0.0522,-0.0991,1.0215,-0.2441,1.1597,-0.1831,1,465,810,232
129949616,8265,-0.0518,-0.1006,1.0200,-0.4272,1.3428,-0.1831,1,482,865,232
129954617,8266,-0.0522,-0.1030,1.0190,-0.3052,1.3428,0.0610,1,482,886,232
129959613,8267,-0.0527,-0.1030,1.0190,-0.4272,1.3428,0.1221,1,483,855,232
129964614,8268,-0.0503,-0.1006,1.0210,-0.6104,1.4648,0.0610,1,510,857,232
129969609,8269,-0.0503,-0.1011,1.0200,-0.6714,1.5869,-0.1221,1,466,864,232
129974615,8270,-0.0537,-0.1030,1.0161,-0.7935,1.5869,0.1221,1,494,791,232
129979616,8271,-0.0562,-0.1040,1.0137,-0.6714,1.4648,0.2441,1,479,775,232
129984611,8272,-0.0591,-0.1035,1.0107,-0.7324,1.4038,0.0610,1,480,860,232
129989609,8273,-0.0605,-0.1030,1.0093,-0.9766,1.1597,0.1221,1,490,848,232
129994614,8274,-0.0586,-0.1035,1.0103,-0.7935,0.9155,0.1221,1,478,867,232
129999617,8275,-0.0557,-0.1040,1.0132,-0.5493,1.0376,0.0610,1,483,844,232
130004616,8276,-0.0610,-0.1021,1.0112,-0.6104,0.9155,0.0000,1,488,845,232
130009616,8277,-0.0640,-0.1006,1.0112,-0.8545,-0.1221,0.0000,1,492,800,232
130014612,8278,-0.0518,-0.1069,1.0229,-0.7935,0.4272,-0.1221,1,465,825,232
130019616,8279,-0.0474,-0.1113,1.0273,-0.3052,1.4038,-0.1221,1,465,876,232
130024608,8280,-0.0547,-0.1060,1.0186,-0.4272,0.9766,0.0000,1,465,877,232
130029613,8281,-0.0571,-0.1021,1.0137,-0.8545,0.9155,-0.0610,1,484,827,232
130034615,8282,-0.0557,-0.1021,1.0146,-0.5493,1.1597,0.0000,1,465,901,232
130039611,8283,-0.0566,-0.1040,1.0142,-0.6104,1.2207,0.0610,1,479,821,232
130044611,8284,-0.0571,-0.1069,1.0146,-0.6104,1.0376,0.0000,1,467,871,232
130049617,8285,-0.0562,-0.1074,1.0156,-0.3662,1.0986,-0.0610,1,472,814,232
130054608,8286,-0.0571,-0.1064,1.0142,-0.3052,0.9766,-0.1221,1,474,861,232
130059610,8287,-0.0566,-0.1060,1.0127,-0.3662,0.8545,-0.1831,1,465,853,232
130064613,8288,-0.0557,-0.1069,1.0146,-0.1831,0.9155,-0.1221,1,484,861,232
130069612,8289,-0.0552,-0.1069,1.0161,-0.1831,0.9766,-0.1831,1,510,861,232
130074612,8290,-0.0557,-0.1040,1.0171,-0.0610,0.7324,-0.1831,1,473,909,232
130079612,8291,-0.0542,-0.1030,1.0186,0.0000,0.7935,-0.0610,1,494,873,232
130084609,8292,-0.0513,-0.1045,1.0171,-0.0610,0.9766,-0.1831,1,464,797,232
130089608,8293,-0.0537,-0.1045,1.0142,0.0000,1.0986,-0.1221,1,475,842,232
130094608,8294,-0.0586,-0.1030,1.0098,-0.1221,0.9155,-0.0610,1,484,828,232
130099614,8295,-0.0620,-0.1025,1.0063,-0.0610,0.6104,-0.1221,1,471,842,232
130104612,8296,-0.0615,-0.1045,1.0073,-0.0610,0.5493,-0.1831,1,492,842,232
130109611,8297,-0.0581,-0.1064,1.0117,-0.1221,0.3662,-0.2441,1,478,851,232
130114613,8298,-0.0552,-0.1055,1.0156,-0.0610,0.5493,-0.2441,1,493,855,232
130119608,8299,-0.0547,-0.1040,1.0171,0.0000,0.4272,-0.0610,1,466,876,232
130124613,8300,-0.0547,-0.1035,1.0161,-0.0610,0.4272,-0.1221,1,483,823,232
130129610,8301,-0.0557,-0.1050,1.0142,0.0000,0.3662,-0.1831,1,466,864,232
130134609,8302,-0.0571,-0.1069,1.0137,0.0610,0.3052,-0.1221,1,484,830,232
130139611,8303,-0.0571,-0.1064,1.0156,0.1221,0.1831,-0.0610,1,468,899,232
130144611,8304,-0.0547,-0.1050,1.0186,0.3052,0.2441,-0.1221,1,471,867,232
130149614,8305,-0.0518,-0.1050,1.0200,0.3662,0.3662,-0.0610,1,475,895,232
130154612,8306,-0.0508,-0.1064,1.0186,0.4272,0.4883,-0.0610,1,475,873,232
130159612,8307,-0.0522,-0.1074,1.0176,0.5493,0.6714,-0.3052,1,479,854,232
130164612,8308,-0.0547,-0.1064,1.0171,0.6104,0.6104,-0.4272,1,480,887,232
130169611,8309,-0.0571,-0.1055,1.0161,0.6104,0.6104,-0.3052,1,484,850,232
130174614,8310,-0.0591,-0.1050,1.0151,0.6714,0.5493,-0.0610,1,510,851,232
130179616,8311,-0.0586,-0.1040,1.0151,0.8545,0.4883,0.0610,1,467,872,232
130184614,8312,-0.0566,-0.1035,1.0171,0.9155,0.3662,-0.0610,1,493,872,232
130189609,8313,-0.0557,-0.1040,1.0176,0.8545,0.4883,-0.1221,1,465,802,232
130194615,8314,-0.0562,-0.1050,1.0161,0.7324,0.6714,-0.1831,1,474,841,232
130199617,8315,-0.0571,-0.1055,1.0151,0.7935,0.7324,-0.0610,1,478,850,232
130204609,8316,-0.0581,-0.1055,1.0142,0.7935,0.5493,0.0000,1,485,869,232
130209612,8317,-0.0610,-0.1050,1.0107,0.9155,0.4272,0.0610,1,482,805,232
130214611,8318,-0.0645,-0.1035,1.0068,0.8545,0.1831,-0.0610,1,484,848,232
130219616,8319,-0.0649,-0.1025,1.0063,0.9155,-0.0610,-0.1831,1,492,847,232
130224615,8320,-0.0615,-0.1045,1.0098,0.9766,-0.1831,-0.4272,1,466,879,232
130229616,8321,-0.0562,-0.1064,1.0166,0.9155,-0.0610,-0.4272,1,483,875,232
130234612,8322,-0.0508,-0.1055,1.0225,0.9766,0.1221,-0.3052,1,465,869,232
130239611,8323,-0.0508,-0.1025,1.0239,0.9155,0.1831,-0.3662,1,484,853,232
130244608,8324,-0.0552,-0.1006,1.0210,0.9766,0.1221,-0.1831,1,477,908,232
130249617,8325,-0.0581,-0.1011,1.0176,1.0376,0.1831,-0.2441,1,466,856,232
130254617,8326,-0.0576,-0.1035,1.0146,0.9155,0.1831,-0.3052,1,482,875,232
130259613,8327,-0.0557,-0.1055,1.0161,0.9766,0.1831,-0.3052,1,467,879,232
130264611,8328,-0.0532,-0.1045,1.0210,0.9155,0.1831,-0.2441,1,477,855,232
130269640,8329,-0.0527,-0.1035,1.0225,0.8545,0.5493,-0.3052,1,478,861,232
130274611,8330,-0.0542,-0.1030,1.0195,0.8545,0.6104,-0.3662,1,483,858,232
130279614,8331,-0.0562,-0.1030,1.0166,0.6714,0.4883,-0.3662,1,465,903,232
130284616,8332,-0.0566,-0.1035,1.0161,0.7935,0.5493,-0.4883,1,494,875,232
130289616,8333,-0.0557,-0.1025,1.0166,0.9155,0.4883,-0.3662,1,493,813,232
130294614,8334,-0.0576,-0.1016,1.0156,0.8545,0.4883,-0.3052,1,492,805,232
130299611,8335,-0.0605,-0.1001,1.0132,0.7324,0.1831,-0.3052,1,481,844,232
130304614,8336,-0.0581,-0.1011,1.0142,0.6104,-0.1221,-0.3662,1,473,868,232
130309609,8337,-0.0615,-0.1016,1.0132,0.6104,0.0610,-0.3052,1,481,842,232
130314608,8338,-0.0615,-0.1011,1.0127,0.5493,-1.0376,-0.2441,1,472,869,232
130319616,8339,-0.0498,-0.1069,1.0229,0.5493,-0.3052,-0.3052,1,493,849,232
130324611,8340,-0.0522,-0.1064,1.0220,1.1597,0.6104,-0.1831,1,466,849,232
130329616,8341,-0.0625,-0.0972,1.0107,0.8545,-0.2441,-0.2441,1,483,877,232
130334610,8342,-0.0615,-0.0957,1.0103,0.3662,-0.6104,-0.2441,1,465,876,232
130339614,8343,-0.0596,-0.0967,1.0132,0.5493,-0.4272,-0.2441,1,484,866,232
130344617,8344,-0.0542,-0.1025,1.0195,0.1221,-0.8545,-0.3052,1,466,906,232
130349615,8345,-0.0464,-0.1099,1.0283,0.5493,-0.0610,-0.1831,1,469,861,232
130354608,8346,-0.0518,-0.1069,1.0249,0.8545,0.4883,-0.2441,1,477,876,232
130359614,8347,-0.0581,-0.1021,1.0176,0.3662,-0.0610,-0.2441,1,471,876,232
130364608,8348,-0.0566,-0.1016,1.0181,0.5493,0.0610,-0.3052,1,472,859,232
130369629,8349,-0.0562,-0.1011,1.0195,0.6104,0.4272,-0.1831,1,479,851,232
130374613,8350,-0.0562,-0.1011,1.0195,0.4272,0.2441,-0.1221,1,483,855,232
130379608,8351,-0.0547,-0.1001,1.0190,0.6104,0.3052,-0.0610,1,466,902,232
130384615,8352,-0.0537,-0.0986,1.0176,0.5493,0.4883,-0.1831,1,495,861,232
130389613,8353,-0.0547,-0.0991,1.0166,0.4272,0.3052,-0.1831,1,494,817,232
130394611,8354,-0.0557,-0.1001,1.0176,0.6104,0.4272,-0.1221,1,490,857,232
130399617,8355,-0.0552,-0.1006,1.0186,0.6104,0.3662,-0.1831,1,478,837,232
130404613,8356,-0.0562,-0.1025,1.0176,0.4883,0.4883,-0.0610,1,483,873,232
130409610,8357,-0.0562,-0.1025,1.0176,0.5493,0.3662,-0.0610,1,476,844,232
130414610,8358,-0.0547,-0.1011,1.0195,0.4272,0.4883,-0.2441,1,490,849,232
130419615,8359,-0.0527,-0.1011,1.0210,0.4883,0.7324,-0.0610,1,487,847,232
130424612,8360,-0.0527,-0.1016,1.0215,0.5493,0.7935,0.0610,1,494,843,232
130429608,8361,-0.0537,-0.0996,1.0210,0.5493,0.8545,0.0610,1,484,872,232
130434612,8362,-0.0542,-0.0977,1.0200,0.4883,1.0376,0.0610,1,466,874,232
130439613,8363,-0.0542,-0.0996,1.0181,0.3052,1.0986,0.0000,1,484,856,232
130444610,8364,-0.0557,-0.1030,1.0151,0.2441,1.1597,-0.1831,1,465,815,232
130449613,8365,-0.0581,-0.1060,1.0112,0.4272,1.0986,-0.0610,1,478,921,232
130454610,8366,-0.0610,-0.1045,1.0083,0.5493,1.0986,0.1831,1,479,869,232
130459613,8367,-0.0635,-0.1001,1.0073,0.5493,0.7324,-0.0610,1,465,879,232
130464609,8368,-0.0605,-0.1001,1.0112,0.6104,0.5493,-0.0610,1,467,853,232
130469617,8369,-0.0552,-0.1030,1.0166,0.6714,0.7324,-0.0610,1,475,882,232
130474611,8370,-0.0537,-0.1025,1.0186,0.7935,0.9766,-0.0610,1,484,858,232
130479613,8371,-0.0537,-0.0996,1.0181,0.9155,0.9155,0.0610,1,484,854,232
130484612,8372,-0.0547,-0.0981,1.0181,0.7935,1.0376,0.0000,1,466,906,232
130489614,8373,-0.0542,-0.1006,1.0176,0.8545,1.2207,-0.0610,1,472,749,232
130494614,8374,-0.0542,-0.1030,1.0181,0.7935,1.4038,-0.0610,1,493,798,232
130499614,8375,-0.0552,-0.1035,1.0181,0.9155,1.4038,-0.0610,1,485,852,232
130504610,8376,-0.0562,-0.1006,1.0156,0.9155,1.4648,0.0610,1,472,846,232
130509610,8377,-0.0562,-0.0991,1.0156,0.8545,1.5259,-0.0610,1,483,876,232
130514608,8378,-0.0557,-0.1006,1.0171,0.8545,1.5869,0.0610,1,489,867,232
130519612,8379,-0.0557,-0.1016,1.0156,0.9155,1.5869,0.0000,1,478,840,232
130524610,8380,-0.0566,-0.1021,1.0122,0.8545,1.6479,0.0000,1,472,803,232
130529627,8381,-0.0571,-0.1011,1.0112,0.9766,1.5869,0.0000,1,493,802,232
130534614,8382,-0.0591,-0.0986,1.0107,0.9766,1.7090,0.0000,1,466,859,232
130539613,8383,-0.0601,-0.1006,1.0142,0.6714,1.4038,0.0610,1,484,813,232
130544613,8384,-0.0547,-0.1069,1.0186,0.9155,1.5869,0.0610,1,478,854,232
130549612,8385,-0.0552,-0.1079,1.0156,1.3428,2.1362,0.1221,1,465,876,232
130554615,8386,-0.0620,-0.1030,1.0078,1.3428,2.0142,0.1221,1,471,920,232
130559616,8387,-0.0654,-0.0996,1.0049,1.4038,1.5869,0.0000,1,472,862,232
130564613,8388,-0.0630,-0.1011,1.0073,1.5869,1.5259,0.0000,1,478,832,232
130569612,8389,-0.0615,-0.1021,1.0122,1.8311,1.7090,-0.0610,1,465,841,232
130574615,8390,-0.0605,-0.1011,1.0156,1.7090,1.4038,0.0610,1,468,883,232
130579610,8391,-0.0659,-0.0967,1.0088,1.6479,1.2207,0.0610,1,484,853,232
130584611,8392,-0.0635,-0.0967,1.0088,1.4648,0.1831,0.1221,1,483,857,232
130589617,8393,-0.0527,-0.0986,1.0166,1.3428,0.9766,0.1831,1,493,873,232
130594616,8394,-0.0483,-0.0996,1.0234,1.5869,1.2817,0.3662,1,477,880,232
130599609,8395,-0.0381,-0.1089,1.0361,1.5259,2.1973,0.4272,1,493,820,232
130604616,8396,-0.0376,-0.1118,1.0352,2.4414,4.2725,0.7324,1,482,859,232
130609609,8397,-0.0503,-0.0996,1.0195,2.3193,4.4556,0.8545,1,483,857,232
130614608,8398,-0.0620,-0.0933,1.0063,1.8311,4.2725,0.9155,1,476,851,232
130619610,8399,-0.0688,-0.0967,1.0000,2.2583,4.1504,0.9766,1,488,846,232
130624611,8400,-0.0684,-0.1021,1.0010,2.4414,4.2114,0.8545,1,488,843,232
130629608,8401,-0.0630,-0.1025,1.0083,2.8076,4.4556,0.7935,1,487,847,232
130634616,8402,-0.0576,-0.1006,1.0181,2.9297,4.6387,0.7935,1,466,850,232
130639610,8403,-0.0537,-0.1006,1.0244,3.1738,4.9438,0.7935,1,466,874,232
130644613,8404,-0.0532,-0.1006,1.0264,3.2959,5.3101,0.7935,1,465,884,232
130649615,8405,-0.0552,-0.0996,1.0259,3.3569,5.6152,0.7935,1,485,861,232
130654610,8406,-0.0586,-0.0986,1.0234,3.6621,5.7983,0.8545,1,466,882,232
130659616,8407,-0.0635,-0.0967,1.0176,3.7842,5.8594,0.7324,1,469,875,232
130664616,8408,-0.0684,-0.0947,1.0112,3.8452,5.6152,0.4883,1,470,875,232
130669615,8409,-0.0688,-0.0952,1.0107,3.9062,5.3711,0.4883,1,475,875,232
130674615,8410,-0.0654,-0.0977,1.0137,4.2114,5.2490,0.1831,1,482,861,232
130679618,8411,-0.0679,-0.0991,1.0103,4.4556,5.2490,0.0610,1,465,864,232
130684616,8412,-0.0796,-0.0991,0.9995,5.0049,4.7607,0.0000,1,483,858,232
130689613,8413,-0.0898,-0.1016,0.9927,5.3101,3.6621,-0.3662,1,510,814,232
130694615,8414,-0.0864,-0.1030,0.9966,5.9204,2.6855,-0.6714,1,466,875,232
130699613,8415,-0.0742,-0.0986,1.0107,6.3477,2.5024,-0.7935,1,494,881,232
130704610,8416,-0.0640,-0.0903,1.0239,6.2256,2.5024,-0.9155,1,464,805,232
130709616,8417,-0.0635,-0.0840,1.0254,6.1035,2.5024,-0.8545,1,477,853,232
130714616,8418,-0.0679,-0.0854,1.0234,5.7373,2.3804,-0.9155,1,483,848,232
130719615,8419,-0.0664,-0.0845,1.0259,5.6152,2.1973,-0.8545,1,471,856,232
130724614,8420,-0.0640,-0.0757,1.0283,5.1880,2.4414,-0.7324,1,475,851,232
130729610,8421,-0.0654,-0.0747,1.0264,4.1504,2.2583,-0.6104,1,486,857,232
130734629,8422,-0.0684,-0.0806,1.0210,3.7842,2.2583,-0.4272,1,492,850,232
130739609,8423,-0.0718,-0.0815,1.0151,3.6621,2.1362,-0.4272,1,466,875,232
130744611,8424,-0.0723,-0.0796,1.0132,3.2959,2.0142,-0.4883,1,484,888,232
130749611,8425,-0.0713,-0.0796,1.0166,2.9297,2.0752,-0.4883,1,479,862,232
130754612,8426,-0.0718,-0.0786,1.0186,2.6855,1.7700,-0.5493,1,465,876,232
130759612,8427,-0.0718,-0.0781,1.0190,2.3193,1.5259,-0.5493,1,469,921,232
130764616,8428,-0.0698,-0.0825,1.0195,2.0142,1.4648,-0.4883,1,472,871,232
130769608,8429,-0.0723,-0.0859,1.0156,2.1362,1.4038,-0.4272,1,476,908,232
130774610,8430,-0.0796,-0.0864,1.0083,2.1362,1.1597,-0.6104,1,467,883,232
130779609,8431,-0.0830,-0.0869,1.0015,2.3804,0.5493,-0.9155,1,469,860,232
130784642,8432,-0.0869,-0.0864,0.9937,2.4414,0.0000,-0.9155,1,484,858,232
130789614,8433,-0.0942,-0.0879,0.9868,2.4414,-0.9766,-1.0986,1,483,817,232
130794615,8434,-0.0889,-0.0942,0.9922,2.7466,-2.1362,-1.2817,1,492,879,232
130799613,8435,-0.0737,-0.0991,1.0063,3.1738,-1.7700,-1.2817,1,470,882,232
130804610,8436,-0.0693,-0.0947,1.0142,3.7842,-1.5869,-1.2817,1,493,887,232
130809612,8437,-0.0737,-0.0864,1.0127,3.9673,-2.0142,-1.4648,1,492,808,232
130814612,8438,-0.0796,-0.0859,1.0068,3.7842,-2.3193,-1.5259,1,476,855,232
130819609,8439,-0.0820,-0.0879,1.0059,4.0894,-3.0518,-1.6479,1,485,855,232
130824616,8440,-0.0762,-0.0889,1.0122,4.0894,-3.2959,-1.6479,1,486,872,232
130829609,8441,-0.0708,-0.0879,1.0166,4.2114,-3.2349,-1.5869,1,491,851,232
130834615,8442,-0.0703,-0.0825,1.0137,4.2725,-3.6621,-1.5259,1,481,855,232
130839630,8443,-0.0737,-0.0781,1.0083,4.0283,-4.0894,-1.6479,1,493,853,232
130844609,8444,-0.0742,-0.0791,1.0083,3.9062,-4.6997,-1.5869,1,466,882,232
130849616,8445,-0.0723,-0.0771,1.0112,3.7842,-5.0049,-1.6479,1,465,890,232
130854613,8446,-0.0664,-0.0757,1.0171,3.2349,-5.4321,-1.5869,1,478,870,232
130859611,8447,-0.0581,-0.0791,1.0225,3.1128,-5.1880,-1.4648,1,465,882,232
130864610,8448,-0.0596,-0.0796,1.0190,3.3569,-4.8218,-1.1597,1,476,926,232
130869610,8449,-0.0688,-0.0806,1.0088,3.1738,-5.1270,-1.1597,1,482,869,232
130874610,8450,-0.0771,-0.0815,0.9990,3.3569,-5.7373,-1.2207,1,466,876,232
130879610,8451,-0.0820,-0.0786,0.9971,3.2349,-6.7749,-1.2817,1,469,888,232
130884617,8452,-0.0747,-0.0796,1.0054,2.9907,-7.5073,-1.3428,1,472,865,232
130889613,8453,-0.0630,-0.0859,1.0146,3.4180,-7.3853,-1.4648,1,484,861,232
130894615,8454,-0.0615,-0.0840,1.0166,3.7231,-7.3242,-1.5869,1,466,866,232
130899608,8455,-0.0684,-0.0771,1.0117,3.6011,-7.9346,-1.7700,1,493,888,232
130904608,8456,-0.0693,-0.0791,1.0093,3.4790,-8.7280,-1.8921,1,477,878,232
130909608,8457,-0.0654,-0.0840,1.0107,3.8452,-8.6670,-2.0142,1,465,786,232
130914609,8458,-0.0679,-0.0845,1.0098,4.2725,-9.2773,-2.2583,1,476,865,232
130919613,8459,-0.0718,-0.0801,1.0054,4.5166,-9.9487,-2.5635,1,482,854,232
130924613,8460,-0.0723,-0.0747,1.0034,4.5776,-10.6201,-2.6855,1,478,877,232
130929614,8461,-0.0664,-0.0747,1.0083,4.3335,-11.2305,-2.8076,1,485,876,232
130934610,8462,-0.0625,-0.0728,1.0161,4.5166,-11.2915,-2.8687,1,473,872,232
130939615,8463,-0.0654,-0.0610,1.0195,4.2725,-11.4746,-2.9907,1,480,876,232
130944633,8464,-0.0698,-0.0542,1.0161,3.3569,-12.0239,-3.3569,1,493,878,232
130949608,8465,-0.0703,-0.0581,1.0117,2.7466,-13.0615,-3.5400,1,466,908,232
130954609,8466,-0.0728,-0.0610,1.0073,2.1362,-13.5498,-3.4180,1,466,932,232
130959615,8467,-0.0923,-0.0596,0.9971,1.4648,-14.4653,-3.6011,1,484,903,232
130964608,8468,-0.1201,-0.0576,0.9824,0.5493,-17.3340,-3.5400,1,465,885,232
130969611,8469,-0.1235,-0.0522,0.9785,-0.3052,-21.2402,-3.4180,1,476,924,232
130974609,8470,-0.1064,-0.0474,0.9858,-1.4648,-23.2544,-3.7842,1,474,891,232
130979613,8471,-0.0933,-0.0439,0.9927,-2.5024,-25.1465,-3.7842,1,479,900,232
130984608,8472,-0.0850,-0.0396,0.9966,-3.6011,-27.3437,-4.0894,1,477,897,232
130989615,8473,-0.0840,-0.0308,0.9976,-4.5776,-28.9917,-4.8218,1,465,874,232
130994616,8474,-0.0864,-0.0322,0.9980,-5.6763,-31.4941,-5.9204,1,478,906,232
130999611,8475,-0.0752,-0.0537,1.0039,-7.0801,-33.5693,-6.0425,1,484,887,232
131004612,8476,-0.0679,-0.0596,1.0059,-7.2632,-34.6680,-5.9814,1,492,886,232
131009608,8477,-0.0723,-0.0479,1.0024,-8.7280,-37.1704,-6.6528,1,466,891,232
131014610,8478,-0.0615,-0.0542,1.0088,-10.3149,-39.3677,-7.0801,1,493,894,232
131019611,8479,-0.0449,-0.0679,1.0195,-10.3149,-40.4663,-7.2632,1,487,800,232
131024613,8480,-0.0386,-0.0718,1.0234,-10.8643,-42.0532,-7.8125,1,471,872,232
131029616,8481,-0.0366,-0.0688,1.0254,-11.9019,-43.3960,-8.1177,1,491,887,232
131034615,8482,-0.0356,-0.0684,1.0293,-12.5732,-44.5557,-8.3618,1,476,890,232
131039612,8483,-0.0244,-0.0723,1.0391,-12.8784,-45.4712,-8.9111,1,486,915,232
131044608,8484,-0.0044,-0.0776,1.0483,-13.6719,-45.2881,-9.2773,1,473,892,232
131049628,8485,0.0083,-0.0908,1.0503,-14.0381,-44.7998,-9.7046,1,493,917,232
131054610,8486,0.0234,-0.1104,1.0518,-13.5498,-45.1660,-9.7046,1,466,908,232
131059608,8487,0.0288,-0.1191,1.0469,-11.7187,-43.8232,-9.8267,1,484,915,232
131064616,8488,0.0049,-0.1099,1.0317,-10.9863,-43.5181,-10.4370,1,478,958,232
131069610,8489,-0.0093,-0.1055,1.0229,-10.6201,-45.5933,-11.1084,1,484,929,232
131074616,8490,0.0029,-0.1167,1.0249,-9.3994,-46.1426,-11.3525,1,483,870,232
131079615,8491,0.0112,-0.1245,1.0264,-7.9956,-45.9595,-11.1694,1,481,950,232
131084609,8492,0.0083,-0.1182,1.0229,-6.8970,-46.3257,-10.9863,1,482,916,232
131089614,8493,0.0098,-0.1094,1.0215,-5.9204,-47.1191,-11.1084,1,469,909,232
131094613,8494,0.0225,-0.1030,1.0249,-4.8218,-47.4243,-11.2915,1,466,909,232
131099617,8495,0.0356,-0.0962,1.0288,-3.9062,-47.1191,-11.1084,1,465,903,232
131104608,8496,0.0322,-0.0903,1.0259,-3.4180,-47.0581,-11.3525,1,483,931,232
131109613,8497,0.0396,-0.0908,1.0225,-3.4790,-48.0347,-11.4136,1,466,901,232
131114610,8498,0.0737,-0.0947,1.0317,-3.2959,-48.2788,-11.1694,1,465,914,232
131119615,8499,0.1040,-0.0903,1.0425,-3.4790,-46.2036,-10.0098,1,494,927,232
131124610,8500,0.1226,-0.0898,1.0449,-4.3335,-44.3115,-8.4229,1,465,799,232
131129612,8501,0.1001,-0.0918,1.0420,-5.0659,-41.9311,-7.1411,1,490,905,232
131134611,8502,0.0337,-0.0835,1.0337,-5.9204,-43.5181,-5.9814,1,475,868,232
131139614,8503,-0.0122,-0.0747,1.0269,-7.4463,-47.4853,-4.6997,1,485,869,232
131144613,8504,-0.0244,-0.0713,1.0283,-8.9111,-50.2930,-3.7231,1,490,900,232
131149613,8505,-0.0010,-0.0771,1.0337,-10.6201,-54.0771,-2.9907,1,481,877,232
131154614,8506,0.0034,-0.0835,1.0352,-11.5967,-54.0161,-2.3804,1,493,882,232
131159614,8507,-0.0259,-0.0835,1.0356,-13.0005,-59.4482,-2.0142,1,493,882,232
131164616,8508,-0.0791,-0.0708,1.0396,-13.9160,-65.4297,-1.4648,1,483,911,232
131169614,8509,-0.1973,-0.0361,1.0352,-16.4795,-74.4629,-3.1738,1,465,943,232
131174616,8510,-0.1919,-0.0190,1.0312,-20.9351,-92.7124,-4.7607,1,484,906,232
131179613,8511,0.0029,-0.0508,1.0483,-22.8271,-101.0132,-5.3711,1,466,933,232
131184616,8512,0.0791,-0.1001,1.0957,-24.6582,-101.1352,-8.6670,1,465,940,232
131189616,8513,-0.1616,-0.0928,1.1494,-26.9775,-119.8730,-15.8081,1,482,977,232
131194613,8514,-0.6440,0.0034,1.1948,-32.2876,-159.4238,-21.5454,1,468,938,232
131199612,8515,-0.9521,0.0913,1.2407,-45.2270,-219.1772,-27.0996,1,476,923,232
131204616,8516,-1.0127,0.0366,1.3154,-56.9458,-277.6489,-31.9214,1,482,947,232
131209609,8517,-1.0239,-0.0283,1.4287,-59.8755,-316.1011,-34.8511,1,483,923,232
131214608,8518,-0.3569,-0.0527,1.3843,-56.5186,-397.8271,-26.6113,1,465,913,232
131219612,8519,0.3779,-0.0981,1.2554,-67.0776,-395.1416,-34.3628,1,466,953,232
131224615,8520,-0.1650,-0.0620,1.4878,-76.1719,-385.8642,-49.6216,1,494,933,232
131229613,8521,-1.2114,0.1470,1.8823,-77.6367,-440.7959,-40.8936,1,494,937,232
131234616,8522,-1.3833,0.2236,1.9385,-103.8208,-507.4463,-37.5977,1,487,832,232
131239616,8523,-0.8667,0.0083,1.6885,-120.2393,-533.4473,-43.3350,1,492,837,232
131244613,8524,-0.5225,-0.1289,1.3599,-113.1592,-555.3589,-45.3491,1,476,908,232
131249614,8525,-0.5229,-0.1489,1.1167,-120.0561,-575.9277,-49.8657,1,488,920,232
131254612,8526,-0.6357,-0.2148,0.9521,-116.5161,-593.4448,-52.9175,1,473,944,232
131259612,8527,-0.5718,-0.3545,0.4990,-81.8481,-648.0102,-68.6646,1,470,925,232
131264614,8528,-0.4688,-0.4204,0.3511,-65.3687,-682.6171,-76.8433,1,493,935,232
131269612,8529,-0.3594,-0.4136,0.2217,-53.2227,-730.4077,-85.2051,1,466,989,232
131274612,8530,0.0386,-0.1494,0.2876,-59.4482,-781.1889,-94.6655,1,465,933,232
131279609,8531,1.2041,0.0684,1.3159,-88.5620,-790.1611,-92.3462,1,484,951,232
131284615,8532,2.8125,-0.5210,3.2471,-122.3144,-696.2280,-78.8574,1,465,930,232
131289611,8533,3.5068,-1.5171,4.7285,-73.7305,-467.1631,-71.4111,1,479,890,232
131294611,8534,2.5244,-1.6694,4.9902,-1.5259,-239.1357,-66.4673,1,465,922,232
131299609,8535,0.6582,-1.0068,4.3740,6.7749,-127.0752,-69.1528,1,467,920,232
131304616,8536,-0.7646,-0.4116,3.5898,-6.8970,-95.3369,-70.9839,1,474,925,232
131309616,8537,-1.1924,-0.2544,3.0444,-11.4136,-73.0591,-70.4956,1,469,905,232
131314629,8538,-1.0488,-0.3462,2.7192,-10.4370,-38.3911,-70.3125,1,484,907,232
131319616,8539,-0.9077,-0.4229,2.4668,-4.2725,-8.1787,-70.4956,1,483,941,232
131324615,8540,-0.9399,-0.4019,2.2275,4.1504,14.1602,-71.7163,1,493,901,232
131329611,8541,-1.0483,-0.3296,2.0376,10.0098,31.4331,-73.3032,1,466,944,232
131334615,8542,-1.1060,-0.2759,1.9434,13.3667,45.8984,-75.1343,1,494,922,232
131339611,8543,-1.0645,-0.2671,1.9448,15.1978,62.0728,-76.7212,1,473,832,232
131344611,8544,-0.9629,-0.2881,1.9937,15.8691,83.1299,-77.5146,1,488,881,232
131349614,8545,-0.8672,-0.3169,2.0317,15.9912,108.1543,-77.5146,1,473,905,232
131354610,8546,-0.8062,-0.3374,2.0303,15.5640,133.8501,-76.7822,1,478,912,232
131359614,8547,-0.7603,-0.3516,1.9980,15.1367,158.5083,-75.3174,1,483,918,232
131364616,8548,-0.7017,-0.3745,1.9556,15.1978,182.3730,-73.2422,1,488,903,232
131369609,8549,-0.6289,-0.4141,1.9189,16.3574,205.9936,-70.4956,1,494,906,232
131374609,8550,-0.5474,-0.4624,1.8975,18.2495,228.2104,-66.5283,1,466,932,232
131379610,8551,-0.4541,-0.5103,1.8979,19.8975,249.3286,-61.6455,1,465,938,232
131384614,8552,-0.3364,-0.5562,1.9058,21.4844,270.8130,-55.4199,1,484,942,232
131389609,8553,-0.1943,-0.6055,1.8843,23.7427,294.0063,-47.9736,1,465,925,232
131394615,8554,-0.0718,-0.6592,1.7974,27.0996,318.7256,-39.4287,1,482,850,232
131399610,8555,-0.0142,-0.7070,1.6372,31.7993,340.9424,-30.3345,1,479,969,232
131404609,8556,-0.0117,-0.7363,1.4302,37.4146,356.6284,-20.8130,1,469,928,232
131409617,8557,-0.0264,-0.7485,1.2212,42.3584,365.5395,-10.4980,1,474,921,232
131414608,8558,-0.0293,-0.7495,1.0474,45.4102,368.3471,0.6714,1,468,943,232
131419629,8559,-0.0132,-0.7446,0.9297,46.9971,367.1875,12.3291,1,483,903,232
131424608,8560,0.0210,-0.7354,0.8691,46.8750,362.9760,24.0478,1,484,952,232
131429610,8561,0.0703,-0.7188,0.8516,45.7764,357.7270,35.8276,1,492,939,232
131434611,8562,0.1294,-0.6890,0.8594,43.5791,352.9052,47.0581,1,465,964,232
131439614,8563,0.1899,-0.6406,0.8755,40.1001,349.1821,57.1289,1,494,967,232
131444616,8564,0.2456,-0.5723,0.8872,35.3394,346.4966,65.8569,1,476,859,232
131449610,8565,0.2896,-0.4976,0.8877,29.1138,344.1772,72.8760,1,485,868,232
131454614,8566,0.3174,-0.4297,0.8740,21.5454,341.3086,78.3081,1,478,916,232
131459611,8567,0.3291,-0.3716,0.8457,13.3057,337.4023,82.3364,1,481,906,232
131464610,8568,0.3262,-0.3203,0.8198,4.6387,332.2143,85.0830,1,485,917,232
131469614,8569,0.3140,-0.2739,0.8257,-4.6387,325.0732,86.7309,1,469,898,232
131474609,8570,0.3032,-0.2407,0.8901,-14.0991,316.8335,87.6465,1,492,928,232
131479614,8571,0.3042,-0.2285,1.0205,-22.3999,309.2041,88.0737,1,466,935,232
131484610,8572,0.3232,-0.2363,1.2012,-28.7476,302.9785,88.1958,1,465,936,232
131489610,8573,0.3652,-0.2588,1.4067,-33.0811,299.9268,88.6841,1,484,938,232
131494610,8574,0.4209,-0.2876,1.6099,-35.2783,300.9033,89.3555,1,465,913,232
131499613,8575,0.4717,-0.3130,1.7856,-35.9497,304.9316,90.5151,1,479,920,232
131504610,8576,0.5107,-0.3311,1.9160,-35.4004,310.5469,92.2851,1,481,962,232
131509609,8577,0.5449,-0.3438,1.9941,-33.6304,317.4438,94.7266,1,465,920,232
131514609,8578,0.5742,-0.3496,2.0220,-31.0669,324.8291,97.2290,1,471,962,232
131519615,8579,0.5991,-0.3389,2.0078,-28.0762,331.7260,99.9756,1,471,941,232
131524627,8580,0.6211,-0.3037,1.9590,-25.3906,338.1347,102.1118,1,482,923,232
131529609,8581,0.6367,-0.2476,1.8843,-23.4375,342.7734,103.2104,1,484,930,232
131534613,8582,0.6475,-0.1807,1.8042,-22.8882,344.9096,103.0273,1,492,950,232
131539615,8583,0.6606,-0.1172,1.7446,-23.7427,344.6655,101.3794,1,466,940,232
131544613,8584,0.6787,-0.0693,1.7178,-25.5127,343.6889,98.6328,1,494,947,232
131549610,8585,0.6919,-0.0400,1.7153,-27.3437,342.5293,94.8486,1,471,947,232
131554610,8586,0.6958,-0.0264,1.7300,-28.8696,340.8813,90.4541,1,483,938,232
131559608,8587,0.6948,-0.0254,1.7563,-29.9072,339.1113,85.5713,1,490,892,232
131564612,8588,0.6895,-0.0371,1.7837,-30.5176,337.7685,80.9326,1,491,916,232
131569612,8589,0.6797,-0.0605,1.8047,-30.3955,336.3037,76.5991,1,474,936,232
131574610,8590,0.6709,-0.0933,1.8237,-29.4800,334.2895,72.8760,1,479,905,232
131579624,8591,0.6665,-0.1289,1.8442,-27.8931,331.6650,69.8242,1,493,908,232
131584615,8592,0.6694,-0.1572,1.8682,-26.7334,328.5522,67.5049,1,465,942,232
131589616,8593,0.6792,-0.1753,1.8965,-26.3062,325.3784,65.7959,1,483,940,232
131594610,8594,0.6880,-0.1851,1.9331,-26.6113,321.8994,64.2700,1,465,961,232
131599614,8595,0.7017,-0.1919,1.9854,-27.2827,317.3218,62.8662,1,484,937,232
131604609,8596,0.7412,-0.2036,2.0537,-28.8086,312.8662,61.8896,1,472,870,232
131609613,8597,0.8081,-0.2231,2.1279,-30.0903,309.9976,61.3403,1,481,941,232
131614611,8598,0.8853,-0.2500,2.1924,-30.8838,308.8379,61.1572,1,479,997,232
131619616,8599,0.9595,-0.2822,2.2319,-30.2734,308.6548,61.2183,1,465,957,232
131624612,8600,1.0317,-0.3145,2.2344,-28.1372,307.8003,61.5845,1,466,936,232
131629612,8601,1.1084,-0.3408,2.1841,-24.8413,306.0913,61.9507,1,468,915,232
131634628,8602,1.1885,-0.3574,2.0767,-20.7520,303.7109,62.4390,1,484,944,232
131639612,8603,1.2661,-0.3604,1.9238,-16.1743,299.6826,62.4390,1,466,935,232
131644613,8604,1.3442,-0.3540,1.7407,-12.1460,293.8232,61.7676,1,493,937,232
131649613,8605,1.4180,-0.3379,1.5352,-8.2397,286.2549,59.8755,1,486,944,232
131654613,8606,1.4756,-0.3027,1.3130,-5.9204,275.3296,56.7627,1,464,856,232
131659610,8607,1.5190,-0.2500,1.0918,-6.1035,261.1694,52.0019,1,482,840,232
131664613,8608,1.5630,-0.1851,0.8960,-8.8501,244.1406,45.5322,1,483,896,232
131669609,8609,1.6221,-0.1133,0.7422,-14.4653,225.7080,37.7197,1,489,894,232
131674608,8610,1.6963,-0.0518,0.6313,-22.8271,206.6650,28.6255,1,478,937,232
131679612,8611,1.7783,-0.0117,0.5547,-31.7383,187.5000,18.6768,1,487,934,232
131684610,8612,1.8613,0.0068,0.5029,-40.2222,168.3960,8.6060,1,485,907,232
131689609,8613,1.9409,0.0029,0.4678,-48.1567,148.8647,0.0610,1,493,892,232
131694613,8614,2.0190,-0.0332,0.4395,-54.8706,129.2114,-7.2021,1,484,888,232
131699611,8615,2.1055,-0.1040,0.4146,-57.4951,109.3750,-12.2681,1,465,923,232
131704609,8616,2.1963,-0.1953,0.3872,-57.0679,90.6982,-14.2212,1,485,969,232
131709614,8617,2.2646,-0.2983,0.3501,-54.0771,72.5098,-13.2446,1,466,931,232
131714608,8618,2.2964,-0.4019,0.2979,-46.6309,52.6733,-9.9487,1,472,925,232
131719608,8619,2.3008,-0.4829,0.2329,-34.8511,30.3955,-4.3945,1,482,964,232
131724612,8620,2.2856,-0.5205,0.1650,-21.1792,6.2256,1.9531,1,465,914,232
131729613,8621,2.2539,-0.5083,0.1138,-7.3242,-19.2261,8.1177,1,483,897,232
131734611,8622,2.2153,-0.4746,0.1035,2.6855,-44.9829,12.6343,1,466,882,232
131739613,8623,2.3037,-0.3301,-0.3955,12.3901,-114.8682,9.5825,1,483,914,232
131744612,8624,2.1533,0.1704,-1.5015,21.6675,-270.1416,4.6997,1,466,910,232
131749616,8625,1.6724,0.4028,-1.9692,-10.7422,-386.2304,-13.0615,1,492,922,232
131754608,8626,1.1470,-0.1338,-0.8926,-11.4746,-340.6372,-35.6445,1,466,944,232
131759614,8627,0.7974,-0.6821,0.8652,22.9492,-284.9731,-20.6909,1,493,970,232
131764608,8628,-0.0449,-0.7852,2.0400,27.8320,-257.2021,-19.7144,1,464,941,232
131769615,8629,-1.4785,-1.0942,2.4209,13.3667,-264.8315,-19.0430,1,482,823,232
131774611,8630,-1.8486,-1.8013,2.1196,59.9976,-304.8096,-4.6387,1,483,916,232
131779615,8631,-0.9751,-1.9380,1.3223,116.8213,-318.9697,5.2490,1,474,922,232
131784610,8632,-0.0054,-1.0703,0.3979,120.3613,-319.3359,21.0571,1,478,917,232
131789613,8633,0.3691,0.1313,-0.2686,72.3877,-332.0923,40.4053,1,488,931,232
131794621,8634,0.3311,0.8301,-0.2705,13.6719,-352.1118,52.4292,1,479,906,232
131799614,8635,0.3223,0.8564,0.5342,-20.5078,-369.5068,52.9785,1,493,904,232
131804615,8636,0.4014,0.6890,1.7671,-23.9868,-366.2719,47.9126,1,484,943,232
131809615,8637,0.5767,0.7832,2.7871,-9.2163,-351.3183,38.5742,1,466,941,232
131814613,8638,0.8677,1.1079,3.1777,0.9766,-323.8525,21.9116,1,484,930,232
131819608,8639,1.0322,1.4072,2.9751,5.6763,-287.1704,0.3662,1,469,919,232
131824612,8640,0.9482,1.4517,2.5112,4.5166,-257.8125,-21.2402,1,476,943,232
131829615,8641,0.7363,1.1294,2.1084,-3.2959,-234.9243,-38.6353,1,472,916,232
131834608,8642,0.5161,0.5371,1.8462,-9.5215,-218.3838,-47.9126,1,469,922,232
131839616,8643,0.3042,-0.1543,1.6338,-18.1885,-204.3457,-48.4009,1,477,918,232
131844615,8644,0.0752,-0.7695,1.4204,-24.8413,-196.7163,-42.5415,1,470,907,232
131849614,8645,-0.0620,-1.1768,1.2656,-29.4189,-201.7212,-29.2969,1,484,929,232
131854611,8646,0.0137,-1.3491,1.2573,-35.2173,-206.2378,-12.3291,1,466,955,232
131859611,8647,0.1284,-1.3184,1.3584,-28.0762,-200.7446,1.5869,1,492,940,232
131864617,8648,-0.0791,-1.5132,1.8120,-10.2539,-187.7441,21.4233,1,494,925,232
131869608,8649,0.1968,-1.5361,2.6382,65.7959,-218.6889,37.5366,1,481,950,232
131874614,8650,1.0322,-0.8350,3.2300,118.4082,-174.0723,30.8228,1,466,937,232
131879615,8651,1.3291,0.0620,3.2690,102.7222,-98.5107,29.4189,1,478,850,232
131884612,8652,1.0293,0.7100,2.8691,91.0644,-55.3589,23.0713,1,485,890,232
131889616,8653,0.5059,1.0264,2.3442,74.7070,-28.5645,14.2212,1,471,908,232
131894616,8654,0.1646,0.9434,1.8643,34.3018,-13.8550,2.8076,1,475,901,232
131899610,8655,0.0137,0.3765,1.4097,6.2256,3.6011,-1.5259,1,492,882,232
131904614,8656,-0.1006,-0.2554,1.0732,9.0332,2.8687,1.1597,1,481,845,232
131909608,8657,-0.1353,-0.4932,0.9814,20.3857,-4.2114,0.9155,1,493,852,232
131914608,8658,-0.0791,-0.3140,1.0864,24.7192,-7.4463,-0.7324,1,483,905,232
131919613,8659,-0.0059,-0.0122,1.1978,20.1416,-6.2866,-1.0986,1,465,907,232
131924614,8660,0.0190,0.0986,1.2046,12.6343,-4.7607,-1.4038,1,484,884,232
131929608,8661,-0.0093,0.0068,1.1333,8.1787,-3.9673,-1.0376,1,465,898,232
131934616,8662,-0.0562,-0.0918,1.0513,9.5215,-5.6152,-0.5493,1,470,867,232
131939612,8663,-0.0850,-0.0918,0.9951,9.4604,-6.8970,-0.9766,1,465,878,232
131944617,8664,-0.0762,-0.0571,1.0103,6.2256,-6.4087,-1.8921,1,474,876,232
131949615,8665,-0.0137,-0.0586,1.0903,4.2725,-5.6763,-1.8921,1,470,856,232
131954617,8666,0.0342,-0.0767,1.1328,4.4556,-0.6104,-1.2817,1,474,887,232
131959630,8667,0.0020,-0.0845,1.0962,4.0894,1.2817,-0.9155,1,483,860,232
131964610,8668,-0.0449,-0.0894,1.0493,2.9907,-0.7935,-0.5493,1,484,854,232
131969613,8669,-0.0537,-0.0952,1.0386,3.2349,-1.8311,-0.6714,1,466,880,232
131974610,8670,-0.0405,-0.1074,1.0459,3.1128,-1.7090,-0.9766,1,466,877,232
131979616,8671,-0.0312,-0.1240,1.0503,3.4790,-1.6479,-1.5259,1,494,830,232
131984611,8672,-0.0332,-0.1313,1.0454,4.4556,-2.0752,-1.7090,1,471,804,232
131989613,8673,-0.0400,-0.1255,1.0386,5.1880,-2.5024,-1.7700,1,487,865,232
131994615,8674,-0.0430,-0.1177,1.0356,5.4932,-2.7466,-1.8921,1,492,852,232
131999616,8675,-0.0400,-0.1104,1.0361,5.7373,-3.0518,-1.5869,1,492,852,232
132004608,8676,-0.0356,-0.1011,1.0371,5.6152,-2.8687,-1.3428,1,478,853,232
132009610,8677,-0.0361,-0.0928,1.0327,5.1270,-2.5024,-1.2207,1,469,855,232
132014609,8678,-0.0420,-0.0903,1.0249,4.2114,-2.2583,-1.1597,1,493,855,232
132019614,8679,-0.0464,-0.0957,1.0186,3.5400,-2.1973,-1.0376,1,483,883,232
132024616,8680,-0.0498,-0.1006,1.0132,3.1128,-2.0752,-1.1597,1,465,876,232
132029613,8681,-0.0513,-0.1016,1.0103,2.8076,-2.0752,-1.4038,1,484,865,232
132034609,8682,-0.0464,-0.1035,1.0142,2.6245,-2.1973,-1.4038,1,465,872,232
132039614,8683,-0.0386,-0.1060,1.0210,2.6855,-1.8311,-1.3428,1,477,924,232
132044615,8684,-0.0371,-0.1040,1.0210,2.8076,-1.3428,-1.2817,1,474,866,232
132049616,8685,-0.0415,-0.1001,1.0161,2.6855,-1.2207,-1.2207,1,479,907,232
132054609,8686,-0.0430,-0.0986,1.0161,2.5635,-1.4038,-1.1597,1,481,879,232
132059614,8687,-0.0415,-0.0981,1.0200,2.8687,-1.1597,-1.1597,1,469,864,232
132064610,8688,-0.0396,-0.1016,1.0210,2.8687,-0.9155,-1.3428,1,482,861,232
132069638,8689,-0.0381,-0.1069,1.0205,3.2349,-0.7935,-1.4648,1,466,857,232
132074615,8690,-0.0391,-0.1069,1.0190,3.6621,-0.5493,-1.4648,1,465,878,232
132079609,8691,-0.0376,-0.1016,1.0186,3.7842,-0.4883,-1.7090,1,493,885,232
132084616,8692,-0.0337,-0.0991,1.0234,4.3335,0.4883,-1.7700,1,492,871,232
132089615,8693,-0.0381,-0.1021,1.0176,4.7607,0.8545,-1.7090,1,465,803,232
132094616,8694,-0.0454,-0.1021,1.0098,5.5542,0.6104,-1.8921,1,476,862,232
132099616,8695,-0.0527,-0.1016,1.0034,6.2256,0.1221,-2.1973,1,473,841,232
132104609,8696,-0.0566,-0.1045,0.9985,6.9580,-0.9155,-2.2583,1,478,847,232
132109615,8697,-0.0605,-0.1094,0.9927,8.3008,-1.8311,-2.8076,1,489,858,232
132114616,8698,-0.0664,-0.1108,0.9893,9.4604,-3.1738,-3.4790,1,491,844,232
132119611,8699,-0.0659,-0.1079,0.9917,10.5591,-4.7607,-3.9062,1,473,860,232
132124614,8700,-0.0562,-0.1030,1.0015,11.3525,-5.9814,-4.3945,1,493,870,232
132129614,8701,-0.0464,-0.0898,1.0171,11.9019,-6.7749,-4.8828,1,493,876,232
132134608,8702,-0.0435,-0.0771,1.0259,11.2915,-7.6904,-5.3101,1,466,926,232
132139610,8703,-0.0449,-0.0786,1.0225,10.8643,-8.2397,-5.9814,1,485,897,232
132144612,8704,-0.0449,-0.0801,1.0205,10.8643,-9.3384,-6.1646,1,466,894,232
132149610,8705,-0.0498,-0.0781,1.0190,10.3760,-9.8877,-6.2256,1,482,891,232
132154615,8706,-0.0601,-0.0688,1.0156,9.5215,-11.5356,-6.2866,1,466,891,232
132159610,8707,-0.0576,-0.0601,1.0171,8.5449,-13.3667,-6.5918,1,479,892,232
132164610,8708,-0.0435,-0.0615,1.0244,7.7515,-14.0381,-6.8970,1,465,895,232
132169614,8709,-0.0322,-0.0659,1.0312,7.2632,-14.3433,-6.7139,1,466,879,232
132174614,8710,-0.0288,-0.0630,1.0332,6.6528,-14.4653,-6.6528,1,482,931,232
132179615,8711,-0.0288,-0.0581,1.0317,5.6763,-14.7095,-6.5308,1,484,923,232
132184615,8712,-0.0288,-0.0581,1.0288,4.8218,-14.6484,-6.2866,1,466,900,232
132189610,8713,-0.0303,-0.0596,1.0244,4.3335,-14.8926,-5.9814,1,492,910,232
132194612,8714,-0.0283,-0.0601,1.0225,3.6011,-15.0757,-5.7983,1,475,901,232
132199609,8715,-0.0220,-0.0596,1.0249,2.8687,-15.0146,-5.4321,1,492,892,232
132204609,8716,-0.0161,-0.0581,1.0283,2.0142,-14.5264,-5.4932,1,465,827,232
132209614,8717,-0.0171,-0.0586,1.0273,1.1597,-14.0381,-5.3711,1,491,855,232
132214611,8718,-0.0342,-0.0532,1.0156,0.4883,-14.2212,-5.1880,1,492,861,232
132219615,8719,-0.0576,-0.0386,1.0024,-1.0376,-15.8081,-4.8218,1,485,871,232
132224613,8720,-0.0645,-0.0337,0.9980,-2.8076,-18.1274,-4.7607,1,486,890,232
132229609,8721,-0.0552,-0.0474,1.0029,-3.9062,-19.2261,-4.8218,1,489,867,232
132234628,8722,-0.0366,-0.0605,1.0151,-4.7607,-20.3247,-4.7607,1,492,858,232
132239608,8723,-0.0234,-0.0679,1.0259,-5.8594,-20.4468,-5.2490,1,493,875,232
132244608,8724,-0.0298,-0.0654,1.0225,-6.3477,-21.1792,-5.7373,1,465,924,232
132249608,8725,-0.0493,-0.0581,1.0117,-7.2021,-22.9492,-6.7749,1,478,901,232
132254616,8726,-0.0625,-0.0596,1.0044,-8.3008,-25.4517,-7.6294,1,466,852,232
132259610,8727,-0.0659,-0.0674,1.0000,-9.1553,-27.5879,-8.2397,1,477,890,232
132264613,8728,-0.0762,-0.0640,0.9927,-9.7656,-30.1514,-8.9722,1,465,886,232
132269608,8729,-0.0820,-0.0566,0.9897,-11.2305,-33.8745,-9.5825,1,482,886,232
132274609,8730,-0.0562,-0.0708,1.0034,-12.5122,-36.8042,-9.8877,1,467,907,232
132279611,8731,-0.0176,-0.0908,1.0220,-12.0850,-37.2925,-9.9487,1,468,910,232
132284614,8732,-0.0029,-0.0918,1.0259,-11.3525,-37.5977,-10.0098,1,465,893,232
132289633,8733,-0.0132,-0.0903,1.0229,-12.0239,-38.1470,-9.7656,1,483,893,232
132294612,8734,-0.0181,-0.1011,1.0254,-11.5967,-39.6118,-8.6670,1,466,896,232
132299608,8735,-0.0020,-0.1099,1.0303,-10.3760,-40.4053,-7.7515,1,466,908,232
132304616,8736,0.0171,-0.1064,1.0347,-9.8267,-40.4053,-7.0190,1,466,904,232
132309613,8737,0.0142,-0.0952,1.0337,-9.5825,-40.6494,-6.2866,1,492,892,232
132314613,8738,-0.0039,-0.0835,1.0273,-9.3994,-41.9311,-5.7373,1,466,829,232
132319616,8739,-0.0200,-0.0806,1.0200,-9.5825,-44.4946,-5.6152,1,488,856,232
132324613,8740,-0.0264,-0.0835,1.0161,-9.6436,-46.6309,-5.7373,1,489,882,232
132329616,8741,-0.0122,-0.0771,1.0264,-9.8267,-49.6826,-5.9814,1,479,871,232
132334612,8742,0.0376,-0.0723,1.0444,-10.9253,-52.9175,-7.3853,1,477,899,232
132339615,8743,0.0859,-0.0796,1.0537,-11.6577,-51.3916,-9.3994,1,488,887,232
132344627,8744,0.0894,-0.0874,1.0527,-12.0850,-50.9644,-10.7422,1,488,923,232
132349614,8745,0.0669,-0.0879,1.0459,-13.0005,-52.6123,-11.3525,1,493,902,232
132354615,8746,0.0352,-0.0791,1.0376,-13.9770,-54.0771,-11.9019,1,483,932,232
132359610,8747,-0.0127,-0.0679,1.0298,-15.4419,-56.5186,-13.1836,1,466,934,232
132364612,8748,-0.0483,-0.0596,1.0298,-17.6392,-62.3169,-15.1978,1,484,932,232
132369608,8749,-0.0654,-0.0645,1.0332,-20.2026,-67.6270,-17.4561,1,474,869,232
132374616,8750,-0.1118,-0.0601,1.0312,-22.8271,-73.4863,-20.6299,1,480,947,232
132379610,8751,-0.1738,-0.0591,1.0342,-26.2451,-84.2285,-22.3999,1,471,985,232
132384610,8752,-0.3262,-0.0400,1.0425,-29.7241,-95.1538,-23.8647,1,473,931,232
132389614,8753,-0.5410,0.0220,1.0859,-36.4990,-122.0093,-26.3672,1,476,929,232
132394613,8754,-0.4658,0.0200,1.1631,-46.8140,-163.7573,-31.6162,1,470,930,232
132399608,8755,-0.2793,0.0142,1.2256,-51.3306,-192.5659,-41.5649,1,484,926,232
132404633,8756,-0.6299,0.1338,1.2959,-65.1245,-231.6284,-56.8848,1,466,924,232
132409611,8757,-1.4766,0.3369,1.4595,-93.4448,-301.8188,-71.4722,1,466,941,232
132414612,8758,-1.8203,0.3818,1.6211,-114.6240,-407.0434,-70.6177,1,493,935,232
132419613,8759,-1.0767,0.3164,1.6401,-111.9385,-475.8300,-61.0352,1,483,969,232
132424615,8760,-0.2773,0.3633,1.6597,-134.8877,-496.5820,-58.5327,1,466,948,232
132429609,8761,-0.6567,0.3271,1.8872,-185.5469,-490.9668,-61.7676,1,491,946,232
132434614,8762,-1.4673,0.2188,2.1123,-188.2934,-584.4116,-48.7061,1,491,873,232
132439613,8763,-1.5303,0.1230,1.9048,-190.6738,-660.0952,-48.2178,1,491,903,232
132444615,8764,-1.2080,0.0244,1.3828,-219.6655,-690.1855,-62.9883,1,478,943,232
132449610,8765,-1.0767,-0.0073,0.9688,-218.0786,-730.8959,-67.8711,1,481,942,232
132454610,8766,-1.1367,-0.0483,0.7104,-215.2710,-770.3246,-72.0215,1,490,954,232
132459632,8767,-1.2344,-0.1841,0.4883,-216.4917,-810.6078,-84.2285,1,493,913,232
132464608,8768,-1.2368,-0.4116,0.1973,-201.1719,-873.4130,-107.2388,1,493,946,232
132469614,8769,-1.0605,-0.5742,-0.1724,-169.0674,-923.6450,-122.7417,1,465,955,232
132474616,8770,-0.5303,-0.2715,-0.1226,-143.7378,-970.9472,-126.8921,1,471,954,232
132479610,8771,1.0894,0.3003,1.4033,-167.7856,-1030.3345,-122.9248,1,484,944,232
132484613,8772,4.3467,-0.5894,4.2471,-228.5156,-921.5087,-103.4546,1,480,937,232
132489616,8773,5.9888,-2.2847,6.5698,-138.2446,-399.3530,-114.3188,1,480,877,232
132494609,8774,3.6748,-2.1758,7.1201,-9.3994,-48.7061,-116.8213,1,479,988,232
132499616,8775,0.3691,-0.9814,6.2114,-30.8838,3.2349,-111.9995,1,465,959,232
132504611,8776,-1.2778,-0.4697,4.8857,-59.8755,38.8794,-114.1357,1,476,923,232
132509617,8777,-1.2202,-0.6802,3.8325,-45.9595,102.4780,-99.6704,1,480,949,232
132514613,8778,-0.6494,-0.9814,3.0820,-27.8320,175.2930,-82.8247,1,483,928,232
132519616,8779,-0.4189,-1.0269,2.3979,-7.5073,229.3701,-72.0215,1,466,976,232
132524617,8780,-0.5933,-0.8418,1.7100,15.3198,252.1973,-63.7207,1,466,922,232
132529609,8781,-0.8662,-0.5977,1.1187,31.3110,251.8921,-58.1055,1,466,940,232
132534610,8782,-1.0093,-0.4277,0.7295,37.9028,240.8447,-54.0771,1,471,941,232
132539610,8783,-0.9678,-0.3574,0.5566,41.4429,224.6094,-49.9878,1,494,936,232
132544614,8784,-0.7944,-0.3438,0.5352,43.2739,211.8530,-46.6919,1,481,926,232
132549611,8785,-0.5952,-0.3457,0.5869,44.5557,206.7261,-44.4336,1,483,893,232
132554609,8786,-0.4463,-0.3452,0.6558,47.6074,205.8105,-42.5415,1,492,915,232
132559608,8787,-0.3481,-0.3481,0.7168,49.8657,208.7402,-40.1001,1,478,944,232
132564610,8788,-0.2891,-0.3589,0.7651,50.4150,215.2710,-36.8042,1,478,903,232
132569614,8789,-0.2642,-0.3726,0.8027,51.2695,222.8393,-32.7148,1,481,901,232
132574611,8790,-0.2495,-0.3857,0.8452,51.2085,229.8584,-28.6255,1,493,943,232
132579613,8791,-0.2104,-0.4028,0.9023,50.4761,236.4502,-24.4141,1,511,917,232
132584614,8792,-0.1338,-0.4277,0.9624,49.8657,244.9341,-19.4092,1,465,932,232
132589611,8793,-0.0547,-0.4531,1.0073,49.7436,255.7983,-14.3433,1,484,939,232
132594617,8794,-0.0039,-0.4707,1.0234,50.4761,266.4185,-9.7046,1,465,936,232
132599609,8795,0.0176,-0.4834,1.0083,51.8188,276.0010,-4.2114,1,465,909,232
132604612,8796,0.0161,-0.4932,0.9761,53.9551,283.3862,1.7090,1,476,975,232
132609610,8797,0.0117,-0.4966,0.9482,55.2978,288.1470,7.5073,1,475,900,232
