t_us, seq, ax, ay, az, gx, gy, gz, valid, t_imu_us, t_serial_us, missed
15773930,10,-0.0493,-0.0391,1.0210,0.6714,-0.9766,-0.1221,1,487,888,0
15778929,11,-0.0474,-0.0381,1.0215,0.6104,-0.9155,-0.1221,1,501,824,0
15783923,12,-0.0459,-0.0386,1.0210,0.5493,-0.9766,0.0000,1,478,862,0
15788923,13,-0.0459,-0.0386,1.0225,0.5493,-0.9155,0.0610,1,469,804,0
15793925,14,-0.0464,-0.0371,1.0234,0.5493,-0.7935,0.1221,1,475,852,0
15798928,15,-0.0474,-0.0371,1.0229,0.4272,-0.6714,0.0000,1,474,854,0
15803925,16,-0.0474,-0.0376,1.0220,0.3052,-0.6104,-0.1221,1,483,811,0
15808922,17,-0.0474,-0.0376,1.0210,0.3052,-0.4272,-0.1221,1,466,861,0
15813926,18,-0.0474,-0.0376,1.0200,0.3662,-0.5493,-0.0610,1,466,864,0
15818929,19,-0.0474,-0.0376,1.0210,0.3052,-0.3662,-0.0610,1,466,871,0
15823926,20,-0.0459,-0.0371,1.0220,0.2441,-0.3662,-0.1221,1,466,866,0
15828950,21,-0.0464,-0.0376,1.0210,0.3662,-0.3662,-0.1221,1,466,874,0
15833923,22,-0.0483,-0.0400,1.0186,0.2441,-0.2441,-0.1831,1,465,869,0
15838922,23,-0.0498,-0.0420,1.0166,0.3662,-0.3662,-0.1831,1,465,876,0
15843924,24,-0.0488,-0.0410,1.0181,0.4272,-0.4883,-0.1221,1,494,879,0
15848922,25,-0.0464,-0.0391,1.0200,0.3052,-0.2441,-0.1831,1,470,849,0
15853945,26,-0.0449,-0.0376,1.0220,0.2441,-0.2441,-0.1221,1,483,847,0
15858930,27,-0.0459,-0.0371,1.0225,0.1221,-0.3052,-0.0610,1,492,846,0
15863928,28,-0.0469,-0.0381,1.0195,0.0610,-0.3052,-0.1221,1,510,835,0
15868928,29,-0.0469,-0.0396,1.0181,0.1831,-0.3052,-0.1831,1,499,821,0
15873928,30,-0.0454,-0.0396,1.0195,0.3052,-0.3662,-0.2441,1,489,864,0
15878928,31,-0.0449,-0.0376,1.0215,0.3052,-0.1831,-0.3052,1,502,903,0
15883929,32,-0.0449,-0.0352,1.0225,0.1831,-0.3052,-0.1831,1,481,854,0
15888927,33,-0.0454,-0.0356,1.0220,0.0000,-0.1221,-0.3662,1,467,870,0
15893927,34,-0.0469,-0.0371,1.0200,0.0000,0.0000,-0.3052,1,472,810,0
15898929,35,-0.0474,-0.0371,1.0186,-0.1221,0.0000,-0.1831,1,479,755,0
15903925,36,-0.0469,-0.0371,1.0190,-0.1831,0.0610,-0.1831,1,483,807,0
15908924,37,-0.0464,-0.0371,1.0215,-0.2441,0.0000,-0.2441,1,466,872,0
15913924,38,-0.0449,-0.0381,1.0254,-0.2441,0.1831,-0.3052,1,466,831,0
15918928,39,-0.0439,-0.0386,1.0269,-0.3052,0.2441,-0.2441,1,466,872,0
15923924,40,-0.0439,-0.0381,1.0259,-0.4272,0.3052,-0.2441,1,466,875,0
15928943,41,-0.0435,-0.0381,1.0244,-0.4883,0.3662,-0.1831,1,466,871,0
15933930,42,-0.0439,-0.0391,1.0234,-0.4883,0.3662,-0.1831,1,465,873,0
15938927,43,-0.0454,-0.0400,1.0220,-0.4272,0.4272,-0.1831,1,494,875,0
15943925,44,-0.0469,-0.0400,1.0205,-0.3052,0.3662,0.0000,1,493,875,0
15948929,45,-0.0479,-0.0400,1.0190,-0.1831,0.5493,-0.1831,1,471,790,0
15953922,46,-0.0493,-0.0415,1.0166,-0.1831,0.6104,-0.2441,1,482,856,0
15958925,47,-0.0503,-0.0415,1.0146,-0.1221,0.4883,-0.1831,1,499,848,0
15963923,48,-0.0508,-0.0410,1.0166,0.0610,0.3052,-0.1831,1,479,830,0
15968923,49,-0.0493,-0.0415,1.0210,0.1221,0.1831,-0.1831,1,497,771,0
15973930,50,-0.0464,-0.0405,1.0239,0.1831,0.2441,-0.1221,1,485,884,0
15978924,51,-0.0454,-0.0391,1.0244,0.1831,0.3052,-0.0610,1,501,833,0
15983928,52,-0.0454,-0.0386,1.0244,0.1831,0.3662,-0.1221,1,465,857,0
15988923,53,-0.0454,-0.0391,1.0229,0.0610,0.4272,-0.1831,1,466,873,0
15993923,54,-0.0469,-0.0396,1.0205,-0.1221,0.4883,-0.2441,1,478,856,0
15998924,55,-0.0488,-0.0405,1.0186,-0.0610,0.3662,-0.1831,1,478,849,0
16003929,56,-0.0498,-0.0420,1.0176,0.0610,0.4883,-0.2441,1,466,855,0
16008929,57,-0.0483,-0.0420,1.0181,0.1221,0.4272,-0.2441,1,465,873,0
16013930,58,-0.0474,-0.0420,1.0200,0.1831,0.3052,-0.1221,1,466,871,0
16018927,59,-0.0459,-0.0410,1.0225,0.3052,0.2441,-0.1221,1,466,865,0
16023950,60,-0.0449,-0.0400,1.0229,0.2441,0.2441,-0.3052,1,466,866,0
16028923,61,-0.0454,-0.0400,1.0225,0.1831,0.3052,-0.3662,1,466,874,0
16033927,62,-0.0454,-0.0391,1.0220,0.3662,0.2441,-0.1831,1,492,870,0
16038929,63,-0.0459,-0.0391,1.0210,0.3052,0.1831,-0.2441,1,466,875,0
16043929,64,-0.0474,-0.0386,1.0200,0.3052,0.2441,-0.1831,1,494,784,0
16048922,65,-0.0479,-0.0386,1.0205,0.1221,0.2441,-0.1831,1,485,850,0
16053926,66,-0.0474,-0.0396,1.0225,0.1831,0.3052,0.0000,1,481,842,0
16058928,67,-0.0464,-0.0396,1.0234,0.3662,0.2441,0.0000,1,490,781,0
16063930,68,-0.0459,-0.0391,1.0234,0.1831,0.3052,-0.1831,1,471,798,0
16068925,69,-0.0459,-0.0381,1.0229,0.1221,0.4272,-0.1221,1,504,774,0
16073930,70,-0.0469,-0.0381,1.0215,0.3052,0.1831,-0.0610,1,493,826,0
16078924,71,-0.0488,-0.0386,1.0195,0.4272,0.1831,-0.0610,1,465,823,0
16083926,72,-0.0483,-0.0396,1.0186,0.3662,0.3052,-0.0610,1,476,863,0
16088927,73,-0.0479,-0.0391,1.0195,0.4272,0.3052,-0.2441,1,479,866,0
16093928,74,-0.0469,-0.0381,1.0215,0.6104,0.2441,-0.2441,1,465,851,0
16098925,75,-0.0464,-0.0371,1.0234,0.4883,0.3662,-0.1831,1,484,848,0
16103928,76,-0.0459,-0.0381,1.0234,0.2441,0.3052,-0.1831,1,466,876,0
16108930,77,-0.0464,-0.0391,1.0229,0.1831,0.4272,-0.3052,1,466,869,0
16113930,78,-0.0459,-0.0391,1.0215,0.1831,0.4883,-0.3052,1,466,868,0
16118930,79,-0.0454,-0.0396,1.0220,0.3662,0.4272,-0.1831,1,466,866,0
16123953,80,-0.0464,-0.0391,1.0229,0.2441,0.5493,-0.1831,1,466,878,0
16128924,81,-0.0464,-0.0376,1.0229,0.1221,0.6104,-0.2441,1,466,876,0
16133927,82,-0.0459,-0.0361,1.0234,0.1831,0.5493,-0.2441,1,493,869,0
16138929,83,-0.0449,-0.0371,1.0249,0.1831,0.5493,-0.1831,1,475,879,0
16143922,84,-0.0449,-0.0381,1.0249,0.1831,0.6104,-0.1831,1,466,806,0
16148941,85,-0.0459,-0.0381,1.0239,0.1221,0.6714,-0.1831,1,486,844,0
16153926,86,-0.0464,-0.0376,1.0234,0.1831,0.6714,-0.1221,1,480,838,0
16158930,87,-0.0459,-0.0381,1.0220,0.1831,0.5493,-0.1221,1,488,839,0
16163930,88,-0.0454,-0.0376,1.0210,0.0000,0.7324,-0.1221,1,506,829,0
16168925,89,-0.0459,-0.0376,1.0205,-0.0610,0.7324,0.0000,1,476,784,0
16173927,90,-0.0474,-0.0386,1.0205,0.0610,0.6714,-0.1221,1,506,786,0
16178926,91,-0.0474,-0.0391,1.0210,0.1221,0.9155,-0.1221,1,482,823,0
16183929,92,-0.0469,-0.0400,1.0215,0.0000,0.9766,-0.1831,1,474,814,0
16188924,93,-0.0464,-0.0400,1.0215,0.1221,0.6714,-0.1221,1,477,802,0
16193927,94,-0.0459,-0.0391,1.0210,0.1221,0.8545,-0.1221,1,465,845,0
16198925,95,-0.0469,-0.0381,1.0190,0.1831,0.8545,-0.1831,1,484,840,0
16203926,96,-0.0483,-0.0381,1.0190,0.1831,0.7324,-0.1831,1,466,869,0
16208926,97,-0.0493,-0.0386,1.0200,0.3052,0.6714,-0.1831,1,466,876,0
16213923,98,-0.0469,-0.0381,1.0210,0.3662,0.6714,-0.2441,1,466,869,0
16218922,99,-0.0435,-0.0386,1.0225,0.3052,0.7324,-0.2441,1,465,867,0
16223923,100,-0.0435,-0.0391,1.0234,0.2441,0.7935,-0.2441,1,466,868,0
16228925,101,-0.0474,-0.0386,1.0239,0.3052,0.7935,-0.1831,1,493,872,0
16233926,102,-0.0488,-0.0386,1.0225,0.3052,0.7935,-0.1831,1,466,869,0
16238927,103,-0.0479,-0.0376,1.0205,0.3052,0.8545,-0.1831,1,494,870,0
16243930,104,-0.0474,-0.0361,1.0200,0.3052,0.7324,-0.2441,1,478,849,0
16248925,105,-0.0479,-0.0366,1.0215,0.1831,0.7324,-0.1831,1,490,843,0
16253930,106,-0.0483,-0.0381,1.0215,0.3662,0.7935,0.0000,1,509,848,0
16258925,107,-0.0474,-0.0386,1.0220,0.4272,0.7324,-0.1221,1,491,739,0
16263924,108,-0.0464,-0.0376,1.0229,0.3052,0.8545,-0.2441,1,477,867,0
16268925,109,-0.0469,-0.0371,1.0229,0.4272,0.9155,-0.3052,1,488,831,0
16273924,110,-0.0464,-0.0381,1.0220,0.3052,0.8545,-0.3052,1,500,834,0
16278930,111,-0.0464,-0.0386,1.0220,0.2441,0.8545,-0.3052,1,482,850,0
16283926,112,-0.0474,-0.0381,1.0210,0.2441,0.8545,-0.4272,1,482,867,0
16288928,113,-0.0479,-0.0371,1.0200,0.2441,0.8545,-0.2441,1,472,851,0
16293927,114,-0.0479,-0.0361,1.0210,0.2441,0.8545,-0.2441,1,484,855,0
16298923,115,-0.0459,-0.0371,1.0225,0.3052,0.8545,-0.1831,1,466,873,0
16303927,116,-0.0449,-0.0376,1.0234,0.2441,0.9766,-0.2441,1,466,870,0
16308922,117,-0.0454,-0.0366,1.0244,0.2441,1.0986,-0.2441,1,466,878,0
16313924,118,-0.0479,-0.0342,1.0244,0.1221,1.1597,-0.2441,1,465,885,0
16318946,119,-0.0493,-0.0342,1.0239,-0.1221,1.3428,-0.3052,1,465,873,0
16323929,120,-0.0483,-0.0371,1.0229,-0.1221,1.2207,-0.1831,1,466,871,0
16328928,121,-0.0464,-0.0376,1.0229,0.0000,1.4038,-0.1831,1,494,878,0
16333927,122,-0.0459,-0.0366,1.0225,0.0000,1.4648,-0.3052,1,465,754,0
16338930,123,-0.0464,-0.0366,1.0225,-0.3662,1.7090,-0.3052,1,493,770,0
16343939,124,-0.0479,-0.0366,1.0239,-0.2441,1.5869,-0.3662,1,488,851,0
16348929,125,-0.0483,-0.0366,1.0244,-0.3052,1.7090,-0.3662,1,490,854,0
16353924,126,-0.0479,-0.0366,1.0239,-0.2441,1.7090,-0.3052,1,493,846,0
16358927,127,-0.0469,-0.0356,1.0234,-0.3052,1.7700,-0.1831,1,510,859,0
16363924,128,-0.0469,-0.0347,1.0225,-0.4272,1.9531,-0.2441,1,472,870,0
16368925,129,-0.0493,-0.0361,1.0215,-0.4883,1.8921,-0.3662,1,500,912,0
16373929,130,-0.0518,-0.0386,1.0200,-0.4883,1.9531,-0.4272,1,467,872,0
16378925,131,-0.0532,-0.0396,1.0176,-0.4272,1.8311,-0.3052,1,470,871,0
16383925,132,-0.0537,-0.0386,1.0161,-0.3052,1.6479,-0.3052,1,483,851,0
16388928,133,-0.0527,-0.0376,1.0166,-0.3052,1.5259,-0.3052,1,465,853,0
16393927,134,-0.0532,-0.0386,1.0151,-0.3052,1.5259,-0.3662,1,484,851,0
16398926,135,-0.0547,-0.0405,1.0146,-0.1221,1.3428,-0.2441,1,466,877,0
16403927,136,-0.0542,-0.0420,1.0176,-0.0610,1.2817,-0.4272,1,466,874,0
16408925,137,-0.0518,-0.0405,1.0220,0.0000,1.2207,-0.4272,1,466,872,0
16413922,138,-0.0493,-0.0366,1.0229,-0.1831,1.2817,-0.4272,1,465,828,0
16418948,139,-0.0493,-0.0356,1.0210,-0.2441,1.2817,-0.4272,1,466,885,0
16423929,140,-0.0498,-0.0366,1.0200,-0.1831,1.2817,-0.3662,1,466,881,0
16428922,141,-0.0498,-0.0371,1.0205,-0.1221,1.3428,-0.4883,1,493,881,0
16433927,142,-0.0498,-0.0386,1.0195,-0.1831,1.2817,-0.3662,1,493,872,0
16438925,143,-0.0508,-0.0386,1.0176,-0.1221,1.2817,-0.4272,1,494,881,0
16443942,144,-0.0522,-0.0366,1.0176,-0.1831,1.0986,-0.3052,1,488,850,0
16448926,145,-0.0518,-0.0356,1.0190,-0.3052,1.1597,-0.4883,1,481,846,0
16453923,146,-0.0527,-0.0361,1.0190,-0.2441,1.0986,-0.4272,1,510,841,0
16458925,147,-0.0542,-0.0381,1.0190,-0.1831,0.9766,-0.4272,1,501,863,0
16463925,148,-0.0532,-0.0410,1.0195,-0.1221,0.9155,-0.4272,1,488,869,0
16468922,149,-0.0513,-0.0400,1.0200,0.0000,0.9155,-0.4272,1,487,837,0
16473929,150,-0.0503,-0.0386,1.0205,-0.0610,0.9155,-0.3662,1,510,785,0
16478927,151,-0.0498,-0.0386,1.0210,-0.1831,0.9766,-0.4883,1,482,861,0
16483925,152,-0.0503,-0.0391,1.0200,-0.1831,0.8545,-0.5493,1,470,853,0
16488929,153,-0.0513,-0.0396,1.0186,-0.1831,0.7935,-0.4272,1,479,850,0
16493923,154,-0.0508,-0.0381,1.0205,-0.1221,0.8545,-0.4272,1,484,854,0
16498928,155,-0.0488,-0.0366,1.0239,-0.3662,0.9155,-0.3662,1,466,865,0
16503925,156,-0.0493,-0.0381,1.0234,-0.2441,1.0376,-0.4272,1,466,883,0
16508924,157,-0.0498,-0.0386,1.0210,-0.2441,0.8545,-0.5493,1,466,877,0
16513930,158,-0.0503,-0.0391,1.0195,-0.3662,0.8545,-0.4272,1,466,876,0
16518952,159,-0.0513,-0.0391,1.0195,-0.3662,1.0376,-0.4272,1,466,871,0
16523924,160,-0.0513,-0.0381,1.0220,-0.4272,1.0376,-0.4883,1,466,872,0
16528923,161,-0.0508,-0.0366,1.0244,-0.4883,1.0376,-0.4272,1,466,868,0
16533924,162,-0.0503,-0.0361,1.0244,-0.6714,1.0986,-0.4272,1,494,871,0
16538923,163,-0.0518,-0.0361,1.0215,-0.7324,1.0986,-0.4883,1,493,807,0
16543944,164,-0.0547,-0.0381,1.0171,-0.7324,1.0376,-0.5493,1,488,856,0
16548925,165,-0.0571,-0.0410,1.0151,-0.7324,0.7324,-0.4883,1,480,839,0
16553930,166,-0.0552,-0.0430,1.0166,-0.4883,0.6714,-0.4272,1,508,849,0
16558922,167,-0.0527,-0.0415,1.0200,-0.4883,0.7324,-0.3662,1,492,831,0
16563929,168,-0.0518,-0.0386,1.0225,-0.4883,0.4883,-0.3662,1,488,846,0
16568922,169,-0.0508,-0.0371,1.0225,-0.4883,0.6104,-0.4883,1,479,830,0
16573927,170,-0.0493,-0.0371,1.0220,-0.6714,0.7324,-0.4883,1,506,826,0
16578930,171,-0.0508,-0.0386,1.0200,-0.6714,0.9155,-0.4883,1,480,866,0
16583924,172,-0.0542,-0.0391,1.0171,-0.4883,0.5493,-0.3662,1,482,867,0
16588926,173,-0.0562,-0.0400,1.0151,-0.6714,0.4272,-0.4272,1,473,851,0
16593929,174,-0.0547,-0.0425,1.0151,-0.5493,0.4272,-0.4883,1,484,855,0
16598929,175,-0.0537,-0.0425,1.0161,-0.2441,0.3052,-0.6104,1,466,856,0
16603926,176,-0.0537,-0.0405,1.0156,-0.2441,0.2441,-0.6104,1,466,871,0
16608930,177,-0.0537,-0.0400,1.0156,-0.1221,0.1831,-0.4272,1,466,878,0
16613927,178,-0.0537,-0.0400,1.0171,-0.0610,0.0000,-0.5493,1,466,876,0
16618929,179,-0.0532,-0.0410,1.0181,0.0000,0.1221,-0.5493,1,466,824,0
16623923,180,-0.0522,-0.0410,1.0190,0.0000,0.1221,-0.4883,1,466,824,0
16628930,181,-0.0522,-0.0405,1.0210,-0.0610,0.0610,-0.6104,1,492,826,0
16633926,182,-0.0527,-0.0420,1.0229,0.1221,0.1221,-0.6104,1,466,865,0
16638929,183,-0.0522,-0.0410,1.0239,0.1831,0.0610,-0.5493,1,487,865,0
16643926,184,-0.0503,-0.0381,1.0239,0.0610,0.1221,-0.6104,1,464,811,0
16648923,185,-0.0488,-0.0376,1.0229,0.0610,0.1221,-0.5493,1,484,834,0
16653929,186,-0.0488,-0.0391,1.0229,0.0610,0.2441,-0.5493,1,495,844,0
16658927,187,-0.0503,-0.0396,1.0239,-0.0610,0.4272,-0.6104,1,476,834,0
16663925,188,-0.0503,-0.0391,1.0249,-0.1831,0.4883,-0.5493,1,510,827,0
16668923,189,-0.0498,-0.0396,1.0244,-0.3052,0.6714,-0.4883,1,491,869,0
16673926,190,-0.0503,-0.0400,1.0234,-0.1831,0.7324,-0.4883,1,497,831,0
16678927,191,-0.0518,-0.0396,1.0234,-0.1831,0.6714,-0.4272,1,510,832,0
16683926,192,-0.0522,-0.0391,1.0225,-0.2441,0.6104,-0.3662,1,465,873,0
16688929,193,-0.0527,-0.0391,1.0215,-0.3052,0.7935,-0.4883,1,466,852,0
16693926,194,-0.0537,-0.0405,1.0210,-0.3662,0.7324,-0.4272,1,465,848,0
16698924,195,-0.0527,-0.0415,1.0195,-0.3052,0.6104,-0.4883,1,484,858,0
16703925,196,-0.0522,-0.0410,1.0171,-0.2441,0.6714,-0.4883,1,466,852,0
16708927,197,-0.0527,-0.0410,1.0161,-0.2441,0.5493,-0.4883,1,466,871,0
16713929,198,-0.0527,-0.0420,1.0161,-0.1221,0.4272,-0.4883,1,466,881,0
16718925,199,-0.0522,-0.0420,1.0176,0.1221,0.5493,-0.4883,1,466,873,0
16723929,200,-0.0518,-0.0415,1.0205,0.1221,0.4272,-0.4883,1,466,872,0
16728922,201,-0.0518,-0.0420,1.0220,0.1831,0.3662,-0.4883,1,466,870,0
16733930,202,-0.0527,-0.0420,1.0215,0.1831,0.3052,-0.4272,1,466,872,0
16738927,203,-0.0527,-0.0415,1.0205,0.3662,0.3662,-0.5493,1,492,873,0
16743927,204,-0.0522,-0.0396,1.0215,0.3052,0.2441,-0.5493,1,475,879,0
16748929,205,-0.0513,-0.0391,1.0234,0.3052,0.4883,-0.5493,1,493,806,0
16753947,206,-0.0503,-0.0400,1.0244,0.1221,0.5493,-0.6104,1,492,849,0
16758927,207,-0.0503,-0.0405,1.0249,0.0610,0.4272,-0.5493,1,486,836,0
16763929,208,-0.0513,-0.0400,1.0239,0.1831,0.4272,-0.5493,1,471,832,0
16768923,209,-0.0513,-0.0386,1.0215,0.0610,0.4272,-0.4883,1,494,836,0
16773925,210,-0.0518,-0.0391,1.0205,-0.0610,0.4883,-0.4883,1,488,867,0
16778930,211,-0.0532,-0.0396,1.0205,-0.0610,0.4272,-0.4883,1,489,824,0
16783927,212,-0.0532,-0.0386,1.0205,0.0000,0.3052,-0.3662,1,499,833,0
16788926,213,-0.0518,-0.0391,1.0210,0.0000,0.3052,-0.4272,1,483,823,0
16793922,214,-0.0503,-0.0396,1.0205,0.0000,0.3662,-0.4883,1,465,799,0
16798930,215,-0.0518,-0.0400,1.0195,0.0000,0.4883,-0.3662,1,474,805,0
16803928,216,-0.0532,-0.0400,1.0190,0.0000,0.3662,-0.3662,1,483,808,0
16808925,217,-0.0527,-0.0400,1.0195,0.0000,0.4272,-0.4883,1,466,829,0
16813922,218,-0.0522,-0.0410,1.0200,0.0000,0.4272,-0.4272,1,465,828,0
16818927,219,-0.0532,-0.0420,1.0205,0.0000,0.3052,-0.3662,1,466,829,0
16823930,220,-0.0532,-0.0410,1.0195,0.1221,0.3052,-0.4272,1,466,827,0
16828923,221,-0.0522,-0.0405,1.0186,0.0000,0.3662,-0.4272,1,466,871,0
16833950,222,-0.0518,-0.0405,1.0200,0.0610,0.4272,-0.4883,1,466,829,0
16838930,223,-0.0518,-0.0400,1.0220,0.1831,0.2441,-0.4272,1,466,867,0
16843926,224,-0.0522,-0.0396,1.0225,0.1831,0.1831,-0.4272,1,493,874,0
16848929,225,-0.0518,-0.0391,1.0210,0.2441,0.1831,-0.4272,1,494,877,0
16853928,226,-0.0522,-0.0396,1.0200,0.1831,0.2441,-0.4272,1,464,851,0
16858930,227,-0.0522,-0.0410,1.0186,0.3052,0.1831,-0.3662,1,492,858,0
16863924,228,-0.0522,-0.0420,1.0186,0.2441,0.1831,-0.4272,1,498,845,0
16868925,229,-0.0542,-0.0420,1.0190,0.2441,0.1831,-0.4883,1,471,858,0
16873923,230,-0.0542,-0.0430,1.0195,0.3052,0.0610,-0.4272,1,492,787,0
16878929,231,-0.0532,-0.0425,1.0195,0.4272,0.0000,-0.4883,1,481,878,0
16883925,232,-0.0527,-0.0396,1.0200,0.4272,0.0610,-0.3662,1,492,798,0
16888926,233,-0.0532,-0.0376,1.0210,0.4272,0.2441,-0.3052,1,469,870,0
16893927,234,-0.0532,-0.0386,1.0220,0.3052,0.1831,-0.3052,1,472,869,0
16898923,235,-0.0513,-0.0391,1.0225,0.3052,0.1831,-0.3052,1,475,849,0
16903930,236,-0.0508,-0.0391,1.0229,0.2441,0.1831,-0.3052,1,465,845,0
16908928,237,-0.0508,-0.0391,1.0234,0.1221,0.2441,-0.3662,1,484,850,0
16913927,238,-0.0513,-0.0386,1.0234,0.0000,0.1221,-0.3052,1,466,870,0
16918927,239,-0.0522,-0.0381,1.0229,-0.1221,0.1221,-0.2441,1,466,821,0
16923930,240,-0.0513,-0.0376,1.0234,-0.1221,0.0000,-0.3052,1,466,871,0
16928930,241,-0.0508,-0.0391,1.0239,0.1221,0.2441,-0.3052,1,466,822,0
16933944,242,-0.0522,-0.0400,1.0229,0.0000,0.2441,-0.1831,1,466,865,0
16938931,243,-0.0527,-0.0410,1.0225,0.0000,0.2441,-0.2441,1,466,830,0
16943931,244,-0.0532,-0.0405,1.0215,0.0610,0.3662,-0.2441,1,492,832,0
16948926,245,-0.0537,-0.0400,1.0195,0.0610,0.1831,-0.1831,1,466,874,0
16953928,246,-0.0537,-0.0405,1.0200,0.0000,0.1221,-0.3052,1,493,809,0
16958947,247,-0.0527,-0.0410,1.0215,0.1221,0.1221,-0.2441,1,488,791,0
16963927,248,-0.0518,-0.0425,1.0210,0.1221,0.1831,-0.3662,1,481,851,0
16968924,249,-0.0513,-0.0420,1.0205,0.2441,0.1831,-0.3052,1,509,840,0
16973929,250,-0.0513,-0.0400,1.0200,0.1831,0.1831,-0.3052,1,491,830,0
16978925,251,-0.0513,-0.0400,1.0195,0.0610,0.1831,-0.3662,1,474,866,0
16983929,252,-0.0508,-0.0405,1.0195,0.1221,0.1831,-0.1831,1,482,834,0
16988922,253,-0.0522,-0.0405,1.0190,0.1221,0.1831,-0.2441,1,497,831,0
16993922,254,-0.0527,-0.0410,1.0195,0.2441,0.3052,-0.2441,1,482,865,0
16998929,255,-0.0522,-0.0420,1.0215,0.1831,0.2441,-0.2441,1,465,858,0
17003930,256,-0.0513,-0.0410,1.0229,0.2441,0.3052,-0.1831,1,465,861,0
17008923,257,-0.0518,-0.0396,1.0220,0.1221,0.3662,-0.3052,1,482,856,0
17013929,258,-0.0522,-0.0396,1.0210,0.1221,0.4272,-0.2441,1,466,865,0
17018925,259,-0.0527,-0.0400,1.0210,0.2441,0.4272,-0.2441,1,466,871,0
17023923,260,-0.0532,-0.0400,1.0210,0.2441,0.3662,-0.1831,1,466,877,0
17028930,261,-0.0537,-0.0396,1.0200,0.1221,0.2441,-0.2441,1,466,876,0
17033929,262,-0.0537,-0.0391,1.0200,0.1831,0.3052,-0.2441,1,466,877,0
17038941,263,-0.0532,-0.0391,1.0200,0.3052,0.2441,-0.1831,1,466,870,0
17043922,264,-0.0527,-0.0391,1.0205,0.1831,0.2441,-0.1831,1,466,869,0
17048927,265,-0.0522,-0.0386,1.0225,0.1831,0.3052,-0.3052,1,465,874,0
17053922,266,-0.0508,-0.0391,1.0225,0.1831,0.3662,-0.1831,1,490,867,0
17058926,267,-0.0508,-0.0405,1.0205,0.3052,0.3052,-0.1831,1,466,851,0
17063928,268,-0.0527,-0.0410,1.0195,0.4272,0.3662,-0.1831,1,491,836,0
17068928,269,-0.0532,-0.0400,1.0195,0.3662,0.3052,-0.3052,1,501,851,0
17073924,270,-0.0527,-0.0396,1.0205,0.3052,0.1831,-0.1831,1,484,850,0
17078930,271,-0.0522,-0.0396,1.0225,0.4272,0.3662,-0.2441,1,498,787,0
17083926,272,-0.0522,-0.0386,1.0210,0.4883,0.3052,-0.1831,1,480,889,0
17088925,273,-0.0518,-0.0376,1.0190,0.4272,0.3052,-0.1831,1,503,830,0
17093929,274,-0.0522,-0.0376,1.0190,0.2441,0.3052,-0.3052,1,482,868,0
17098927,275,-0.0537,-0.0391,1.0200,0.3662,0.2441,-0.3052,1,466,867,0
17103925,276,-0.0537,-0.0400,1.0210,0.3662,0.1221,-0.1831,1,474,851,0
17108924,277,-0.0518,-0.0391,1.0220,0.4272,0.3052,-0.1831,1,475,853,0
17113922,278,-0.0498,-0.0376,1.0229,0.3052,0.4272,-0.2441,1,483,849,0
17118929,279,-0.0498,-0.0371,1.0229,0.2441,0.3662,-0.2441,1,466,876,0
17123926,280,-0.0508,-0.0376,1.0229,0.2441,0.2441,-0.2441,1,466,884,0
17128924,281,-0.0513,-0.0381,1.0229,0.1831,0.1831,-0.1831,1,466,877,0
17133922,282,-0.0513,-0.0386,1.0229,0.2441,0.3052,-0.2441,1,466,877,0
17138928,283,-0.0503,-0.0386,1.0229,0.1831,0.3052,-0.1831,1,465,875,0
17143927,284,-0.0508,-0.0391,1.0234,0.1831,0.3662,-0.1831,1,465,872,0
17148929,285,-0.0518,-0.0381,1.0234,0.1831,0.3662,-0.2441,1,466,873,0
17153924,286,-0.0518,-0.0371,1.0225,0.1831,0.2441,-0.1831,1,466,876,0
17158926,287,-0.0518,-0.0381,1.0215,0.0610,0.3662,-0.2441,1,493,823,0
17163932,288,-0.0527,-0.0386,1.0210,0.0000,0.4272,-0.2441,1,481,851,0
17168923,289,-0.0527,-0.0391,1.0200,-0.0610,0.4272,-0.1831,1,487,800,0
17173927,290,-0.0518,-0.0396,1.0195,0.0610,0.4272,-0.2441,1,496,843,0
17178924,291,-0.0513,-0.0396,1.0205,0.0610,0.3662,-0.3052,1,480,833,0
17183923,292,-0.0513,-0.0396,1.0225,0.0000,0.3662,-0.2441,1,474,866,0
17188930,293,-0.0518,-0.0381,1.0225,-0.0610,0.5493,-0.3052,1,480,797,0
17193922,294,-0.0522,-0.0366,1.0220,0.0000,0.5493,-0.2441,1,493,825,0
17198929,295,-0.0522,-0.0376,1.0225,-0.0610,0.3662,-0.1831,1,479,831,0
17203930,296,-0.0518,-0.0381,1.0239,-0.1221,0.4883,-0.2441,1,479,872,0
17208922,297,-0.0503,-0.0386,1.0244,-0.2441,0.4883,-0.1831,1,465,852,0
17213928,298,-0.0503,-0.0391,1.0244,-0.1831,0.4883,-0.1831,1,484,857,0
17218922,299,-0.0522,-0.0391,1.0234,-0.1831,0.5493,-0.1831,1,466,871,0
17223926,300,-0.0532,-0.0391,1.0229,-0.3662,0.6714,-0.1831,1,466,878,0
17228928,301,-0.0527,-0.0396,1.0229,-0.4272,0.6104,-0.1221,1,466,877,0
17233926,302,-0.0518,-0.0396,1.0210,-0.4272,0.4883,-0.2441,1,466,872,0
17238924,303,-0.0513,-0.0396,1.0195,-0.3662,0.6104,-0.1831,1,466,873,0
17243948,304,-0.0518,-0.0400,1.0200,-0.3662,0.6714,-0.1221,1,466,873,0
17248922,305,-0.0527,-0.0396,1.0205,-0.3662,0.6104,-0.1831,1,466,866,0
17253925,306,-0.0542,-0.0386,1.0195,-0.1831,0.6714,-0.1221,1,466,872,0
17258924,307,-0.0542,-0.0381,1.0195,-0.2441,0.6104,0.0000,1,494,869,0
17263925,308,-0.0537,-0.0400,1.0205,-0.3052,0.6104,-0.1221,1,466,795,0
17268927,309,-0.0527,-0.0410,1.0205,-0.2441,0.6104,-0.2441,1,492,844,0
17273923,310,-0.0532,-0.0396,1.0215,-0.1831,0.6104,-0.2441,1,492,847,0
17278925,311,-0.0527,-0.0391,1.0215,-0.1221,0.5493,-0.2441,1,483,854,0
17283929,312,-0.0532,-0.0396,1.0200,-0.1221,0.6714,-0.1831,1,489,832,0
17288926,313,-0.0547,-0.0396,1.0195,-0.1831,0.6714,-0.1831,1,491,869,0
17293928,314,-0.0562,-0.0400,1.0190,-0.0610,0.5493,-0.1831,1,492,835,0
17298923,315,-0.0562,-0.0410,1.0166,0.0000,0.4883,-0.2441,1,467,869,0
17303922,316,-0.0557,-0.0425,1.0161,-0.0610,0.3052,-0.1831,1,476,807,0
17308925,317,-0.0547,-0.0425,1.0181,0.0610,0.3052,-0.3662,1,482,851,0
17313931,318,-0.0542,-0.0410,1.0195,0.0610,0.1831,-0.2441,1,466,846,0
17318925,319,-0.0527,-0.0396,1.0200,0.0610,0.3052,-0.2441,1,483,857,0
17323924,320,-0.0518,-0.0396,1.0200,0.1831,0.1831,-0.3052,1,466,869,0
17328928,321,-0.0508,-0.0410,1.0200,0.1221,0.1831,-0.1831,1,466,869,0
17333927,322,-0.0518,-0.0410,1.0200,0.1831,0.2441,-0.2441,1,466,868,0
17338925,323,-0.0532,-0.0400,1.0195,0.1221,0.0610,-0.3052,1,466,875,0
17343924,324,-0.0527,-0.0400,1.0200,0.2441,0.1831,-0.3052,1,466,866,0
17348928,325,-0.0522,-0.0391,1.0205,0.3662,0.1831,-0.3662,1,466,872,0
17353925,326,-0.0527,-0.0376,1.0210,0.2441,0.1221,-0.3052,1,466,875,0
17358926,327,-0.0518,-0.0381,1.0200,0.1831,0.1221,-0.2441,1,466,866,0
17363926,328,-0.0518,-0.0396,1.0181,0.3052,0.1831,-0.2441,1,493,868,0
17368931,329,-0.0542,-0.0396,1.0176,0.3052,0.1831,-0.1831,1,475,793,0
17373929,330,-0.0552,-0.0391,1.0195,0.3052,0.1221,-0.3052,1,478,850,0
17378922,331,-0.0542,-0.0396,1.0210,0.2441,0.1221,-0.3662,1,504,832,0
17383924,332,-0.0537,-0.0396,1.0200,0.3052,0.0000,-0.1831,1,477,776,0
17388925,333,-0.0532,-0.0391,1.0186,0.4272,0.0610,-0.2441,1,504,822,0
17393929,334,-0.0522,-0.0400,1.0190,0.3662,0.1221,-0.3052,1,489,883,0
17398927,335,-0.0522,-0.0405,1.0190,0.3052,0.1221,-0.2441,1,501,829,0
17403926,336,-0.0537,-0.0400,1.0181,0.4272,-0.0610,-0.1831,1,479,866,0
17408927,337,-0.0547,-0.0391,1.0186,0.4272,-0.1831,-0.3052,1,481,869,0
17413923,338,-0.0542,-0.0396,1.0190,0.3052,-0.1221,-0.3662,1,466,849,0
17418922,339,-0.0527,-0.0391,1.0195,0.3052,-0.1831,-0.3052,1,467,848,0
17423927,340,-0.0522,-0.0386,1.0200,0.3662,-0.2441,-0.3662,1,484,849,0
17428923,341,-0.0527,-0.0391,1.0200,0.4272,-0.3052,-0.3662,1,466,877,0
17433922,342,-0.0537,-0.0396,1.0190,0.4272,-0.3662,-0.4272,1,466,869,0
17438923,343,-0.0532,-0.0381,1.0186,0.5493,-0.4272,-0.4272,1,466,880,0
17443930,344,-0.0513,-0.0376,1.0195,0.4272,-0.3662,-0.4272,1,465,877,0
17448928,345,-0.0503,-0.0381,1.0205,0.3662,-0.1831,-0.3662,1,466,877,0
17453929,346,-0.0503,-0.0381,1.0215,0.4272,-0.1221,-0.3052,1,466,874,0
17458925,347,-0.0513,-0.0381,1.0220,0.3052,-0.1221,-0.4272,1,466,862,0
17463929,348,-0.0537,-0.0371,1.0210,0.2441,-0.1831,-0.4272,1,466,863,0
17468930,349,-0.0522,-0.0386,1.0229,0.1221,-0.2441,-0.4272,1,494,879,0
17473936,350,-0.0508,-0.0400,1.0244,0.1831,-0.2441,-0.3662,1,475,802,0
17478922,351,-0.0513,-0.0391,1.0239,0.0610,-0.1221,-0.3662,1,491,857,0
17483922,352,-0.0522,-0.0381,1.0220,0.0000,-0.1831,-0.4272,1,496,839,0
17488924,353,-0.0522,-0.0371,1.0205,0.0000,-0.2441,-0.3052,1,485,797,0
17493931,354,-0.0522,-0.0371,1.0220,0.0000,-0.2441,-0.2441,1,492,840,0
17498931,355,-0.0522,-0.0371,1.0234,-0.1221,-0.3052,-0.3052,1,497,795,0
17503922,356,-0.0522,-0.0381,1.0225,-0.0610,-0.2441,-0.3052,1,492,830,0
17508923,357,-0.0527,-0.0396,1.0190,0.0000,-0.2441,-0.4272,1,479,830,0
17513926,358,-0.0532,-0.0400,1.0181,0.0000,-0.1831,-0.4883,1,482,811,0
17518929,359,-0.0527,-0.0391,1.0205,-0.0610,-0.3052,-0.2441,1,468,807,0
17523922,360,-0.0513,-0.0386,1.0225,0.0610,-0.2441,-0.3052,1,484,850,0
17528929,361,-0.0508,-0.0386,1.0215,-0.1221,-0.1221,-0.3662,1,466,866,0
17533923,362,-0.0513,-0.0396,1.0205,-0.1221,-0.0610,-0.2441,1,466,864,0
17538924,363,-0.0518,-0.0396,1.0205,-0.1221,-0.1831,-0.3662,1,466,870,0
17543927,364,-0.0513,-0.0391,1.0205,0.0000,-0.1831,-0.3052,1,466,873,0
17548926,365,-0.0508,-0.0381,1.0210,-0.0610,-0.1221,-0.3662,1,466,822,0
17553941,366,-0.0503,-0.0386,1.0195,0.0000,-0.1221,-0.3662,1,466,862,0
17558925,367,-0.0508,-0.0400,1.0176,0.0000,-0.2441,-0.4272,1,466,824,0
17563922,368,-0.0513,-0.0415,1.0166,0.0610,-0.3052,-0.3662,1,465,758,0
17568922,369,-0.0513,-0.0415,1.0171,0.0610,-0.4883,-0.2441,1,494,870,0
17573925,370,-0.0513,-0.0410,1.0181,0.1221,-0.5493,-0.3662,1,470,766,0
17578928,371,-0.0508,-0.0400,1.0190,0.2441,-0.4272,-0.3662,1,492,851,0
17583926,372,-0.0488,-0.0386,1.0200,0.2441,-0.4883,-0.3662,1,499,843,0
17588927,373,-0.0488,-0.0386,1.0205,0.1221,-0.4883,-0.3662,1,486,855,0
17593923,374,-0.0493,-0.0400,1.0220,0.1221,-0.5493,-0.4272,1,495,831,0
17598930,375,-0.0483,-0.0400,1.0244,0.1221,-0.4272,-0.3052,1,488,884,0
17603926,376,-0.0469,-0.0391,1.0249,0.1221,-0.3662,-0.3052,1,500,830,0
17608924,377,-0.0479,-0.0376,1.0234,0.1831,-0.3052,-0.2441,1,509,834,0
17613930,378,-0.0498,-0.0371,1.0225,0.0610,-0.3052,-0.3052,1,471,870,0
17618928,379,-0.0498,-0.0386,1.0220,-0.0610,-0.2441,-0.3662,1,470,850,0
17623929,380,-0.0498,-0.0410,1.0220,0.0000,-0.1221,-0.3052,1,475,858,0
17628924,381,-0.0493,-0.0415,1.0234,0.1221,-0.1831,-0.1221,1,483,804,0
17633928,382,-0.0483,-0.0400,1.0249,0.0610,0.0000,-0.2441,1,466,873,0
17638929,383,-0.0488,-0.0381,1.0244,-0.0610,0.0610,-0.1831,1,465,828,0
17643924,384,-0.0498,-0.0381,1.0225,-0.1221,0.0000,-0.3052,1,466,873,0
17648929,385,-0.0498,-0.0386,1.0210,0.0000,0.0000,-0.1831,1,466,820,0
17653925,386,-0.0503,-0.0391,1.0210,-0.0610,0.0610,-0.1831,1,466,781,0
17658926,387,-0.0503,-0.0391,1.0195,0.0000,0.0610,-0.2441,1,466,861,0
17663922,388,-0.0508,-0.0386,1.0181,-0.0610,0.0610,-0.2441,1,493,819,0
17668927,389,-0.0508,-0.0396,1.0195,-0.0610,0.0000,-0.1831,1,472,864,0
17673928,390,-0.0498,-0.0410,1.0220,-0.0610,0.1221,-0.1221,1,494,749,0
17678944,391,-0.0498,-0.0405,1.0220,-0.1221,0.1221,-0.1831,1,464,860,0
17683927,392,-0.0498,-0.0386,1.0210,-0.0610,0.1221,-0.1831,1,491,851,0
17688930,393,-0.0493,-0.0376,1.0200,-0.0610,0.1221,-0.1221,1,494,839,0
17693927,394,-0.0493,-0.0386,1.0205,-0.1221,0.3052,-0.1221,1,480,825,0
17698924,395,-0.0498,-0.0405,1.0225,-0.0610,0.1221,-0.1221,1,510,778,0
17703929,396,-0.0493,-0.0410,1.0234,0.0000,0.1221,-0.1831,1,499,879,0
17708925,397,-0.0498,-0.0400,1.0225,-0.1221,0.1831,-0.2441,1,490,790,0
17713928,398,-0.0493,-0.0396,1.0225,0.0000,0.1831,-0.1221,1,468,835,0
17718928,399,-0.0498,-0.0386,1.0225,-0.0610,0.1831,-0.1221,1,469,806,0
17723925,400,-0.0498,-0.0376,1.0215,0.1221,0.2441,-0.2441,1,475,853,0
17728930,401,-0.0493,-0.0391,1.0210,0.0610,0.2441,-0.1831,1,475,856,0
17733931,402,-0.0498,-0.0405,1.0205,-0.0610,0.2441,-0.1831,1,483,852,0
17738925,403,-0.0513,-0.0425,1.0195,0.0610,0.1221,-0.1831,1,466,879,0
17743925,404,-0.0527,-0.0420,1.0190,0.1221,0.2441,-0.3052,1,466,870,0
17748922,405,-0.0508,-0.0391,1.0200,0.1221,0.0610,-0.3662,1,466,870,0
17753925,406,-0.0483,-0.0371,1.0205,0.1831,0.1831,-0.2441,1,465,863,0
17758928,407,-0.0483,-0.0381,1.0210,0.1831,0.3052,-0.1831,1,466,882,0
17763929,408,-0.0493,-0.0396,1.0210,0.2441,0.3052,-0.4883,1,466,869,0
17768927,409,-0.0508,-0.0400,1.0200,0.1831,0.0610,-0.3052,1,492,869,0
17773929,410,-0.0513,-0.0391,1.0200,0.1831,0.0610,-0.2441,1,466,861,0
17778929,411,-0.0513,-0.0371,1.0225,0.1831,0.1221,-0.3052,1,486,867,0
17783935,412,-0.0503,-0.0366,1.0234,0.0610,0.3052,-0.3052,1,464,813,0
17788924,413,-0.0493,-0.0371,1.0239,0.0610,0.2441,-0.2441,1,473,836,0
17793924,414,-0.0493,-0.0381,1.0239,0.0000,0.2441,-0.3052,1,492,852,0
17798927,415,-0.0493,-0.0396,1.0239,-0.0610,0.3662,-0.2441,1,477,796,0
17803924,416,-0.0493,-0.0405,1.0239,-0.1831,0.2441,-0.2441,1,506,784,0
17808927,417,-0.0488,-0.0400,1.0229,-0.0610,0.3052,-0.2441,1,496,878,0
17813923,418,-0.0493,-0.0396,1.0210,-0.1221,0.2441,-0.2441,1,491,832,0
17818925,419,-0.0503,-0.0396,1.0210,-0.2441,0.3662,-0.3052,1,467,835,0
17823930,420,-0.0513,-0.0386,1.0215,-0.1831,0.2441,-0.3052,1,469,865,0
17828930,421,-0.0518,-0.0381,1.0210,-0.1221,0.3052,-0.2441,1,469,853,0
17833924,422,-0.0503,-0.0405,1.0210,-0.1831,0.3052,-0.2441,1,468,845,0
17838926,423,-0.0483,-0.0420,1.0215,0.0610,0.4272,-0.3052,1,484,849,0
17843924,424,-0.0483,-0.0410,1.0215,0.0000,0.3662,-0.3052,1,466,869,0
17848927,425,-0.0488,-0.0396,1.0215,0.0000,0.3052,-0.1831,1,466,825,0
17853929,426,-0.0503,-0.0396,1.0225,0.0610,0.3662,-0.2441,1,466,825,0
17858931,427,-0.0508,-0.0396,1.0225,0.1221,0.4272,-0.3662,1,466,871,0
17863929,428,-0.0503,-0.0386,1.0220,0.0000,0.3052,-0.4272,1,466,868,0
17868927,429,-0.0503,-0.0386,1.0215,0.0000,0.5493,-0.3052,1,466,820,0
17873924,430,-0.0503,-0.0396,1.0210,0.1221,0.4272,-0.2441,1,492,822,0
17878930,431,-0.0508,-0.0386,1.0215,0.1221,0.4272,-0.3052,1,472,866,0
17883926,432,-0.0513,-0.0391,1.0210,0.1831,0.3052,-0.3662,1,488,862,0
17888942,433,-0.0518,-0.0396,1.0205,0.1831,0.3052,-0.3662,1,465,847,0
17893928,434,-0.0518,-0.0386,1.0205,0.0610,0.3052,-0.3662,1,478,842,0
17898930,435,-0.0508,-0.0366,1.0210,0.1221,0.3052,-0.3052,1,502,839,0
17903926,436,-0.0503,-0.0361,1.0215,0.1831,0.3662,-0.3662,1,492,764,0
17908922,437,-0.0493,-0.0371,1.0215,0.1221,0.2441,-0.3052,1,486,901,0
17913923,438,-0.0493,-0.0381,1.0210,0.0610,0.2441,-0.3662,1,489,831,0
17918923,439,-0.0503,-0.0391,1.0205,0.0000,0.4883,-0.3662,1,509,831,0
17923930,440,-0.0508,-0.0405,1.0215,0.0610,0.3662,-0.3662,1,466,801,0
17928925,441,-0.0508,-0.0400,1.0229,0.0610,0.3052,-0.2441,1,482,867,0
17933922,442,-0.0503,-0.0391,1.0229,-0.0610,0.4272,-0.3662,1,471,847,0
17938925,443,-0.0503,-0.0396,1.0225,0.0610,0.3052,-0.3662,1,483,851,0
17943928,444,-0.0498,-0.0391,1.0220,0.0610,0.2441,-0.2441,1,466,864,0
17948923,445,-0.0493,-0.0381,1.0200,0.0000,0.3662,-0.3662,1,466,872,0
17953927,446,-0.0493,-0.0376,1.0181,-0.1221,0.3662,-0.3662,1,466,827,0
17958927,447,-0.0498,-0.0391,1.0186,-0.0610,0.3662,-0.2441,1,465,873,0
17963923,448,-0.0498,-0.0391,1.0200,0.0610,0.3662,-0.2441,1,466,874,0
17968937,449,-0.0498,-0.0386,1.0215,0.1221,0.3662,-0.2441,1,466,871,0
17973923,450,-0.0498,-0.0396,1.0215,0.1221,0.3052,-0.3662,1,466,873,0
17978927,451,-0.0503,-0.0396,1.0210,0.1831,0.3052,-0.4272,1,494,867,0
17983924,452,-0.0503,-0.0396,1.0205,0.1221,0.3662,-0.2441,1,466,866,0
17988925,453,-0.0498,-0.0391,1.0210,0.0000,0.4883,-0.3662,1,493,823,0
17993930,454,-0.0503,-0.0381,1.0215,0.1221,0.2441,-0.3662,1,476,794,0
17998928,455,-0.0513,-0.0381,1.0215,0.1221,0.3052,-0.3662,1,485,839,0
18003928,456,-0.0513,-0.0386,1.0210,0.1221,0.4883,-0.3052,1,491,823,0
18008925,457,-0.0513,-0.0396,1.0200,0.1831,0.4272,-0.3662,1,503,842,0
18013926,458,-0.0527,-0.0410,1.0190,0.1831,0.3662,-0.3052,1,483,873,0
18018922,459,-0.0532,-0.0420,1.0190,0.2441,0.4272,-0.3052,1,488,834,0
18023927,460,-0.0522,-0.0410,1.0200,0.1831,0.3662,-0.3052,1,507,833,0
18028931,461,-0.0513,-0.0391,1.0210,0.1831,0.3052,-0.4272,1,479,861,0
18033925,462,-0.0508,-0.0386,1.0205,0.3052,0.3052,-0.4272,1,481,862,0
18038925,463,-0.0508,-0.0391,1.0200,0.3052,0.3662,-0.2441,1,469,844,0
18043925,464,-0.0513,-0.0381,1.0205,0.1831,0.3052,-0.1831,1,483,847,0
18048924,465,-0.0498,-0.0376,1.0210,0.1221,0.2441,-0.3052,1,466,868,0
18053931,466,-0.0488,-0.0376,1.0215,0.1221,0.3052,-0.2441,1,466,868,0
18058930,467,-0.0488,-0.0366,1.0220,0.0610,0.4883,-0.1831,1,466,868,0
18063926,468,-0.0498,-0.0366,1.0225,-0.0610,0.4272,-0.2441,1,466,876,0
18068925,469,-0.0503,-0.0376,1.0220,0.0000,0.4883,-0.3052,1,466,879,0
18073941,470,-0.0498,-0.0386,1.0220,0.0610,0.3662,-0.3052,1,466,817,0
18078924,471,-0.0503,-0.0396,1.0220,-0.1221,0.4272,-0.1831,1,466,869,0
18083925,472,-0.0518,-0.0396,1.0200,0.0000,0.3662,-0.1831,1,492,869,0
18088923,473,-0.0508,-0.0391,1.0205,-0.0610,0.2441,-0.1831,1,466,751,0
18093931,474,-0.0503,-0.0391,1.0215,0.0000,0.4272,-0.1831,1,494,785,0
18098923,475,-0.0522,-0.0400,1.0210,0.1831,0.4272,-0.3662,1,476,794,0
18103925,476,-0.0532,-0.0405,1.0195,0.0000,0.3662,-0.3052,1,492,846,0
18108931,477,-0.0527,-0.0405,1.0176,0.0610,0.4272,-0.2441,1,478,743,0
18113924,478,-0.0518,-0.0391,1.0176,0.1831,0.3662,-0.2441,1,493,854,0
18118924,479,-0.0498,-0.0381,1.0195,0.0610,0.2441,-0.1831,1,489,871,0
18123930,480,-0.0488,-0.0381,1.0210,0.0610,0.3052,-0.1831,1,473,836,0
18128930,481,-0.0493,-0.0376,1.0215,0.0610,0.3662,-0.3052,1,509,826,0
18133925,482,-0.0503,-0.0376,1.0220,0.0000,0.4272,-0.2441,1,467,823,0
18138924,483,-0.0513,-0.0386,1.0220,0.0000,0.6104,-0.1831,1,481,808,0
18143922,484,-0.0518,-0.0376,1.0210,-0.1221,0.6104,-0.1221,1,465,805,0
18148930,485,-0.0508,-0.0376,1.0210,0.0000,0.4883,-0.1831,1,483,843,0
18153922,486,-0.0508,-0.0381,1.0220,-0.0610,0.5493,-0.2441,1,466,820,0
18158929,487,-0.0518,-0.0381,1.0225,0.0000,0.4883,-0.1831,1,466,869,0
18163922,488,-0.0513,-0.0381,1.0234,0.0000,0.3662,-0.3052,1,466,825,0
18168922,489,-0.0508,-0.0386,1.0229,-0.1221,0.5493,-0.2441,1,466,824,0
18173925,490,-0.0508,-0.0391,1.0220,-0.1221,0.7935,-0.2441,1,466,873,0
18178935,491,-0.0513,-0.0396,1.0220,-0.1221,0.5493,-0.1831,1,465,866,0
18183925,492,-0.0513,-0.0396,1.0215,-0.0610,0.6104,-0.1831,1,466,873,0
18188927,493,-0.0513,-0.0391,1.0210,0.0610,0.6104,-0.2441,1,493,868,0
18193926,494,-0.0508,-0.0376,1.0215,0.1221,0.5493,-0.2441,1,481,862,0
18198932,495,-0.0518,-0.0381,1.0205,0.1221,0.4272,-0.1831,1,464,813,0
18203928,496,-0.0518,-0.0396,1.0186,0.1831,0.3662,-0.1221,1,480,840,0
18208924,497,-0.0518,-0.0405,1.0190,0.2441,0.4272,-0.2441,1,495,841,0
18213923,498,-0.0508,-0.0405,1.0215,0.0000,0.6104,-0.3052,1,505,837,0
18218923,499,-0.0498,-0.0400,1.0225,0.0000,0.5493,-0.3052,1,476,777,0
18223931,500,-0.0493,-0.0396,1.0225,0.1221,0.4272,-0.1831,1,491,792,0
18228929,501,-0.0498,-0.0391,1.0220,0.0000,0.4272,-0.1831,1,505,834,0
18233925,502,-0.0503,-0.0396,1.0210,0.0610,0.4883,-0.1831,1,467,808,0
18238930,503,-0.0503,-0.0391,1.0210,0.0000,0.4883,-0.2441,1,477,848,0
18243929,504,-0.0508,-0.0391,1.0210,0.1221,0.5493,-0.1831,1,479,801,0
18248930,505,-0.0518,-0.0396,1.0210,0.1221,0.6104,-0.1831,1,484,847,0
18253924,506,-0.0527,-0.0400,1.0210,0.1221,0.4883,-0.1831,1,466,864,0
18258924,507,-0.0527,-0.0405,1.0215,0.0610,0.3052,-0.2441,1,466,868,0
18263926,508,-0.0518,-0.0405,1.0215,0.0610,0.2441,-0.2441,1,466,870,0
18268929,509,-0.0513,-0.0400,1.0220,0.1221,0.2441,-0.1831,1,466,874,0
18273922,510,-0.0513,-0.0391,1.0234,0.1221,0.3052,-0.2441,1,466,871,0
18278946,511,-0.0513,-0.0376,1.0234,0.0610,0.3052,-0.2441,1,466,866,0
18283928,512,-0.0503,-0.0366,1.0225,0.0000,0.3052,-0.2441,1,466,870,0
18288927,513,-0.0513,-0.0371,1.0210,0.0610,0.3052,-0.3052,1,493,823,0
18293923,514,-0.0518,-0.0386,1.0200,0.1221,0.3052,-0.3052,1,494,861,0
18298946,515,-0.0513,-0.0396,1.0210,0.1831,0.1831,-0.2441,1,468,840,0
18303928,516,-0.0498,-0.0400,1.0229,0.1221,0.2441,-0.2441,1,476,845,0
18308924,517,-0.0498,-0.0396,1.0239,0.1221,0.2441,-0.1831,1,503,847,0
18313930,518,-0.0503,-0.0386,1.0225,0.0610,0.2441,-0.2441,1,494,837,0
18318924,519,-0.0508,-0.0386,1.0205,0.0610,0.1831,-0.3052,1,491,840,0
18323922,520,-0.0513,-0.0381,1.0195,0.1831,0.3052,-0.3662,1,486,825,0
18328931,521,-0.0518,-0.0381,1.0210,0.0610,0.2441,-0.2441,1,509,831,0
18333931,522,-0.0518,-0.0376,1.0220,0.1831,0.3052,-0.1831,1,482,830,0
18338924,523,-0.0518,-0.0376,1.0210,0.0000,0.3052,-0.2441,1,467,852,0
18343926,524,-0.0513,-0.0371,1.0200,0.0610,0.2441,-0.2441,1,479,803,0
18348924,525,-0.0508,-0.0386,1.0205,0.0610,0.1831,-0.3662,1,483,856,0
18353923,526,-0.0508,-0.0410,1.0215,0.0000,0.1831,-0.3052,1,466,869,0
18358929,527,-0.0513,-0.0400,1.0220,-0.0610,0.1831,-0.3052,1,466,821,0
18363926,528,-0.0522,-0.0381,1.0220,0.1221,0.1831,-0.2441,1,466,868,0
18368924,529,-0.0518,-0.0381,1.0210,0.0610,0.2441,-0.2441,1,466,873,0
18373924,530,-0.0508,-0.0386,1.0195,0.0000,0.2441,-0.1831,1,466,870,0
18378923,531,-0.0498,-0.0391,1.0195,0.0610,0.2441,-0.2441,1,466,826,0
18383926,532,-0.0503,-0.0381,1.0195,-0.0610,0.3052,-0.1831,1,492,875,0
18388929,533,-0.0518,-0.0381,1.0200,-0.1221,0.3662,-0.2441,1,493,866,0
18393928,534,-0.0527,-0.0386,1.0210,0.0610,0.3662,-0.2441,1,488,867,0
18398922,535,-0.0522,-0.0400,1.0215,0.1221,0.4883,-0.3052,1,464,817,0
18403931,536,-0.0518,-0.0410,1.0210,0.1221,0.4272,-0.2441,1,480,836,0
18408929,537,-0.0527,-0.0400,1.0200,0.1221,0.4272,-0.2441,1,497,840,0
18413930,538,-0.0537,-0.0396,1.0200,0.1831,0.3662,-0.2441,1,491,777,0
18418922,539,-0.0532,-0.0400,1.0200,0.1831,0.1831,-0.2441,1,491,846,0
18423922,540,-0.0522,-0.0391,1.0205,0.0610,0.2441,-0.3662,1,490,836,0
18428927,541,-0.0513,-0.0381,1.0220,0.1831,0.1831,-0.3662,1,496,842,0
18433925,542,-0.0508,-0.0381,1.0215,0.1831,0.1831,-0.3052,1,472,872,0
18438930,543,-0.0503,-0.0391,1.0215,0.1831,0.3052,-0.3662,1,482,847,0
18443927,544,-0.0498,-0.0396,1.0210,0.2441,0.1831,-0.3052,1,466,848,0
18448928,545,-0.0513,-0.0396,1.0195,0.2441,0.2441,-0.3052,1,484,854,0
18453925,546,-0.0518,-0.0396,1.0200,0.1831,0.2441,-0.2441,1,466,873,0
18458922,547,-0.0513,-0.0381,1.0210,0.0000,0.4272,-0.3662,1,465,876,0
18463926,548,-0.0508,-0.0381,1.0215,-0.0610,0.3052,-0.3662,1,466,824,0
18468923,549,-0.0508,-0.0391,1.0220,-0.0610,0.3662,-0.3662,1,465,866,0
18473924,550,-0.0508,-0.0396,1.0215,0.0000,0.3662,-0.3052,1,466,867,0
18478930,551,-0.0513,-0.0391,1.0210,-0.1221,0.2441,-0.2441,1,466,819,0
18483922,552,-0.0513,-0.0391,1.0210,-0.0610,0.4272,-0.1831,1,493,868,0
18488930,553,-0.0508,-0.0391,1.0220,-0.0610,0.3052,-0.1831,1,494,867,0
18493927,554,-0.0503,-0.0391,1.0225,0.0000,0.4272,-0.3052,1,485,861,0
18498946,555,-0.0513,-0.0391,1.0215,-0.0610,0.4272,-0.3662,1,464,788,0
18503922,556,-0.0522,-0.0376,1.0215,-0.1831,0.4883,-0.3052,1,489,850,0
18508930,557,-0.0508,-0.0371,1.0215,0.0000,0.4272,-0.1831,1,479,831,0
18513925,558,-0.0488,-0.0396,1.0205,-0.0610,0.5493,-0.3052,1,500,816,0
18518923,559,-0.0488,-0.0405,1.0210,-0.1221,0.5493,-0.1831,1,485,889,0
18523926,560,-0.0493,-0.0391,1.0220,-0.1831,0.5493,-0.2441,1,498,833,0
18528927,561,-0.0498,-0.0381,1.0234,-0.1221,0.5493,-0.2441,1,495,836,0
18533925,562,-0.0498,-0.0381,1.0249,-0.1221,0.5493,-0.2441,1,479,836,0
18538929,563,-0.0508,-0.0381,1.0244,-0.1221,0.6714,-0.2441,1,465,857,0
18543928,564,-0.0518,-0.0396,1.0225,-0.1831,0.7935,-0.3052,1,466,849,0
18548927,565,-0.0527,-0.0405,1.0200,-0.1831,0.6714,-0.1831,1,484,850,0
18553923,566,-0.0532,-0.0415,1.0190,-0.2441,0.6104,-0.1831,1,466,858,0
18558923,567,-0.0532,-0.0405,1.0195,-0.1831,0.4883,-0.1831,1,466,876,0
18563926,568,-0.0522,-0.0391,1.0200,-0.1221,0.4883,-0.1831,1,466,878,0
18568928,569,-0.0527,-0.0391,1.0210,-0.1221,0.7324,-0.1221,1,465,869,0
18573924,570,-0.0542,-0.0391,1.0215,-0.0610,0.5493,-0.2441,1,466,866,0
18578938,571,-0.0532,-0.0391,1.0210,0.0000,0.5493,-0.1831,1,465,870,0
18583926,572,-0.0522,-0.0400,1.0205,0.0610,0.4883,-0.2441,1,466,825,0
18588927,573,-0.0513,-0.0400,1.0200,-0.0610,0.4883,-0.3052,1,466,871,0
18593927,574,-0.0493,-0.0386,1.0210,0.0610,0.5493,-0.2441,1,465,862,0
18598923,575,-0.0498,-0.0386,1.0225,-0.0610,0.6104,-0.2441,1,494,871,0
18603924,576,-0.0518,-0.0396,1.0229,0.0610,0.4883,-0.1831,1,477,850,0
18608925,577,-0.0537,-0.0396,1.0220,0.0000,0.4272,-0.1831,1,509,842,0
18613927,578,-0.0532,-0.0386,1.0200,-0.0610,0.3052,-0.1831,1,478,817,0
18618929,579,-0.0532,-0.0386,1.0181,0.1221,0.4883,-0.3052,1,499,783,0
18623926,580,-0.0547,-0.0405,1.0181,0.0610,0.4883,-0.2441,1,487,874,0
18628926,581,-0.0532,-0.0415,1.0200,0.0000,0.3662,-0.1831,1,500,828,0
18633925,582,-0.0513,-0.0405,1.0220,0.1221,0.3662,-0.3052,1,506,801,0
18638930,583,-0.0498,-0.0396,1.0229,0.1221,0.4883,-0.3052,1,465,864,0
18643923,584,-0.0508,-0.0386,1.0225,0.0610,0.3662,-0.2441,1,470,851,0
18648926,585,-0.0522,-0.0381,1.0220,0.0000,0.3052,-0.3052,1,478,853,0
18653924,586,-0.0537,-0.0386,1.0220,0.1221,0.4272,-0.3052,1,483,800,0
18658925,587,-0.0527,-0.0386,1.0220,0.1221,0.2441,-0.1831,1,466,867,0
18663929,588,-0.0508,-0.0386,1.0229,0.0000,0.1831,-0.2441,1,466,874,0
18668929,589,-0.0498,-0.0391,1.0234,0.0000,0.3052,-0.3052,1,466,829,0
18673927,590,-0.0508,-0.0386,1.0225,0.0610,0.4272,-0.2441,1,465,821,0
18678936,591,-0.0513,-0.0386,1.0210,-0.0610,0.3052,-0.1831,1,466,869,0
18683923,592,-0.0508,-0.0386,1.0200,0.0000,0.3052,-0.2441,1,465,866,0
18688929,593,-0.0508,-0.0391,1.0200,0.0000,0.3662,-0.2441,1,466,821,0
18693927,594,-0.0508,-0.0396,1.0210,0.0610,0.4272,-0.3662,1,466,747,0
18698924,595,-0.0513,-0.0400,1.0215,0.0000,0.3662,-0.2441,1,494,867,0
18703931,596,-0.0522,-0.0400,1.0205,-0.0610,0.3662,-0.1831,1,479,798,0
18708930,597,-0.0522,-0.0396,1.0205,0.0610,0.3662,-0.2441,1,507,845,0
18713924,598,-0.0518,-0.0396,1.0210,0.0610,0.3052,-0.2441,1,474,836,0
18718926,599,-0.0518,-0.0400,1.0205,0.0000,0.4272,-0.3052,1,505,846,0
18723928,600,-0.0527,-0.0400,1.0205,-0.0610,0.4272,-0.3052,1,491,782,0
18728927,601,-0.0542,-0.0396,1.0200,-0.1221,0.3662,-0.3052,1,496,829,0
18733923,602,-0.0532,-0.0386,1.0195,-0.0610,0.3052,-0.2441,1,504,835,0
18738930,603,-0.0518,-0.0396,1.0200,-0.0610,0.4272,-0.2441,1,465,871,0
18743926,604,-0.0518,-0.0391,1.0205,0.0000,0.4272,-0.3052,1,465,853,0
18748923,605,-0.0527,-0.0391,1.0210,-0.0610,0.3662,-0.1831,1,466,802,0
18753924,606,-0.0537,-0.0396,1.0205,0.0000,0.1831,-0.2441,1,483,853,0
18758923,607,-0.0527,-0.0396,1.0200,0.0610,0.3052,-0.3662,1,465,831,0
18763922,608,-0.0513,-0.0391,1.0190,0.0000,0.3052,-0.2441,1,465,869,0
18768928,609,-0.0503,-0.0391,1.0181,0.0610,0.3662,-0.1221,1,465,821,0
18773929,610,-0.0503,-0.0391,1.0186,0.0610,0.3052,-0.1831,1,466,860,0
18778922,611,-0.0503,-0.0386,1.0205,0.0610,0.3662,-0.3052,1,466,862,0
18783935,612,-0.0503,-0.0391,1.0215,-0.0610,0.4272,-0.3662,1,466,866,0
18788922,613,-0.0518,-0.0400,1.0215,0.0610,0.4272,-0.1831,1,466,866,0
18793930,614,-0.0537,-0.0400,1.0205,0.0610,0.2441,-0.2441,1,493,870,0
18798925,615,-0.0532,-0.0396,1.0205,-0.0610,0.2441,-0.1831,1,487,873,0
18803924,616,-0.0518,-0.0386,1.0220,-0.0610,0.1831,-0.3052,1,466,819,0
18808929,617,-0.0508,-0.0386,1.0215,0.0000,0.2441,-0.3052,1,497,838,0
18813928,618,-0.0513,-0.0386,1.0195,0.0000,0.2441,-0.1831,1,481,802,0
18818922,619,-0.0518,-0.0391,1.0190,0.0000,0.3052,-0.2441,1,493,800,0
18823923,620,-0.0522,-0.0396,1.0200,0.0000,0.3052,-0.2441,1,477,781,0
18828928,621,-0.0522,-0.0400,1.0205,0.0000,0.3052,-0.2441,1,486,794,0
18833926,622,-0.0522,-0.0410,1.0210,0.0000,0.2441,-0.2441,1,492,749,0
18838930,623,-0.0527,-0.0415,1.0200,0.0610,0.2441,-0.3052,1,469,810,0
18843925,624,-0.0532,-0.0410,1.0190,0.1221,0.0610,-0.1831,1,469,851,0
18848922,625,-0.0537,-0.0396,1.0195,0.1221,0.1221,-0.2441,1,479,853,0
18853931,626,-0.0532,-0.0391,1.0200,0.0610,0.0610,-0.2441,1,483,853,0
18858931,627,-0.0532,-0.0410,1.0190,0.0610,0.1831,-0.2441,1,466,866,0
18863929,628,-0.0527,-0.0425,1.0176,0.1221,0.1831,-0.1831,1,466,876,0
18868923,629,-0.0518,-0.0410,1.0186,0.2441,0.0610,-0.2441,1,466,873,0
18873930,630,-0.0513,-0.0391,1.0210,0.1221,0.0000,-0.3052,1,466,872,0
18878930,631,-0.0513,-0.0391,1.0229,0.1221,0.1221,-0.3052,1,466,814,0
18883948,632,-0.0532,-0.0396,1.0215,0.1831,0.0000,-0.2441,1,466,861,0
18888923,633,-0.0542,-0.0400,1.0205,0.1221,0.0610,-0.1831,1,466,830,0
18893930,634,-0.0532,-0.0400,1.0215,0.1831,0.1221,-0.0610,1,492,867,0
18898923,635,-0.0513,-0.0391,1.0229,0.0610,0.1221,-0.3052,1,466,868,0
18903932,636,-0.0503,-0.0396,1.0229,0.0610,0.1831,-0.3052,1,492,788,0
18908929,637,-0.0508,-0.0386,1.0220,0.1221,0.1831,-0.1831,1,484,848,0
18913927,638,-0.0513,-0.0381,1.0220,0.0610,0.0610,-0.1831,1,493,839,0
18918924,639,-0.0513,-0.0386,1.0225,0.1221,0.2441,-0.0610,1,486,827,0
18923926,640,-0.0513,-0.0391,1.0229,0.2441,0.1831,-0.1221,1,490,836,0
18928930,641,-0.0522,-0.0396,1.0220,0.1221,0.2441,-0.2441,1,500,910,0
18933929,642,-0.0527,-0.0405,1.0205,0.0610,0.3052,-0.2441,1,482,834,0
18938923,643,-0.0527,-0.0405,1.0200,0.1221,0.1831,-0.2441,1,498,832,0
18943930,644,-0.0518,-0.0405,1.0205,0.0000,0.2441,-0.1831,1,482,871,0
18948923,645,-0.0518,-0.0405,1.0225,0.0610,0.4272,-0.3052,1,481,810,0
18953928,646,-0.0518,-0.0396,1.0225,0.0610,0.4272,-0.4272,1,484,849,0
18958928,647,-0.0513,-0.0391,1.0215,0.0610,0.2441,-0.3052,1,466,853,0
18963923,648,-0.0508,-0.0396,1.0210,0.0000,0.2441,-0.1831,1,466,865,0
18968925,649,-0.0518,-0.0391,1.0210,0.1221,0.3052,-0.1831,1,466,824,0
18973926,650,-0.0522,-0.0386,1.0210,0.0610,0.3662,-0.2441,1,466,862,0
18978930,651,-0.0522,-0.0391,1.0215,0.0610,0.3052,-0.2441,1,466,873,0
18983930,652,-0.0518,-0.0386,1.0200,0.1831,0.2441,-0.1831,1,466,867,0
18988953,653,-0.0522,-0.0381,1.0190,0.0610,0.3662,-0.1831,1,466,876,0
18993930,654,-0.0522,-0.0391,1.0195,0.0000,0.3052,-0.3052,1,466,873,0
18998923,655,-0.0518,-0.0400,1.0205,0.0000,0.2441,-0.3052,1,494,819,0
19003930,656,-0.0513,-0.0391,1.0215,0.1831,0.1831,-0.3052,1,494,747,0
19008928,657,-0.0522,-0.0391,1.0215,0.0610,0.3052,-0.3052,1,466,848,0
19013930,658,-0.0527,-0.0391,1.0215,0.0610,0.3662,-0.3052,1,502,833,0
19018924,659,-0.0527,-0.0386,1.0215,0.0000,0.3052,-0.2441,1,489,826,0
19023927,660,-0.0522,-0.0381,1.0215,0.0610,0.2441,-0.1221,1,498,845,0
19028924,661,-0.0513,-0.0386,1.0205,-0.0610,0.2441,-0.3052,1,483,879,0
19033922,662,-0.0518,-0.0386,1.0210,-0.1831,0.2441,-0.3052,1,496,829,0
19038931,663,-0.0527,-0.0391,1.0220,0.0000,0.3052,-0.3052,1,509,838,0
19043927,664,-0.0527,-0.0400,1.0215,0.1221,0.3662,-0.3052,1,480,797,0
19048928,665,-0.0522,-0.0396,1.0200,0.0610,0.1831,-0.2441,1,469,850,0
19053925,666,-0.0518,-0.0396,1.0190,-0.0610,0.2441,-0.1221,1,468,855,0
19058924,667,-0.0508,-0.0396,1.0195,0.1221,0.2441,-0.2441,1,483,851,0
19063929,668,-0.0513,-0.0396,1.0195,0.1221,0.1831,-0.3052,1,466,872,0
19068928,669,-0.0503,-0.0391,1.0200,0.0610,0.2441,-0.3052,1,465,868,0
19073922,670,-0.0493,-0.0391,1.0205,0.0610,0.1831,-0.3052,1,466,861,0
19078930,671,-0.0498,-0.0391,1.0205,0.1221,0.1831,-0.2441,1,466,868,0
19083927,672,-0.0508,-0.0391,1.0200,0.0000,0.1831,-0.3052,1,466,872,0
19088928,673,-0.0513,-0.0381,1.0190,0.1221,0.3052,-0.3662,1,465,816,0
19093927,674,-0.0508,-0.0376,1.0190,0.1831,0.3052,-0.2441,1,466,864,0
19098928,675,-0.0513,-0.0391,1.0205,0.0610,0.3052,-0.1831,1,493,869,0
19103924,676,-0.0532,-0.0400,1.0215,0.0000,0.2441,-0.2441,1,479,863,0
19108924,677,-0.0537,-0.0396,1.0220,0.0610,0.2441,-0.2441,1,465,800,0
19113922,678,-0.0527,-0.0386,1.0220,0.0610,0.1831,-0.3052,1,490,855,0
19118928,679,-0.0518,-0.0386,1.0220,0.1221,0.2441,-0.2441,1,474,829,0
19123925,680,-0.0518,-0.0391,1.0215,0.1831,0.2441,-0.1831,1,491,831,0
19128922,681,-0.0537,-0.0396,1.0205,0.1221,0.1831,-0.2441,1,483,892,0
19133930,682,-0.0542,-0.0396,1.0200,0.1831,0.2441,-0.1831,1,499,835,0
19138930,683,-0.0527,-0.0396,1.0205,0.2441,0.1221,-0.3052,1,497,835,0
19143923,684,-0.0518,-0.0396,1.0215,0.1831,0.1221,-0.3662,1,510,830,0
19148924,685,-0.0527,-0.0391,1.0225,0.1221,0.2441,-0.2441,1,476,851,0
19153923,686,-0.0542,-0.0386,1.0225,0.1221,0.2441,-0.3662,1,482,852,0
19158923,687,-0.0547,-0.0400,1.0215,0.1221,0.1831,-0.3662,1,484,851,0
19163925,688,-0.0532,-0.0400,1.0205,0.1831,0.0610,-0.3052,1,466,868,0
19168923,689,-0.0522,-0.0391,1.0205,0.2441,-0.0610,-0.2441,1,466,870,0
19173922,690,-0.0518,-0.0386,1.0210,0.1831,0.2441,-0.3052,1,465,874,0
19178930,691,-0.0503,-0.0391,1.0210,0.2441,0.1831,-0.2441,1,466,869,0
19183923,692,-0.0493,-0.0391,1.0210,0.3052,0.1831,-0.1831,1,466,871,0
19188922,693,-0.0498,-0.0386,1.0210,0.1831,0.1831,-0.1831,1,466,870,0
19193930,694,-0.0508,-0.0376,1.0210,0.1221,0.1831,-0.3052,1,466,877,0
19198922,695,-0.0518,-0.0371,1.0220,0.2441,0.2441,-0.3052,1,493,862,0
19203924,696,-0.0522,-0.0371,1.0229,0.1831,0.2441,-0.3052,1,466,871,0
19208933,697,-0.0527,-0.0386,1.0220,0.2441,0.1831,-0.3052,1,494,878,0
19213929,698,-0.0527,-0.0391,1.0210,0.1831,0.1831,-0.2441,1,476,854,0
19218925,699,-0.0522,-0.0381,1.0205,0.1831,0.3052,-0.2441,1,490,856,0
19223924,700,-0.0518,-0.0376,1.0210,0.2441,0.1831,-0.2441,1,473,832,0
19228929,701,-0.0522,-0.0371,1.0225,0.1831,0.1831,-0.2441,1,506,788,0
19233927,702,-0.0522,-0.0371,1.0205,0.1831,0.3662,-0.1831,1,490,878,0
19238930,703,-0.0527,-0.0381,1.0181,0.1831,0.1831,-0.1831,1,477,842,0
19243923,704,-0.0527,-0.0405,1.0190,0.1221,0.2441,-0.1831,1,494,834,0
19248925,705,-0.0522,-0.0415,1.0215,0.1221,0.1221,-0.2441,1,483,873,0
19253925,706,-0.0518,-0.0405,1.0225,0.1831,0.1221,-0.1221,1,465,853,0
19258923,707,-0.0513,-0.0386,1.0225,0.1221,0.3052,-0.2441,1,483,848,0
19263927,708,-0.0518,-0.0381,1.0215,0.0610,0.1831,-0.3052,1,466,867,0
19268927,709,-0.0518,-0.0386,1.0200,0.1221,0.1831,-0.3662,1,466,864,0
19273928,710,-0.0513,-0.0391,1.0200,0.1831,0.2441,-0.1831,1,466,871,0
19278922,711,-0.0527,-0.0381,1.0210,0.1221,0.3052,-0.2441,1,466,874,0
19283928,712,-0.0527,-0.0381,1.0200,0.0610,0.2441,-0.2441,1,466,867,0
19288925,713,-0.0532,-0.0396,1.0195,0.1221,0.1831,-0.3052,1,466,872,0
19293926,714,-0.0532,-0.0405,1.0200,0.3052,0.1831,-0.3052,1,466,871,0
19298930,715,-0.0522,-0.0391,1.0205,0.2441,0.2441,-0.3662,1,466,866,0
19303927,716,-0.0518,-0.0376,1.0220,0.1831,0.0610,-0.3052,1,466,875,0
19308930,717,-0.0508,-0.0366,1.0229,0.2441,0.1221,-0.3662,1,494,796,0
19313923,718,-0.0513,-0.0371,1.0229,0.1221,0.2441,-0.3052,1,474,854,0
19318929,719,-0.0522,-0.0405,1.0200,0.2441,0.1831,-0.2441,1,494,852,0
19323929,720,-0.0522,-0.0400,1.0190,0.4272,0.0000,-0.1831,1,477,838,0
19328922,721,-0.0513,-0.0361,1.0210,0.2441,0.1221,-0.2441,1,504,848,0
19333929,722,-0.0503,-0.0361,1.0215,0.1831,0.3052,-0.3052,1,481,833,0
19338929,723,-0.0498,-0.0376,1.0210,0.3052,0.2441,-0.2441,1,483,836,0
19343922,724,-0.0508,-0.0396,1.0205,0.3052,0.1831,-0.1831,1,507,832,0
19348925,725,-0.0527,-0.0405,1.0195,0.1831,0.1221,-0.2441,1,472,849,0
19353925,726,-0.0522,-0.0391,1.0190,0.1831,0.1221,-0.1831,1,475,859,0
19358927,727,-0.0518,-0.0366,1.0215,0.1221,0.1831,-0.1831,1,483,854,0
19363930,728,-0.0518,-0.0366,1.0220,0.3662,0.1831,-0.1831,1,466,873,0
19368930,729,-0.0522,-0.0376,1.0205,0.1831,0.1831,-0.1221,1,466,879,0
19373923,730,-0.0522,-0.0391,1.0190,0.1831,0.0610,-0.1221,1,466,874,0
19378930,731,-0.0522,-0.0396,1.0190,0.3662,0.0000,-0.0610,1,465,869,0
19383924,732,-0.0527,-0.0396,1.0200,0.3662,0.1831,-0.2441,1,466,828,0
19388942,733,-0.0532,-0.0391,1.0205,0.2441,0.1831,-0.1831,1,466,878,0
19393931,734,-0.0522,-0.0391,1.0215,0.2441,0.1221,-0.3052,1,466,877,0
19398929,735,-0.0508,-0.0386,1.0229,0.1831,0.0000,-0.3052,1,466,864,0
19403928,736,-0.0508,-0.0386,1.0229,0.1831,0.1221,-0.2441,1,466,748,0
19408938,737,-0.0508,-0.0381,1.0215,0.3052,0.2441,-0.0610,1,494,806,0
19413922,738,-0.0508,-0.0376,1.0200,0.1831,0.1221,-0.1831,1,476,843,0
19418930,739,-0.0513,-0.0381,1.0190,0.2441,0.0610,-0.1221,1,483,827,0
19423928,740,-0.0522,-0.0391,1.0181,0.3662,0.0610,-0.1831,1,487,827,0
19428931,741,-0.0527,-0.0391,1.0186,0.2441,-0.0610,-0.3052,1,487,868,0
19433925,742,-0.0522,-0.0391,1.0200,0.4883,0.0610,-0.2441,1,476,827,0
19438922,743,-0.0518,-0.0386,1.0215,0.4272,0.0000,-0.3052,1,489,838,0
19443929,744,-0.0518,-0.0371,1.0220,0.4883,-0.0610,-0.3052,1,465,775,0
19448927,745,-0.0513,-0.0366,1.0215,0.4883,-0.1221,-0.3052,1,467,848,0
19453922,746,-0.0513,-0.0371,1.0210,0.4272,-0.2441,-0.3052,1,475,848,0
19458922,747,-0.0518,-0.0376,1.0186,0.5493,-0.1831,-0.3052,1,484,854,0
19463923,748,-0.0527,-0.0371,1.0181,0.4883,-0.1221,-0.2441,1,466,871,0
19468924,749,-0.0532,-0.0366,1.0200,0.4272,-0.3052,-0.3052,1,466,872,0
19473922,750,-0.0522,-0.0371,1.0215,0.3662,-0.1831,-0.3662,1,466,868,0
19478926,751,-0.0518,-0.0376,1.0215,0.3662,-0.1221,-0.3052,1,466,883,0
19483924,752,-0.0518,-0.0371,1.0215,0.3052,-0.2441,-0.4883,1,466,868,0
19488938,753,-0.0522,-0.0361,1.0210,0.1831,-0.3662,-0.3052,1,466,871,0
19493928,754,-0.0503,-0.0366,1.0210,0.2441,-0.3052,-0.2441,1,466,876,0
19498930,755,-0.0508,-0.0386,1.0215,0.3662,0.0610,-0.2441,1,466,870,0
19503930,756,-0.0522,-0.0396,1.0220,0.4272,-0.0610,-0.2441,1,465,870,0
19508936,757,-0.0503,-0.0396,1.0225,0.3052,-0.1221,-0.3662,1,494,873,0
19513923,758,-0.0493,-0.0376,1.0225,0.1831,0.0610,-0.3662,1,468,845,0
19518924,759,-0.0503,-0.0366,1.0220,0.3052,0.0000,-0.3052,1,490,846,0
19523925,760,-0.0513,-0.0371,1.0200,0.3052,0.0610,-0.2441,1,478,817,0
19528931,761,-0.0522,-0.0376,1.0176,0.3052,0.0610,-0.3662,1,499,782,0
19533929,762,-0.0522,-0.0376,1.0176,0.3662,-0.2441,-0.3052,1,501,894,0
19538923,763,-0.0508,-0.0361,1.0210,0.2441,-0.1221,-0.2441,1,493,833,0
19543927,764,-0.0493,-0.0352,1.0244,0.3052,0.0000,-0.2441,1,499,831,0
19548929,765,-0.0488,-0.0347,1.0254,0.1831,0.0000,-0.3662,1,474,809,0
19553922,766,-0.0493,-0.0347,1.0234,0.2441,0.0610,-0.2441,1,480,812,0
19558928,767,-0.0503,-0.0356,1.0215,0.0610,0.0610,-0.3662,1,483,860,0
19563925,768,-0.0503,-0.0366,1.0210,-0.0610,0.1221,-0.2441,1,465,851,0
19568922,769,-0.0503,-0.0366,1.0210,0.1221,0.0000,-0.2441,1,466,866,0
19573923,770,-0.0498,-0.0371,1.0225,-0.0610,0.1221,-0.3052,1,466,825,0
19578923,771,-0.0503,-0.0366,1.0234,0.0000,0.1221,-0.3052,1,465,870,0
19583930,772,-0.0503,-0.0366,1.0225,0.0000,0.3052,-0.3662,1,466,822,0
19588923,773,-0.0498,-0.0366,1.0220,0.0000,0.2441,-0.3052,1,466,824,0
19593946,774,-0.0493,-0.0371,1.0220,0.0000,0.2441,-0.3052,1,466,826,0
19598923,775,-0.0498,-0.0376,1.0220,0.0000,0.3052,-0.3052,1,466,828,0
19603923,776,-0.0518,-0.0381,1.0220,0.0610,0.2441,-0.2441,1,466,740,0
19608924,777,-0.0513,-0.0381,1.0205,0.1221,0.3052,-0.3052,1,494,899,0
19613922,778,-0.0493,-0.0376,1.0205,0.0610,0.3052,-0.4272,1,464,841,0
19618924,779,-0.0483,-0.0381,1.0205,-0.0610,0.3052,-0.4272,1,497,841,0
19623922,780,-0.0493,-0.0386,1.0195,0.0610,0.4272,-0.4272,1,482,829,0
19628924,781,-0.0518,-0.0396,1.0186,0.0610,0.3662,-0.3662,1,510,808,0
19633923,782,-0.0532,-0.0386,1.0195,0.0610,0.3052,-0.2441,1,496,889,0
19638922,783,-0.0527,-0.0366,1.0205,-0.0610,0.3662,-0.3052,1,484,832,0
19643926,784,-0.0513,-0.0361,1.0200,0.1221,0.2441,-0.3052,1,493,834,0
19648930,785,-0.0508,-0.0361,1.0195,0.2441,0.2441,-0.1831,1,465,865,0
19653928,786,-0.0518,-0.0371,1.0200,0.2441,0.3662,-0.2441,1,469,860,0
19658929,787,-0.0518,-0.0371,1.0200,0.0000,0.3052,-0.3662,1,473,860,0
19663922,788,-0.0498,-0.0361,1.0200,0.0000,0.3662,-0.2441,1,483,806,0
19668930,789,-0.0498,-0.0366,1.0210,0.1221,0.3052,-0.3052,1,466,832,0
19673926,790,-0.0508,-0.0376,1.0215,0.1831,0.3662,-0.2441,1,466,866,0
19678929,791,-0.0518,-0.0386,1.0215,0.0610,0.4272,-0.2441,1,466,874,0
19683925,792,-0.0518,-0.0381,1.0205,0.1221,0.2441,-0.1831,1,466,871,0
19688924,793,-0.0508,-0.0376,1.0210,0.0610,0.2441,-0.2441,1,466,870,0
19693923,794,-0.0503,-0.0371,1.0215,0.0610,0.2441,-0.2441,1,466,868,0
19698928,795,-0.0508,-0.0366,1.0225,0.0000,0.3052,-0.2441,1,466,873,0
19703928,796,-0.0498,-0.0376,1.0229,0.0610,0.3052,-0.3662,1,493,821,0
19708927,797,-0.0488,-0.0381,1.0229,0.0000,0.3052,-0.3662,1,471,872,0
19713930,798,-0.0498,-0.0376,1.0225,0.1831,0.3052,-0.1221,1,493,805,0
19718922,799,-0.0503,-0.0361,1.0220,0.1221,0.3662,-0.1221,1,478,849,0
19723924,800,-0.0508,-0.0361,1.0205,0.1221,0.4272,-0.3052,1,491,827,0
19728923,801,-0.0527,-0.0376,1.0210,0.0610,0.3052,-0.2441,1,494,808,0
19733929,802,-0.0527,-0.0386,1.0220,0.0610,0.2441,-0.3052,1,486,899,0
19738927,803,-0.0518,-0.0386,1.0215,0.1831,0.3662,-0.1221,1,493,831,0
19743930,804,-0.0503,-0.0381,1.0220,0.1831,0.4272,-0.1831,1,503,841,0
19748930,805,-0.0498,-0.0386,1.0210,0.1221,0.3662,-0.1831,1,466,869,0
19753929,806,-0.0513,-0.0386,1.0181,0.1831,0.3662,-0.3662,1,476,853,0
19758925,807,-0.0522,-0.0376,1.0186,0.1831,0.2441,-0.3052,1,478,855,0
19763922,808,-0.0518,-0.0366,1.0215,0.1831,0.3052,-0.1831,1,466,855,0
19768925,809,-0.0522,-0.0366,1.0225,0.1831,0.3052,-0.2441,1,466,873,0
19773930,810,-0.0527,-0.0366,1.0225,0.1831,0.3052,-0.3052,1,466,875,0
19778926,811,-0.0522,-0.0361,1.0225,0.1221,0.2441,-0.3052,1,466,871,0
19783928,812,-0.0513,-0.0366,1.0220,0.1221,0.3662,-0.3052,1,466,872,0
19788927,813,-0.0488,-0.0376,1.0225,0.0000,0.4272,-0.3052,1,466,869,0
19793945,814,-0.0474,-0.0366,1.0229,0.0610,0.4272,-0.4272,1,466,824,0
19798922,815,-0.0493,-0.0361,1.0225,0.0610,0.4272,-0.3662,1,466,875,0
19803929,816,-0.0508,-0.0371,1.0215,-0.1221,0.4883,-0.2441,1,494,877,0
19808930,817,-0.0508,-0.0381,1.0210,-0.1831,0.4883,-0.1831,1,488,867,0
19813929,818,-0.0508,-0.0376,1.0210,-0.0610,0.3662,-0.2441,1,464,860,0
19818923,819,-0.0513,-0.0356,1.0210,-0.0610,0.6104,-0.2441,1,509,849,0
19823928,820,-0.0518,-0.0352,1.0205,-0.1831,0.6104,-0.3662,1,483,829,0
19828929,821,-0.0532,-0.0361,1.0186,-0.3052,0.4272,-0.2441,1,490,784,0
19833930,822,-0.0547,-0.0366,1.0181,-0.1831,0.4272,-0.2441,1,493,894,0
19838926,823,-0.0542,-0.0381,1.0190,-0.1221,0.4272,-0.3662,1,503,836,0
19843922,824,-0.0532,-0.0386,1.0195,-0.0610,0.4272,-0.3662,1,494,830,0
19848924,825,-0.0513,-0.0376,1.0205,-0.1221,0.4883,-0.4272,1,474,874,0
19853927,826,-0.0503,-0.0366,1.0215,-0.0610,0.3662,-0.3052,1,481,850,0
19858929,827,-0.0493,-0.0366,1.0220,-0.0610,0.3662,-0.2441,1,478,850,0
19863926,828,-0.0488,-0.0371,1.0205,0.0000,0.2441,-0.3052,1,466,859,0
19868925,829,-0.0488,-0.0376,1.0195,0.0610,0.2441,-0.3052,1,466,828,0
19873929,830,-0.0493,-0.0376,1.0200,0.0610,0.2441,-0.2441,1,466,871,0
19878926,831,-0.0503,-0.0371,1.0205,-0.0610,0.4883,-0.3662,1,466,875,0
19883930,832,-0.0503,-0.0376,1.0200,-0.1221,0.4272,-0.3662,1,465,871,0
19888928,833,-0.0503,-0.0391,1.0195,-0.0610,0.2441,-0.2441,1,466,869,0
19893930,834,-0.0508,-0.0391,1.0195,0.1221,0.2441,-0.3052,1,466,870,0
19898923,835,-0.0513,-0.0376,1.0220,0.0610,0.3052,-0.3662,1,466,863,0
19903928,836,-0.0513,-0.0366,1.0239,0.0610,0.2441,-0.2441,1,493,867,0
19908924,837,-0.0522,-0.0366,1.0239,0.0610,0.3662,-0.3662,1,479,878,0
19913924,838,-0.0527,-0.0366,1.0229,-0.0610,0.4272,-0.3662,1,466,803,0
19918924,839,-0.0522,-0.0366,1.0215,0.0610,0.3662,-0.3662,1,503,823,0
19923926,840,-0.0522,-0.0376,1.0200,0.0610,0.3052,-0.3052,1,491,837,0
19928928,841,-0.0518,-0.0371,1.0215,0.0000,0.3052,-0.3052,1,499,806,0
19933927,842,-0.0513,-0.0371,1.0210,-0.0610,0.3052,-0.3052,1,481,779,0
19938929,843,-0.0522,-0.0371,1.0181,0.0610,0.2441,-0.2441,1,493,824,0
19943926,844,-0.0542,-0.0381,1.0156,0.0610,0.1221,-0.3052,1,497,844,0
19948927,845,-0.0547,-0.0396,1.0166,0.1831,0.0000,-0.2441,1,465,842,0
19953929,846,-0.0542,-0.0391,1.0186,0.3662,0.0000,-0.1831,1,472,811,0
19958930,847,-0.0518,-0.0381,1.0210,0.3052,-0.1221,-0.1831,1,471,806,0
19963929,848,-0.0498,-0.0371,1.0215,0.2441,-0.0610,-0.3052,1,483,844,0
19968923,849,-0.0508,-0.0361,1.0220,0.1831,0.0000,-0.3052,1,466,874,0
19973927,850,-0.0527,-0.0371,1.0225,0.0610,-0.1221,-0.2441,1,465,824,0
19978930,851,-0.0518,-0.0381,1.0220,0.1221,-0.0610,-0.3052,1,466,873,0
19983930,852,-0.0498,-0.0376,1.0210,0.2441,0.0610,-0.2441,1,466,861,0
19988926,853,-0.0488,-0.0356,1.0220,0.1221,0.0610,-0.1831,1,466,874,0
19993930,854,-0.0483,-0.0356,1.0215,0.0610,0.0000,-0.3052,1,466,874,0
19998957,855,-0.0483,-0.0376,1.0195,0.0000,0.2441,-0.3052,1,466,823,0
20003926,856,-0.0498,-0.0396,1.0205,0.1831,0.2441,-0.2441,1,466,827,0
20008927,857,-0.0508,-0.0396,1.0229,0.1831,0.1221,-0.2441,1,466,877,0
20013926,858,-0.0513,-0.0386,1.0234,0.2441,0.1221,-0.3052,1,493,870,0
20018924,859,-0.0508,-0.0381,1.0234,0.1221,0.1831,-0.3052,1,465,849,0
20023924,860,-0.0503,-0.0371,1.0229,0.0610,0.2441,-0.3052,1,495,836,0
20028930,861,-0.0513,-0.0366,1.0220,0.1221,0.1221,-0.2441,1,480,830,0
20033922,862,-0.0513,-0.0371,1.0210,0.1221,0.1221,-0.2441,1,496,830,0
20038925,863,-0.0503,-0.0376,1.0195,0.3052,0.2441,-0.2441,1,493,898,0
20043929,864,-0.0513,-0.0376,1.0186,0.1221,0.1221,-0.2441,1,499,831,0
20048929,865,-0.0527,-0.0376,1.0186,0.2441,-0.0610,-0.2441,1,499,827,0
20053930,866,-0.0522,-0.0386,1.0186,0.2441,-0.0610,-0.3052,1,465,872,0
20058925,867,-0.0508,-0.0391,1.0190,0.3052,-0.0610,-0.2441,1,469,851,0
20063928,868,-0.0503,-0.0386,1.0205,0.3052,-0.1221,-0.3662,1,474,845,0
20068922,869,-0.0508,-0.0371,1.0210,0.3052,0.0000,-0.2441,1,484,846,0
20073930,870,-0.0518,-0.0371,1.0190,0.3052,-0.1221,-0.3052,1,466,822,0
20078929,871,-0.0527,-0.0376,1.0186,0.4272,-0.1221,-0.3052,1,466,865,0
20083922,872,-0.0527,-0.0376,1.0200,0.4272,-0.1221,-0.2441,1,466,869,0
20088927,873,-0.0508,-0.0366,1.0225,0.3662,-0.1831,-0.2441,1,466,875,0
20093923,874,-0.0483,-0.0366,1.0234,0.3662,-0.0610,-0.2441,1,466,876,0
20098925,875,-0.0474,-0.0366,1.0229,0.2441,0.0000,-0.3052,1,466,881,0
20103946,876,-0.0479,-0.0361,1.0220,0.3662,0.0000,-0.3052,1,466,827,0
20108930,877,-0.0498,-0.0361,1.0220,0.4272,-0.1831,-0.2441,1,466,825,0
20113922,878,-0.0513,-0.0366,1.0220,0.3052,-0.1831,-0.3052,1,493,882,0
20118928,879,-0.0508,-0.0371,1.0210,0.2441,-0.0610,-0.3662,1,493,867,0
20123928,880,-0.0474,-0.0356,1.0220,0.1831,0.1221,-0.2441,1,464,815,0
20128928,881,-0.0493,-0.0366,1.0215,0.3052,0.1221,-0.1831,1,509,798,0
20133922,882,-0.0518,-0.0366,1.0210,0.3052,0.0000,-0.2441,1,487,832,0
20138930,883,-0.0527,-0.0361,1.0195,0.1831,0.0000,-0.2441,1,503,822,0
20143928,884,-0.0508,-0.0366,1.0186,0.2441,-0.0610,-0.3052,1,482,796,0
20148929,885,-0.0483,-0.0371,1.0195,0.3662,0.0000,-0.3052,1,492,829,0
20153923,886,-0.0483,-0.0376,1.0200,0.3052,0.0000,-0.4272,1,496,754,0
20158928,887,-0.0518,-0.0376,1.0200,0.1831,-0.1221,-0.3052,1,510,776,0
20163927,888,-0.0552,-0.0376,1.0190,0.3662,-0.3662,-0.2441,1,480,846,0
20168931,889,-0.0542,-0.0371,1.0186,0.3052,-0.3662,-0.3662,1,482,858,0
20173926,890,-0.0518,-0.0352,1.0205,0.4883,-0.2441,-0.3052,1,483,854,0
20178923,891,-0.0503,-0.0327,1.0220,0.3662,-0.2441,-0.3052,1,466,868,0
20183927,892,-0.0503,-0.0342,1.0200,0.3052,-0.1831,-0.3662,1,466,872,0
20188923,893,-0.0518,-0.0366,1.0186,0.4272,-0.4272,-0.3052,1,465,869,0
20193928,894,-0.0518,-0.0376,1.0200,0.3662,-0.4272,-0.3052,1,466,874,0
20198931,895,-0.0503,-0.0371,1.0225,0.4883,-0.3052,-0.4272,1,466,869,0
20203924,896,-0.0488,-0.0371,1.0234,0.4272,-0.2441,-0.4272,1,466,869,0
20208945,897,-0.0488,-0.0371,1.0234,0.4272,-0.3052,-0.4272,1,466,883,0
20213925,898,-0.0483,-0.0361,1.0244,0.4883,-0.3052,-0.3662,1,466,878,0
20218925,899,-0.0483,-0.0347,1.0244,0.3052,-0.2441,-0.3662,1,493,876,0
20223924,900,-0.0483,-0.0342,1.0229,0.3662,-0.1831,-0.3052,1,488,876,0
20228923,901,-0.0488,-0.0347,1.0220,0.3052,-0.0610,-0.3662,1,465,801,0
20233923,902,-0.0488,-0.0356,1.0220,0.2441,-0.1221,-0.4883,1,482,850,0
20238922,903,-0.0498,-0.0361,1.0225,0.1831,-0.0610,-0.3662,1,491,833,0
20243929,904,-0.0508,-0.0356,1.0220,0.3052,-0.0610,-0.4272,1,501,810,0
20248922,905,-0.0503,-0.0352,1.0215,0.3052,-0.1221,-0.3052,1,481,900,0
20253922,906,-0.0488,-0.0352,1.0220,0.1221,-0.1221,-0.3052,1,498,819,0
20258928,907,-0.0488,-0.0356,1.0220,0.1831,-0.1221,-0.3662,1,499,825,0
20263931,908,-0.0503,-0.0366,1.0210,0.3662,-0.1221,-0.3052,1,503,846,0
20268925,909,-0.0522,-0.0366,1.0200,0.3052,-0.1831,-0.4272,1,475,846,0
20273929,910,-0.0532,-0.0361,1.0200,0.3662,-0.3662,-0.3662,1,466,856,0
20278928,911,-0.0522,-0.0361,1.0195,0.3052,-0.1831,-0.4272,1,483,862,0
20283924,912,-0.0498,-0.0366,1.0195,0.3662,-0.3052,-0.4272,1,466,878,0
20288926,913,-0.0474,-0.0366,1.0205,0.3052,-0.3052,-0.3662,1,465,880,0
20293931,914,-0.0464,-0.0376,1.0225,0.3662,-0.3052,-0.3662,1,466,869,0
20298930,915,-0.0464,-0.0376,1.0239,0.3662,-0.3662,-0.4272,1,466,872,0
20303929,916,-0.0474,-0.0366,1.0239,0.3052,-0.3662,-0.3662,1,466,879,0
20308925,917,-0.0479,-0.0361,1.0244,0.2441,-0.3662,-0.3052,1,466,877,0
20313951,918,-0.0479,-0.0347,1.0229,0.3052,-0.2441,-0.3052,1,466,876,0
20318931,919,-0.0483,-0.0342,1.0210,0.3052,-0.3052,-0.3662,1,466,867,0
20323927,920,-0.0479,-0.0352,1.0205,0.3052,-0.3052,-0.4272,1,493,867,0
20328930,921,-0.0474,-0.0356,1.0210,0.1831,-0.3052,-0.3052,1,493,864,0
20333926,922,-0.0469,-0.0361,1.0225,0.3052,-0.2441,-0.3662,1,464,791,0
20338923,923,-0.0464,-0.0361,1.0234,0.1221,-0.1221,-0.2441,1,492,852,0
20343922,924,-0.0464,-0.0356,1.0239,0.0610,-0.0610,-0.3052,1,482,833,0
20348930,925,-0.0469,-0.0352,1.0234,0.0610,-0.0610,-0.3662,1,496,839,0
20353928,926,-0.0469,-0.0352,1.0215,0.0610,-0.0610,-0.4272,1,498,880,0
20358925,927,-0.0474,-0.0366,1.0200,0.0610,-0.0610,-0.3662,1,488,826,0
20363925,928,-0.0483,-0.0366,1.0195,0.0000,0.1831,-0.4272,1,497,831,0
20368930,929,-0.0498,-0.0356,1.0205,0.0000,0.1221,-0.3662,1,501,788,0
20373924,930,-0.0498,-0.0356,1.0200,0.0610,-0.0610,-0.2441,1,475,811,0
20378925,931,-0.0498,-0.0352,1.0195,0.0000,-0.1831,-0.3662,1,478,856,0
20383925,932,-0.0498,-0.0347,1.0205,0.0000,-0.0610,-0.4272,1,484,815,0
20388928,933,-0.0493,-0.0347,1.0210,0.1831,0.0000,-0.4272,1,466,828,0
20393924,934,-0.0479,-0.0347,1.0205,0.0610,-0.0610,-0.4272,1,466,829,0
20398923,935,-0.0464,-0.0347,1.0210,0.0610,-0.0610,-0.3662,1,466,869,0
20403922,936,-0.0464,-0.0356,1.0225,0.0000,0.0610,-0.3662,1,466,868,0
20408926,937,-0.0469,-0.0361,1.0234,0.0610,-0.0610,-0.3052,1,466,828,0
20413924,938,-0.0474,-0.0366,1.0239,0.1221,0.0000,-0.3052,1,466,868,0
20418924,939,-0.0479,-0.0361,1.0239,0.1221,0.0610,-0.2441,1,466,822,0
20423924,940,-0.0474,-0.0361,1.0229,0.0610,0.1221,-0.1831,1,492,872,0
20428922,941,-0.0469,-0.0356,1.0220,0.0610,0.1221,-0.3052,1,471,872,0
20433925,942,-0.0474,-0.0347,1.0220,0.0000,0.1831,-0.1221,1,493,862,0
20438928,943,-0.0483,-0.0337,1.0229,0.0610,0.2441,-0.2441,1,465,782,0
20443930,944,-0.0493,-0.0322,1.0225,0.0000,0.4272,-0.3052,1,473,838,0
20448929,945,-0.0493,-0.0327,1.0220,-0.0610,0.4883,-0.3662,1,503,819,0
20453928,946,-0.0488,-0.0342,1.0220,-0.1221,0.3052,-0.1221,1,491,872,0
20458927,947,-0.0474,-0.0356,1.0229,-0.1221,0.3052,-0.2441,1,503,824,0
20463930,948,-0.0479,-0.0366,1.0225,-0.1221,0.4272,-0.3052,1,489,841,0
20468924,949,-0.0498,-0.0352,1.0210,-0.0610,0.4883,-0.1221,1,492,793,0
20473923,950,-0.0503,-0.0337,1.0205,-0.0610,0.4272,-0.1831,1,475,846,0
20478930,951,-0.0493,-0.0347,1.0205,-0.0610,0.3662,-0.2441,1,482,852,0
20483922,952,-0.0493,-0.0361,1.0210,-0.0610,0.4272,-0.2441,1,483,858,0
20488928,953,-0.0498,-0.0361,1.0205,-0.0610,0.4272,-0.2441,1,466,876,0
20493927,954,-0.0493,-0.0352,1.0195,0.0000,0.4883,-0.1831,1,466,878,0
20498924,955,-0.0483,-0.0352,1.0195,0.0610,0.3662,-0.1221,1,466,830,0
20503926,956,-0.0479,-0.0366,1.0215,0.0610,0.3662,-0.2441,1,466,873,0
20508929,957,-0.0483,-0.0371,1.0220,0.0000,0.4272,-0.3052,1,466,874,0
20513923,958,-0.0493,-0.0371,1.0210,0.0610,0.4883,-0.1831,1,466,827,0
20518953,959,-0.0493,-0.0361,1.0205,0.0610,0.4883,-0.1221,1,466,874,0
20523928,960,-0.0483,-0.0356,1.0210,0.0000,0.3052,-0.2441,1,465,872,0
20528927,961,-0.0479,-0.0352,1.0215,-0.1221,0.4272,-0.3052,1,466,747,0
20533930,962,-0.0479,-0.0347,1.0215,-0.1221,0.3662,-0.2441,1,494,864,0
20538923,963,-0.0474,-0.0356,1.0215,-0.1221,0.3662,-0.1831,1,494,788,0
20543925,964,-0.0474,-0.0361,1.0210,-0.0610,0.4272,-0.0610,1,494,853,0
20548928,965,-0.0488,-0.0361,1.0210,-0.1221,0.4883,-0.1221,1,481,830,0
20553922,966,-0.0498,-0.0366,1.0215,-0.2441,0.4272,-0.1831,1,509,809,0
20558927,967,-0.0493,-0.0376,1.0225,-0.1221,0.5493,-0.1221,1,507,879,0
20563930,968,-0.0474,-0.0366,1.0244,-0.0610,0.6104,-0.1221,1,491,830,0
20568926,969,-0.0474,-0.0352,1.0239,-0.0610,0.6104,-0.2441,1,487,837,0
20573926,970,-0.0483,-0.0337,1.0220,-0.0610,0.5493,-0.1831,1,506,840,0
20578929,971,-0.0479,-0.0337,1.0210,-0.0610,0.7324,-0.1831,1,465,857,0
20583929,972,-0.0493,-0.0352,1.0210,0.0000,0.6104,-0.1221,1,484,852,0
20588930,973,-0.0508,-0.0376,1.0215,-0.0610,0.6714,-0.1831,1,466,819,0
20593927,974,-0.0493,-0.0376,1.0215,0.0000,0.5493,-0.1221,1,466,868,0
20598929,975,-0.0479,-0.0366,1.0229,-0.0610,0.6714,0.0000,1,466,826,0
20603923,976,-0.0474,-0.0356,1.0234,-0.0610,0.6714,-0.1831,1,465,828,0
20608925,977,-0.0493,-0.0347,1.0229,-0.0610,0.7324,-0.1831,1,466,875,0
20613924,978,-0.0498,-0.0337,1.0215,-0.0610,0.7324,-0.1221,1,466,879,0
20618941,979,-0.0488,-0.0342,1.0205,-0.1831,0.7324,-0.1221,1,466,872,0
20623925,980,-0.0483,-0.0352,1.0220,-0.2441,0.7324,-0.1831,1,466,873,0
20628923,981,-0.0488,-0.0347,1.0234,-0.2441,0.8545,-0.1831,1,493,879,0
20633923,982,-0.0488,-0.0347,1.0229,-0.3052,0.9155,-0.2441,1,494,877,0
20638928,983,-0.0488,-0.0361,1.0215,-0.2441,0.9155,-0.1831,1,493,799,0
20643927,984,-0.0503,-0.0371,1.0205,-0.2441,0.9155,-0.1831,1,485,833,0
20648931,985,-0.0518,-0.0371,1.0195,-0.1831,0.8545,-0.1831,1,475,838,0
20653928,986,-0.0532,-0.0361,1.0205,-0.1221,0.7935,-0.0610,1,506,812,0
20658928,987,-0.0518,-0.0361,1.0210,-0.2441,0.6714,-0.1831,1,497,904,0
20663928,988,-0.0498,-0.0361,1.0205,-0.1831,0.6714,-0.1831,1,488,835,0
20668929,989,-0.0488,-0.0366,1.0205,-0.2441,0.5493,-0.1831,1,487,840,0
20673922,990,-0.0493,-0.0366,1.0215,-0.2441,0.6104,-0.1831,1,506,850,0
20678930,991,-0.0493,-0.0356,1.0225,-0.1831,0.5493,-0.2441,1,469,858,0
20683928,992,-0.0493,-0.0347,1.0215,-0.1831,0.6104,-0.1221,1,480,864,0
20688926,993,-0.0493,-0.0352,1.0205,-0.3052,0.6714,-0.1221,1,466,852,0
20693924,994,-0.0498,-0.0366,1.0200,-0.2441,0.6104,-0.1831,1,466,866,0
20698929,995,-0.0498,-0.0366,1.0195,-0.2441,0.5493,-0.1831,1,466,875,0
20703923,996,-0.0493,-0.0361,1.0205,-0.1831,0.4883,-0.2441,1,466,884,0
20708924,997,-0.0493,-0.0361,1.0220,-0.1831,0.6104,-0.2441,1,466,881,0
20713931,998,-0.0503,-0.0366,1.0220,-0.3662,0.6104,-0.2441,1,466,877,0
20718931,999,-0.0513,-0.0366,1.0220,-0.3052,0.6104,-0.1221,1,466,873,0
20723924,1000,-0.0513,-0.0361,1.0210,-0.1831,0.6104,-0.2441,1,466,863,0
20728929,1001,-0.0503,-0.0361,1.0210,-0.1831,0.6104,-0.2441,1,493,874,0
20733928,1002,-0.0493,-0.0366,1.0215,-0.2441,0.5493,-0.1831,1,481,870,0
20738930,1003,-0.0498,-0.0371,1.0200,-0.3052,0.6104,-0.1831,1,494,880,0
20743929,1004,-0.0518,-0.0376,1.0190,-0.2441,0.4883,-0.1831,1,484,814,0
20748925,1005,-0.0527,-0.0381,1.0200,-0.1831,0.4883,-0.2441,1,478,834,0
20753924,1006,-0.0518,-0.0376,1.0205,-0.1831,0.4883,-0.2441,1,510,834,0
20758924,1007,-0.0508,-0.0356,1.0220,-0.1221,0.2441,-0.1831,1,479,886,0
20763930,1008,-0.0508,-0.0352,1.0229,-0.1831,0.4883,-0.1831,1,491,833,0
20768927,1009,-0.0493,-0.0361,1.0225,-0.1831,0.4272,-0.2441,1,491,843,0
20773928,1010,-0.0483,-0.0366,1.0210,-0.2441,0.4883,-0.3052,1,505,851,0
20778923,1011,-0.0498,-0.0366,1.0200,-0.2441,0.4883,-0.1831,1,480,853,0
20783923,1012,-0.0503,-0.0376,1.0190,-0.3052,0.3662,-0.4272,1,467,860,0
20788930,1013,-0.0498,-0.0386,1.0186,-0.3052,0.3052,-0.3052,1,483,852,0
20793922,1014,-0.0503,-0.0391,1.0195,-0.1831,0.4272,-0.3052,1,466,865,0
20798931,1015,-0.0508,-0.0376,1.0200,-0.1221,0.3052,-0.2441,1,466,869,0
20803924,1016,-0.0513,-0.0366,1.0205,-0.2441,0.3662,-0.2441,1,466,864,0
20808927,1017,-0.0518,-0.0371,1.0210,-0.2441,0.4272,-0.2441,1,465,882,0
20813925,1018,-0.0518,-0.0376,1.0210,-0.3052,0.3052,-0.1221,1,466,878,0
20818925,1019,-0.0513,-0.0376,1.0215,-0.3052,0.2441,-0.0610,1,466,862,0
20823924,1020,-0.0513,-0.0366,1.0225,-0.1831,0.4272,-0.1831,1,465,869,0
20828931,1021,-0.0513,-0.0361,1.0220,-0.3052,0.4883,-0.1831,1,466,879,0
20833926,1022,-0.0513,-0.0371,1.0210,-0.3052,0.4272,-0.2441,1,466,871,0
20838938,1023,-0.0513,-0.0376,1.0205,-0.2441,0.4272,-0.2441,1,494,872,0
20843928,1024,-0.0508,-0.0376,1.0195,-0.1831,0.4272,-0.1831,1,493,878,0
20848926,1025,-0.0503,-0.0376,1.0200,-0.1831,0.1831,-0.2441,1,495,856,0
20853928,1026,-0.0513,-0.0381,1.0200,-0.1831,0.1831,-0.3052,1,485,834,0
20858922,1027,-0.0513,-0.0396,1.0200,-0.1221,0.1831,-0.3052,1,493,837,0
20863929,1028,-0.0488,-0.0391,1.0229,-0.0610,0.2441,-0.3052,1,486,827,0
20868928,1029,-0.0479,-0.0356,1.0264,-0.2441,0.3662,-0.1831,1,486,830,0
20873927,1030,-0.0483,-0.0352,1.0254,-0.2441,0.6104,-0.2441,1,484,840,0
20878926,1031,-0.0498,-0.0376,1.0225,-0.2441,0.4272,-0.1831,1,503,844,0
20883924,1032,-0.0518,-0.0386,1.0205,-0.1831,0.2441,-0.1831,1,466,859,0
20888922,1033,-0.0527,-0.0396,1.0210,-0.3052,0.2441,-0.3662,1,484,860,0
20893924,1034,-0.0503,-0.0386,1.0239,-0.1221,0.2441,-0.2441,1,466,856,0
20898927,1035,-0.0488,-0.0347,1.0254,-0.1831,0.3052,-0.1221,1,466,872,0
20903929,1036,-0.0493,-0.0337,1.0234,-0.4883,0.2441,-0.1221,1,466,870,0
20908923,1037,-0.0498,-0.0361,1.0215,-0.3052,0.4272,-0.1831,1,466,874,0
20913926,1038,-0.0503,-0.0376,1.0220,-0.3052,0.3662,-0.1221,1,466,879,0
20918931,1039,-0.0513,-0.0371,1.0220,-0.3662,0.1831,-0.1221,1,466,866,0
20923925,1040,-0.0508,-0.0371,1.0205,-0.3662,0.1831,-0.1221,1,466,875,0
20928928,1041,-0.0493,-0.0391,1.0210,-0.3662,0.0000,0.0000,1,466,873,0
20933922,1042,-0.0488,-0.0400,1.0225,-0.3662,0.1221,-0.0610,1,493,777,0
20938929,1043,-0.0488,-0.0386,1.0220,-0.3052,0.0610,-0.1221,1,466,867,0
20943947,1044,-0.0508,-0.0381,1.0210,-0.3662,0.0610,-0.0610,1,480,865,0
20948928,1045,-0.0513,-0.0381,1.0210,-0.4272,0.1221,-0.0610,1,494,793,0
20953924,1046,-0.0498,-0.0381,1.0210,-0.3052,0.0610,0.0610,1,501,846,0
20958929,1047,-0.0493,-0.0381,1.0220,-0.1831,0.0610,0.0610,1,493,795,0
20963929,1048,-0.0503,-0.0376,1.0215,-0.3662,0.0610,0.0610,1,476,868,0
20968926,1049,-0.0513,-0.0381,1.0200,-0.3052,0.0000,-0.0610,1,484,828,0
20973925,1050,-0.0513,-0.0391,1.0186,-0.0610,0.0000,-0.0610,1,489,787,0
20978929,1051,-0.0513,-0.0396,1.0181,-0.0610,0.0000,-0.0610,1,496,771,0
20983930,1052,-0.0493,-0.0405,1.0186,-0.1831,-0.0610,-0.1221,1,508,771,0
20988928,1053,-0.0488,-0.0396,1.0190,0.0610,-0.1831,-0.0610,1,465,852,0
20993923,1054,-0.0498,-0.0376,1.0190,0.1221,0.0000,-0.0610,1,482,856,0
20998922,1055,-0.0508,-0.0361,1.0220,0.1221,-0.2441,-0.1221,1,466,806,0
21003924,1056,-0.0503,-0.0371,1.0215,0.1221,0.0000,-0.1831,1,466,869,0
21008925,1057,-0.0503,-0.0386,1.0195,0.1831,-0.0610,-0.1831,1,466,825,0
21013928,1058,-0.0498,-0.0396,1.0181,0.1831,-0.0610,-0.1221,1,466,873,0
21018929,1059,-0.0498,-0.0391,1.0190,0.2441,-0.1221,-0.1831,1,466,869,0
21023923,1060,-0.0508,-0.0381,1.0205,0.1831,-0.1831,-0.1831,1,465,875,0
21028924,1061,-0.0508,-0.0371,1.0210,0.2441,-0.0610,-0.1831,1,466,875,0
21033928,1062,-0.0508,-0.0366,1.0205,0.1831,-0.0610,-0.3052,1,465,872,0
21038929,1063,-0.0488,-0.0366,1.0215,0.1831,0.0610,-0.2441,1,492,869,0
21043930,1064,-0.0469,-0.0376,1.0225,0.2441,0.0610,-0.1831,1,493,878,0
21048927,1065,-0.0474,-0.0386,1.0225,0.1221,-0.0610,-0.3052,1,490,870,0
21053927,1066,-0.0483,-0.0391,1.0220,0.1831,0.0610,-0.1831,1,465,808,0
21058923,1067,-0.0488,-0.0381,1.0205,0.2441,0.2441,-0.1221,1,476,833,0
21063923,1068,-0.0493,-0.0376,1.0186,0.3052,0.1221,-0.2441,1,491,814,0
21068929,1069,-0.0508,-0.0386,1.0181,0.3052,0.0610,-0.1221,1,479,881,0
21073926,1070,-0.0503,-0.0391,1.0205,0.3052,0.0000,-0.1831,1,477,819,0
21078927,1071,-0.0498,-0.0386,1.0229,0.4272,-0.0610,-0.2441,1,489,788,0
21083923,1072,-0.0503,-0.0381,1.0225,0.3662,-0.0610,-0.3052,1,504,848,0
21088926,1073,-0.0488,-0.0386,1.0215,0.2441,0.0000,-0.3052,1,465,846,0
21093924,1074,-0.0483,-0.0376,1.0210,0.3662,0.0610,-0.3052,1,465,807,0
21098929,1075,-0.0493,-0.0356,1.0205,0.3052,0.1831,-0.3052,1,484,849,0
21103930,1076,-0.0503,-0.0356,1.0205,0.1831,0.0610,-0.2441,1,466,872,0
21108931,1077,-0.0493,-0.0371,1.0210,0.2441,0.1221,-0.2441,1,466,874,0
21113927,1078,-0.0483,-0.0381,1.0215,0.2441,0.1221,-0.2441,1,466,877,0
21118924,1079,-0.0483,-0.0366,1.0225,0.1221,0.1221,-0.3662,1,466,874,0
21123926,1080,-0.0498,-0.0352,1.0234,0.1221,0.1221,-0.2441,1,466,873,0
21128929,1081,-0.0508,-0.0361,1.0234,0.1221,0.1221,-0.1831,1,466,874,0
21133957,1082,-0.0513,-0.0381,1.0220,0.0610,0.0610,-0.2441,1,466,871,0
21138927,1083,-0.0493,-0.0386,1.0205,0.0000,0.0610,-0.1831,1,466,868,0
21143927,1084,-0.0479,-0.0381,1.0210,0.0000,0.0610,-0.1831,1,492,827,0
21148944,1085,-0.0483,-0.0371,1.0215,0.0000,0.0610,-0.1831,1,477,746,0
21153929,1086,-0.0493,-0.0371,1.0210,0.1221,0.0000,-0.1831,1,494,763,0
21158924,1087,-0.0498,-0.0376,1.0205,0.1221,0.0610,-0.1831,1,483,760,0
21163924,1088,-0.0503,-0.0366,1.0205,0.0610,0.1221,-0.3052,1,500,805,0
21168926,1089,-0.0498,-0.0366,1.0210,0.0610,0.0610,-0.2441,1,489,862,0
21173924,1090,-0.0493,-0.0381,1.0215,0.0000,0.0000,-0.2441,1,492,834,0
21178925,1091,-0.0498,-0.0386,1.0205,0.1831,0.0610,-0.1831,1,484,734,0
21183922,1092,-0.0513,-0.0381,1.0195,0.1831,0.0000,-0.2441,1,504,845,0
21188927,1093,-0.0518,-0.0381,1.0190,0.1831,0.0610,-0.3052,1,465,810,0
21193930,1094,-0.0498,-0.0376,1.0195,0.1221,-0.1221,-0.2441,1,465,848,0
21198922,1095,-0.0469,-0.0371,1.0220,0.0610,-0.1221,-0.3052,1,484,854,0
21203926,1096,-0.0459,-0.0361,1.0239,0.0610,-0.1221,-0.1831,1,466,866,0
21208928,1097,-0.0474,-0.0371,1.0225,0.1221,0.0000,-0.1221,1,466,874,0
21213926,1098,-0.0493,-0.0386,1.0220,0.1221,0.1221,-0.2441,1,466,823,0
21218927,1099,-0.0503,-0.0386,1.0225,0.0000,0.0610,-0.3052,1,466,872,0
21223931,1100,-0.0498,-0.0381,1.0220,0.1221,0.0000,-0.1831,1,466,819,0
21228927,1101,-0.0488,-0.0386,1.0210,0.2441,-0.1221,-0.1221,1,466,827,0
21233955,1102,-0.0498,-0.0391,1.0210,0.1221,-0.1221,-0.3052,1,466,870,0
21238927,1103,-0.0508,-0.0386,1.0210,0.1221,-0.1831,-0.3052,1,466,861,0
21243928,1104,-0.0498,-0.0381,1.0215,0.2441,-0.1221,-0.1831,1,492,864,0
21248932,1105,-0.0483,-0.0386,1.0215,0.0610,-0.0610,-0.1831,1,466,872,0
21253922,1106,-0.0474,-0.0391,1.0215,0.0000,-0.1221,-0.2441,1,494,792,0
21258924,1107,-0.0474,-0.0376,1.0215,0.1831,0.0610,-0.1831,1,490,782,0
21263925,1108,-0.0474,-0.0366,1.0220,0.0610,-0.0610,-0.1831,1,476,832,0
21268929,1109,-0.0483,-0.0366,1.0215,0.0610,0.0000,-0.2441,1,506,833,0
21273930,1110,-0.0488,-0.0361,1.0205,0.0610,0.0000,-0.2441,1,491,791,0
21278924,1111,-0.0483,-0.0361,1.0205,-0.0610,0.1221,-0.1831,1,490,791,0
21283928,1112,-0.0479,-0.0366,1.0205,0.0610,0.1221,-0.1831,1,477,844,0
21288925,1113,-0.0479,-0.0381,1.0215,-0.0610,0.1221,-0.3052,1,493,840,0
21293925,1114,-0.0488,-0.0381,1.0215,0.0610,0.1221,-0.2441,1,476,843,0
21298925,1115,-0.0498,-0.0371,1.0215,0.0610,0.1831,-0.2441,1,476,851,0
21303923,1116,-0.0498,-0.0371,1.0215,0.0000,0.2441,-0.3052,1,484,860,0
21308929,1117,-0.0483,-0.0381,1.0210,0.0000,0.1221,-0.3052,1,466,831,0
21313925,1118,-0.0479,-0.0381,1.0215,0.0610,0.1221,-0.3052,1,466,819,0
21318928,1119,-0.0488,-0.0376,1.0225,0.1221,0.0610,-0.3052,1,466,861,0
21323923,1120,-0.0488,-0.0376,1.0225,0.0610,0.1221,-0.1831,1,466,866,0
21328923,1121,-0.0483,-0.0371,1.0225,0.0610,0.1221,-0.3662,1,466,871,0
21333927,1122,-0.0483,-0.0366,1.0210,0.1831,0.2441,-0.3052,1,466,874,0
21338926,1123,-0.0483,-0.0366,1.0205,0.0000,0.3052,-0.1831,1,466,875,0
21343930,1124,-0.0483,-0.0361,1.0225,0.0610,0.3052,-0.1831,1,465,830,0
21348925,1125,-0.0479,-0.0361,1.0244,0.0000,0.2441,-0.1831,1,493,874,0
21353944,1126,-0.0474,-0.0376,1.0244,0.0000,0.3052,-0.3052,1,483,758,0
21358922,1127,-0.0469,-0.0376,1.0225,0.0610,0.4272,-0.3052,1,494,764,0
21363924,1128,-0.0464,-0.0371,1.0205,-0.1221,0.5493,-0.2441,1,480,825,0
21368930,1129,-0.0469,-0.0366,1.0210,0.0610,0.4883,-0.2441,1,487,836,0
21373925,1130,-0.0483,-0.0356,1.0220,0.0000,0.4883,-0.2441,1,510,829,0
21378922,1131,-0.0488,-0.0361,1.0215,-0.0610,0.5493,-0.3052,1,491,792,0
21383928,1132,-0.0479,-0.0366,1.0205,-0.1221,0.4883,-0.2441,1,484,841,0
21388923,1133,-0.0474,-0.0366,1.0210,-0.0610,0.6104,-0.3052,1,480,842,0
21393928,1134,-0.0483,-0.0371,1.0225,-0.1831,0.6104,-0.1221,1,501,817,0
21398923,1135,-0.0483,-0.0376,1.0244,-0.1831,0.7324,-0.1221,1,472,855,0
21403922,1136,-0.0479,-0.0381,1.0244,-0.1221,0.7935,-0.1831,1,477,859,0
21408924,1137,-0.0479,-0.0381,1.0234,-0.1831,0.7324,-0.2441,1,483,851,0
21413929,1138,-0.0479,-0.0366,1.0234,-0.1221,0.6104,-0.1831,1,466,878,0
21418929,1139,-0.0469,-0.0352,1.0229,-0.1831,0.7935,-0.1221,1,466,873,0
21423926,1140,-0.0474,-0.0356,1.0234,-0.1831,1.0986,-0.2441,1,466,870,0
21428928,1141,-0.0483,-0.0366,1.0254,-0.3052,0.9155,-0.3662,1,466,882,0
21433927,1142,-0.0488,-0.0376,1.0249,-0.2441,0.9766,-0.2441,1,466,877,0
21438923,1143,-0.0479,-0.0376,1.0225,-0.3052,1.0376,-0.2441,1,466,879,0
21443924,1144,-0.0474,-0.0376,1.0205,-0.2441,1.0986,-0.2441,1,466,869,0
21448926,1145,-0.0488,-0.0376,1.0190,-0.3052,1.1597,-0.2441,1,466,878,0
21453926,1146,-0.0522,-0.0381,1.0171,-0.3662,0.8545,-0.1831,1,492,873,0
21458926,1147,-0.0532,-0.0391,1.0156,-0.2441,0.6714,-0.1221,1,466,871,0
21463929,1148,-0.0513,-0.0391,1.0166,-0.1221,0.6104,-0.3052,1,494,798,0
21468925,1149,-0.0488,-0.0386,1.0205,-0.0610,0.6714,-0.1831,1,485,843,0
21473928,1150,-0.0479,-0.0371,1.0239,-0.1831,0.8545,-0.1831,1,478,833,0
21478930,1151,-0.0474,-0.0366,1.0254,-0.1831,0.8545,-0.3052,1,499,839,0
21483926,1152,-0.0483,-0.0371,1.0259,-0.2441,0.9155,-0.2441,1,486,831,0
21488928,1153,-0.0488,-0.0376,1.0239,-0.2441,0.7935,-0.2441,1,484,842,0
21493924,1154,-0.0479,-0.0371,1.0215,-0.1831,0.9766,-0.1221,1,487,840,0
21498930,1155,-0.0483,-0.0371,1.0225,-0.4272,0.9766,-0.1831,1,507,839,0
21503924,1156,-0.0493,-0.0361,1.0239,-0.4272,1.0376,-0.1221,1,480,860,0
21508929,1157,-0.0493,-0.0361,1.0234,-0.5493,1.0986,-0.3052,1,483,858,0
21513931,1158,-0.0488,-0.0371,1.0210,-0.6104,1.0986,-0.3052,1,465,861,0
21518929,1159,-0.0488,-0.0366,1.0205,-0.4883,1.0986,-0.3662,1,466,870,0
21523930,1160,-0.0493,-0.0356,1.0215,-0.4883,1.2207,-0.3052,1,465,880,0
21528922,1161,-0.0488,-0.0352,1.0220,-0.3662,1.2817,-0.2441,1,466,875,0
21533923,1162,-0.0498,-0.0361,1.0220,-0.4272,1.2817,-0.1831,1,466,881,0
21538930,1163,-0.0503,-0.0376,1.0229,-0.5493,1.2817,-0.1221,1,466,884,0
21543924,1164,-0.0483,-0.0386,1.0229,-0.4272,1.4038,-0.1221,1,466,875,0
21548923,1165,-0.0474,-0.0381,1.0234,-0.4883,1.3428,-0.1221,1,465,879,0
21553927,1166,-0.0483,-0.0376,1.0239,-0.5493,1.4038,-0.1221,1,466,868,0
21558926,1167,-0.0493,-0.0371,1.0244,-0.5493,1.5259,-0.1831,1,466,876,0
21563929,1168,-0.0503,-0.0381,1.0249,-0.5493,1.6479,-0.2441,1,494,882,0
21568922,1169,-0.0513,-0.0381,1.0239,-0.4883,1.6479,-0.1831,1,482,819,0
21573928,1170,-0.0513,-0.0376,1.0220,-0.6104,1.7700,-0.1831,1,488,835,0
21578925,1171,-0.0508,-0.0376,1.0210,-0.6104,1.8311,-0.0610,1,503,805,0
21583926,1172,-0.0503,-0.0376,1.0229,-0.5493,1.9531,-0.1831,1,492,873,0
21588930,1173,-0.0498,-0.0381,1.0244,-0.4883,2.0752,-0.1221,1,479,840,0
21593924,1174,-0.0493,-0.0386,1.0234,-0.4883,2.1362,-0.1831,1,484,832,0
21598929,1175,-0.0493,-0.0391,1.0215,-0.4883,2.0752,-0.1221,1,507,851,0
21603929,1176,-0.0503,-0.0386,1.0205,-0.3052,2.1973,-0.1831,1,479,847,0
21608930,1177,-0.0527,-0.0400,1.0205,-0.3662,2.2583,-0.2441,1,482,851,0
21613924,1178,-0.0547,-0.0420,1.0195,-0.2441,2.1362,-0.2441,1,483,863,0
21618925,1179,-0.0552,-0.0415,1.0190,-0.0610,2.2583,-0.1831,1,466,881,0
21623923,1180,-0.0547,-0.0396,1.0195,0.0610,2.0142,-0.1831,1,466,879,0
21628924,1181,-0.0537,-0.0386,1.0195,0.1221,2.0142,-0.3052,1,466,872,0
21633922,1182,-0.0537,-0.0376,1.0190,0.1221,1.8921,-0.2441,1,466,870,0
21638923,1183,-0.0537,-0.0381,1.0186,0.0610,1.9531,-0.1831,1,466,873,0
21643929,1184,-0.0542,-0.0386,1.0190,0.1831,1.9531,-0.1221,1,466,875,0
21648927,1185,-0.0566,-0.0396,1.0176,0.1221,1.7700,-0.1831,1,466,873,0
21653928,1186,-0.0571,-0.0396,1.0166,0.1831,1.6479,-0.1831,1,466,872,0
21658929,1187,-0.0566,-0.0376,1.0171,0.2441,1.6479,-0.1221,1,492,882,0
21663934,1188,-0.0562,-0.0376,1.0176,0.0610,1.5259,-0.1221,1,470,872,0
21668927,1189,-0.0571,-0.0400,1.0156,0.1831,1.2817,-0.1831,1,493,788,0
21673928,1190,-0.0601,-0.0415,1.0127,0.2441,1.1597,-0.2441,1,494,805,0
21678926,1191,-0.0605,-0.0410,1.0122,0.3052,0.8545,-0.1221,1,495,834,0
21683928,1192,-0.0576,-0.0391,1.0151,0.4272,0.7324,-0.1831,1,488,865,0
21688928,1193,-0.0537,-0.0376,1.0186,0.4272,0.5493,-0.2441,1,476,839,0
21693928,1194,-0.0503,-0.0376,1.0225,0.3662,0.4883,-0.1831,1,489,839,0
21698923,1195,-0.0513,-0.0381,1.0225,0.3052,0.6714,-0.1831,1,495,841,0
21703922,1196,-0.0557,-0.0381,1.0190,0.2441,0.7935,-0.1831,1,470,846,0
21708924,1197,-0.0586,-0.0386,1.0161,0.1831,0.4883,-0.1221,1,477,854,0
21713925,1198,-0.0586,-0.0405,1.0156,0.3052,0.3662,-0.1831,1,483,853,0
21718926,1199,-0.0557,-0.0405,1.0186,0.4272,0.3052,-0.2441,1,466,873,0
21723926,1200,-0.0518,-0.0381,1.0215,0.4272,0.1831,-0.1221,1,465,872,0
21728926,1201,-0.0498,-0.0361,1.0225,0.4883,0.3052,-0.1831,1,466,870,0
21733922,1202,-0.0508,-0.0371,1.0225,0.3662,0.4883,-0.3052,1,466,874,0
21738928,1203,-0.0527,-0.0400,1.0200,0.3052,0.4883,-0.2441,1,466,869,0
21743928,1204,-0.0557,-0.0405,1.0176,0.3662,0.3662,-0.1831,1,466,871,0
21748926,1205,-0.0557,-0.0396,1.0190,0.4272,0.2441,-0.2441,1,465,878,0
21753923,1206,-0.0537,-0.0396,1.0220,0.4272,0.1831,-0.2441,1,466,877,0
21758924,1207,-0.0522,-0.0386,1.0225,0.4883,0.1831,-0.1221,1,492,878,0
21763936,1208,-0.0522,-0.0366,1.0225,0.3662,0.3052,-0.2441,1,469,870,0
21768922,1209,-0.0527,-0.0366,1.0210,0.3662,0.3662,-0.2441,1,494,875,0
21773928,1210,-0.0547,-0.0386,1.0195,0.4883,0.3052,-0.1831,1,493,805,0
21778925,1211,-0.0557,-0.0396,1.0186,0.5493,0.3052,-0.2441,1,475,830,0
21783930,1212,-0.0557,-0.0400,1.0176,0.3662,0.1831,-0.2441,1,481,841,0
21788929,1213,-0.0562,-0.0391,1.0151,0.5493,0.0000,-0.3052,1,507,874,0
21793925,1214,-0.0566,-0.0391,1.0146,0.4883,-0.0610,-0.3052,1,474,747,0
21798930,1215,-0.0562,-0.0400,1.0171,0.6714,-0.1831,-0.2441,1,487,837,0
21803930,1216,-0.0557,-0.0400,1.0190,0.7935,-0.2441,-0.3052,1,503,841,0
21808929,1217,-0.0547,-0.0381,1.0210,0.7324,-0.2441,-0.3052,1,483,851,0
21813922,1218,-0.0522,-0.0361,1.0234,0.6714,-0.1221,-0.1831,1,482,849,0
21818927,1219,-0.0508,-0.0352,1.0239,0.6714,-0.1221,-0.2441,1,466,877,0
21823929,1220,-0.0508,-0.0361,1.0234,0.5493,-0.1831,-0.2441,1,466,899,0
21828927,1221,-0.0518,-0.0371,1.0229,0.5493,0.0610,-0.1221,1,466,880,0
21833924,1222,-0.0532,-0.0376,1.0225,0.5493,0.0000,-0.2441,1,466,874,0
21838923,1223,-0.0542,-0.0391,1.0225,0.5493,-0.0610,-0.1831,1,466,833,0
21843930,1224,-0.0547,-0.0391,1.0210,0.6104,-0.0610,-0.2441,1,466,870,0
21848925,1225,-0.0547,-0.0391,1.0205,0.6714,-0.0610,-0.3052,1,466,866,0
21853945,1226,-0.0527,-0.0391,1.0225,0.6714,0.0000,-0.2441,1,466,864,0
21858931,1227,-0.0508,-0.0391,1.0229,0.7324,-0.0610,-0.1831,1,466,829,0
21863931,1228,-0.0513,-0.0391,1.0229,0.7935,0.0000,-0.2441,1,493,871,0
21868923,1229,-0.0527,-0.0396,1.0229,0.7324,0.0610,-0.3052,1,488,722,0
21873922,1230,-0.0537,-0.0371,1.0205,0.7324,0.0000,-0.2441,1,482,798,0
21878925,1231,-0.0537,-0.0356,1.0200,0.7324,0.2441,-0.3052,1,478,795,0
21883923,1232,-0.0552,-0.0371,1.0200,0.6714,0.1221,-0.3052,1,498,836,0
21888922,1233,-0.0557,-0.0391,1.0200,0.7935,-0.0610,-0.3052,1,489,877,0
21893923,1234,-0.0542,-0.0386,1.0220,0.9766,0.0610,-0.2441,1,496,823,0
21898929,1235,-0.0522,-0.0356,1.0239,1.0376,0.1221,-0.2441,1,486,830,0
21903928,1236,-0.0522,-0.0337,1.0229,0.9155,0.0610,-0.3662,1,499,846,0
21908930,1237,-0.0527,-0.0366,1.0200,0.7935,0.0610,-0.3052,1,479,831,0
21913925,1238,-0.0537,-0.0386,1.0190,0.9155,-0.0610,-0.3052,1,483,850,0
21918925,1239,-0.0542,-0.0376,1.0225,0.8545,-0.1221,-0.3662,1,483,854,0
21923922,1240,-0.0527,-0.0361,1.0259,0.7324,0.0000,-0.4272,1,465,869,0
21928922,1241,-0.0513,-0.0361,1.0269,0.6104,0.0610,-0.4272,1,466,834,0
21933922,1242,-0.0513,-0.0356,1.0249,0.6104,0.0000,-0.2441,1,466,872,0
21938927,1243,-0.0513,-0.0356,1.0229,0.5493,0.0000,-0.1831,1,466,830,0
21943929,1244,-0.0513,-0.0356,1.0220,0.4883,0.1831,-0.2441,1,466,834,0
21948925,1245,-0.0518,-0.0352,1.0229,0.3662,0.3052,-0.3052,1,465,878,0
21953923,1246,-0.0522,-0.0352,1.0244,0.4272,0.3052,-0.1831,1,465,870,0
21958929,1247,-0.0518,-0.0371,1.0239,0.4272,0.3052,-0.1831,1,465,876,0
21963923,1248,-0.0508,-0.0376,1.0225,0.4272,0.4272,-0.1831,1,492,875,0
21968934,1249,-0.0522,-0.0342,1.0215,0.4272,0.4272,-0.0610,1,468,871,0
21973922,1250,-0.0537,-0.0322,1.0215,0.3662,0.5493,-0.1831,1,494,873,0
21978931,1251,-0.0542,-0.0337,1.0215,0.3662,0.5493,-0.1831,1,490,807,0
21983927,1252,-0.0527,-0.0352,1.0225,0.3052,0.6104,-0.2441,1,486,837,0
21988923,1253,-0.0503,-0.0352,1.0229,0.1831,0.5493,-0.2441,1,479,868,0
21993930,1254,-0.0493,-0.0361,1.0225,0.3662,0.5493,-0.1831,1,494,904,0
21998929,1255,-0.0513,-0.0361,1.0234,0.3662,0.5493,-0.1221,1,476,842,0
22003929,1256,-0.0527,-0.0347,1.0249,0.2441,0.6104,-0.1831,1,482,847,0
22008922,1257,-0.0522,-0.0356,1.0249,0.1221,0.7935,-0.2441,1,506,846,0
22013930,1258,-0.0513,-0.0376,1.0249,0.1831,0.8545,-0.1831,1,472,858,0
22018924,1259,-0.0508,-0.0366,1.0249,0.3662,0.8545,-0.1221,1,484,856,0
22023926,1260,-0.0513,-0.0342,1.0244,0.3052,0.9155,-0.1221,1,466,871,0
22028925,1261,-0.0532,-0.0337,1.0244,0.2441,0.9155,-0.0610,1,466,869,0
22033923,1262,-0.0532,-0.0352,1.0249,0.1221,1.0376,-0.0610,1,466,879,0
22038927,1263,-0.0522,-0.0366,1.0254,0.1221,1.0986,-0.1221,1,466,870,0
22043929,1264,-0.0522,-0.0366,1.0249,0.1221,1.2817,-0.0610,1,465,873,0
22048928,1265,-0.0518,-0.0347,1.0259,0.1221,1.2207,-0.0610,1,466,876,0
22053924,1266,-0.0518,-0.0342,1.0269,0.0610,1.2207,-0.1221,1,466,867,0
22058950,1267,-0.0518,-0.0366,1.0269,0.0610,1.2207,-0.1221,1,466,867,0
22063924,1268,-0.0522,-0.0366,1.0254,-0.0610,1.4038,-0.0610,1,466,869,0
22068926,1269,-0.0527,-0.0347,1.0225,-0.1831,1.3428,-0.0610,1,466,873,0
22073923,1270,-0.0518,-0.0337,1.0210,-0.1221,1.2817,-0.0610,1,494,872,0
22078923,1271,-0.0522,-0.0356,1.0215,-0.1221,1.4648,0.0000,1,482,793,0
22083923,1272,-0.0532,-0.0371,1.0215,-0.1221,1.4648,0.1221,1,480,800,0
22088925,1273,-0.0552,-0.0371,1.0210,-0.1221,1.5259,0.1221,1,489,823,0
22093925,1274,-0.0566,-0.0386,1.0205,0.0000,1.3428,0.1221,1,498,878,0
22098926,1275,-0.0566,-0.0396,1.0210,0.0610,1.4038,0.0000,1,506,795,0
22103925,1276,-0.0552,-0.0381,1.0210,0.1831,1.4648,0.0000,1,471,778,0
22108931,1277,-0.0547,-0.0356,1.0205,0.3052,1.4648,0.0000,1,499,779,0
22113929,1278,-0.0557,-0.0361,1.0210,0.2441,1.4648,0.0000,1,474,807,0
22118926,1279,-0.0566,-0.0391,1.0215,0.2441,1.4648,0.0000,1,477,811,0
22123930,1280,-0.0571,-0.0400,1.0195,0.4883,1.5259,-0.0610,1,483,812,0
22128930,1281,-0.0591,-0.0396,1.0171,0.6714,1.3428,0.1831,1,466,874,0
22133927,1282,-0.0586,-0.0381,1.0171,0.6714,1.0986,0.1221,1,466,868,0
22138923,1283,-0.0571,-0.0371,1.0171,0.7324,1.0986,0.0610,1,466,865,0
22143927,1284,-0.0562,-0.0371,1.0190,0.7324,1.1597,0.0610,1,466,876,0
22148927,1285,-0.0547,-0.0376,1.0205,0.8545,1.0986,0.1831,1,466,875,0
22153930,1286,-0.0527,-0.0366,1.0195,0.9155,1.2817,0.1831,1,466,874,0
22158942,1287,-0.0513,-0.0337,1.0195,0.7935,1.3428,0.2441,1,466,884,0
22163923,1288,-0.0537,-0.0342,1.0195,0.7324,1.4038,0.3662,1,466,876,0
22168929,1289,-0.0571,-0.0366,1.0176,0.7935,1.4038,0.3662,1,465,878,0
22173926,1290,-0.0576,-0.0381,1.0156,0.9766,1.3428,0.3052,1,486,878,0
22178931,1291,-0.0576,-0.0356,1.0161,1.0376,1.2817,0.3662,1,510,867,0
22183924,1292,-0.0566,-0.0342,1.0181,0.9155,1.1597,0.3662,1,474,852,0
22188922,1293,-0.0547,-0.0356,1.0190,1.0376,1.4648,0.4272,1,491,808,0
22193930,1294,-0.0537,-0.0381,1.0186,1.0986,1.4648,0.4883,1,479,874,0
22198928,1295,-0.0552,-0.0396,1.0171,1.2817,1.5259,0.4272,1,501,835,0
22203923,1296,-0.0630,-0.0376,1.0103,1.4038,1.4038,0.4272,1,491,841,0
22208927,1297,-0.0645,-0.0376,1.0073,1.3428,0.6104,0.5493,1,499,842,0
22213926,1298,-0.0610,-0.0396,1.0103,1.5869,1.2207,0.4883,1,476,823,0
22218922,1299,-0.0610,-0.0361,1.0117,1.8921,1.2207,0.4883,1,481,853,0
22223930,1300,-0.0571,-0.0332,1.0146,1.7700,0.7935,0.5493,1,484,857,0
22228928,1301,-0.0532,-0.0332,1.0156,1.9531,1.4648,0.4272,1,466,880,0
22233925,1302,-0.0542,-0.0322,1.0132,2.0142,1.5259,0.3052,1,466,886,0
22238923,1303,-0.0527,-0.0288,1.0171,1.8311,1.4648,0.4272,1,466,869,0
22243928,1304,-0.0493,-0.0337,1.0210,1.6479,2.0142,0.6104,1,466,877,0
22248930,1305,-0.0513,-0.0396,1.0161,1.8921,2.5024,0.6104,1,466,873,0
22253929,1306,-0.0591,-0.0352,1.0098,1.8311,2.2583,0.8545,1,466,870,0
22258928,1307,-0.0591,-0.0312,1.0083,1.4038,2.0142,0.9766,1,466,869,0
22263928,1308,-0.0547,-0.0322,1.0103,1.6479,2.5635,1.0986,1,466,942,0
22268923,1309,-0.0522,-0.0337,1.0122,1.8311,2.8687,1.2817,1,466,876,0
22273942,1310,-0.0527,-0.0337,1.0093,1.7090,3.2959,1.3428,1,467,879,0
22278929,1311,-0.0640,-0.0342,0.9971,1.7700,3.5400,1.2817,1,494,871,0
22283923,1312,-0.0801,-0.0376,0.9849,1.8311,2.6855,1.5869,1,486,797,0
22288928,1313,-0.0879,-0.0420,0.9805,2.3193,1.4038,1.6479,1,496,831,0
22293925,1314,-0.0708,-0.0503,0.9912,2.8076,0.7324,1.6479,1,481,874,0
22298930,1315,-0.0522,-0.0581,1.0049,3.6011,2.6245,1.4648,1,493,909,0
22303927,1316,-0.0576,-0.0503,1.0044,4.9438,3.1128,1.3428,1,501,839,0
22308931,1317,-0.0640,-0.0381,1.0020,5.3101,2.4414,1.3428,1,487,845,0
22313924,1318,-0.0630,-0.0386,1.0073,5.6763,2.6855,1.0986,1,493,822,0
22318930,1319,-0.0625,-0.0444,1.0127,6.7139,2.9297,0.6104,1,476,859,0
22323928,1320,-0.0630,-0.0469,1.0146,7.3853,2.6855,0.1831,1,483,854,0
22328929,1321,-0.0610,-0.0454,1.0161,8.3008,2.4414,-0.1221,1,466,879,0
22333924,1322,-0.0586,-0.0425,1.0190,8.9722,2.5635,-0.4272,1,466,876,0
22338929,1323,-0.0552,-0.0347,1.0225,9.3384,2.6245,-0.6714,1,466,876,0
22343929,1324,-0.0542,-0.0205,1.0278,9.4604,2.9297,-0.6714,1,466,877,0
22348925,1325,-0.0542,-0.0059,1.0361,8.9111,3.2349,-0.5493,1,466,877,0
22353930,1326,-0.0532,0.0034,1.0444,7.9956,3.4790,-0.3662,1,466,877,0
22358925,1327,-0.0537,0.0063,1.0459,7.0801,4.0283,-0.1831,1,466,883,0
22363927,1328,-0.0591,0.0039,1.0430,6.0425,4.0283,-0.1831,1,465,872,0
22368925,1329,-0.0659,0.0024,1.0396,5.1880,3.9062,-0.0610,1,492,871,0
22373936,1330,-0.0713,0.0024,1.0347,4.1504,3.6621,0.0610,1,466,873,0
22378926,1331,-0.0732,-0.0029,1.0293,3.2959,2.9907,-0.1221,1,494,869,0
22383924,1332,-0.0737,-0.0093,1.0244,3.0518,2.6855,-0.1221,1,483,796,0
22388922,1333,-0.0767,-0.0088,1.0195,2.7466,2.0142,-0.1221,1,489,833,0
22393927,1334,-0.0815,-0.0093,1.0161,2.1973,1.1597,-0.4883,1,479,866,0
22398922,1335,-0.0850,-0.0122,1.0146,1.8921,0.3052,-0.5493,1,486,832,0
22403924,1336,-0.0815,-0.0122,1.0166,1.5259,-0.4883,-0.7324,1,504,834,0
22408922,1337,-0.0737,-0.0083,1.0220,1.0986,-0.9155,-0.7324,1,487,848,0
22413924,1338,-0.0708,-0.0059,1.0249,0.4883,-1.3428,-0.7935,1,501,831,0
22418930,1339,-0.0732,-0.0093,1.0220,0.1221,-2.1362,-0.9155,1,477,847,0
22423922,1340,-0.0728,-0.0127,1.0205,-0.2441,-2.6855,-1.0986,1,484,854,0
22428930,1341,-0.0688,-0.0122,1.0249,-0.4272,-2.9907,-1.2817,1,466,879,0
22433923,1342,-0.0654,-0.0093,1.0283,-0.7935,-3.3569,-1.1597,1,466,885,0
22438930,1343,-0.0615,-0.0112,1.0317,-1.3428,-3.6621,-1.1597,1,466,879,0
22443923,1344,-0.0596,-0.0176,1.0317,-1.4038,-3.4790,-1.3428,1,466,884,0
22448931,1345,-0.0576,-0.0225,1.0303,-1.4648,-3.4790,-1.0986,1,466,879,0
22453930,1346,-0.0537,-0.0225,1.0308,-1.5259,-3.1128,-0.9155,1,466,880,0
22458925,1347,-0.0586,-0.0171,1.0234,-1.6479,-2.3193,-1.0376,1,466,877,0
22463940,1348,-0.0688,-0.0127,1.0142,-1.9531,-2.8076,-0.9155,1,466,878,0
22468930,1349,-0.0698,-0.0137,1.0132,-2.1973,-3.2349,-0.7324,1,466,882,0
22473922,1350,-0.0615,-0.0146,1.0186,-2.3804,-3.2349,-0.7324,1,493,879,0
22478931,1351,-0.0566,-0.0176,1.0195,-2.5024,-2.9297,-0.8545,1,494,878,0
22483930,1352,-0.0649,-0.0244,1.0122,-2.2583,-2.9297,-0.9155,1,510,879,0
22488927,1353,-0.0732,-0.0298,1.0068,-2.0142,-3.8452,-0.9155,1,477,855,0
22493926,1354,-0.0684,-0.0273,1.0107,-1.8311,-4.3945,-1.2207,1,491,816,0
22498924,1355,-0.0576,-0.0190,1.0200,-1.8311,-4.3945,-1.4038,1,483,877,0
22503931,1356,-0.0488,-0.0156,1.0278,-2.1973,-4.1504,-1.5259,1,494,839,0
22508928,1357,-0.0454,-0.0176,1.0317,-2.3804,-3.8452,-1.5869,1,499,847,0
22513923,1358,-0.0483,-0.0190,1.0308,-2.4414,-3.2959,-1.6479,1,504,852,0
22518927,1359,-0.0522,-0.0205,1.0254,-2.3193,-3.2349,-1.7700,1,498,834,0
22523926,1360,-0.0542,-0.0249,1.0215,-2.2583,-3.2349,-1.8311,1,468,862,0
22528930,1361,-0.0547,-0.0269,1.0220,-2.0142,-3.1738,-1.9531,1,483,860,0
22533927,1362,-0.0527,-0.0254,1.0239,-2.0142,-2.9297,-2.0752,1,466,880,0
22538925,1363,-0.0503,-0.0244,1.0249,-2.1973,-2.6245,-1.8921,1,466,878,0
22543923,1364,-0.0508,-0.0215,1.0239,-2.0752,-2.3193,-1.7700,1,466,880,0
22548927,1365,-0.0513,-0.0195,1.0225,-2.3193,-2.1362,-1.7090,1,466,875,0
22553922,1366,-0.0488,-0.0229,1.0244,-2.3804,-1.8921,-1.6479,1,466,882,0
22558925,1367,-0.0459,-0.0273,1.0259,-2.1362,-1.2207,-1.4648,1,466,880,0
22563922,1368,-0.0479,-0.0283,1.0234,-2.0752,-0.7324,-1.5259,1,466,883,0
22568930,1369,-0.0527,-0.0244,1.0186,-2.1973,-0.7324,-1.5869,1,465,879,0
22573930,1370,-0.0562,-0.0200,1.0146,-2.3804,-0.7324,-1.4648,1,492,883,0
22578937,1371,-0.0562,-0.0225,1.0127,-2.5024,-0.6104,-1.2817,1,465,878,0
22583927,1372,-0.0562,-0.0288,1.0098,-2.0752,-0.6714,-1.2207,1,494,872,0
22588928,1373,-0.0586,-0.0332,1.0054,-1.9531,-0.6104,-1.2207,1,511,765,0
22593931,1374,-0.0635,-0.0317,1.0024,-1.7090,-0.7935,-1.4038,1,485,835,0
22598924,1375,-0.0654,-0.0308,1.0054,-1.8311,-1.2817,-1.5259,1,491,844,0
22603922,1376,-0.0601,-0.0366,1.0122,-1.4038,-1.5869,-1.5259,1,484,832,0
22608929,1377,-0.0542,-0.0400,1.0166,-0.6714,-1.4648,-1.7090,1,496,838,0
22613930,1378,-0.0566,-0.0366,1.0176,-0.0610,-1.3428,-2.0142,1,498,834,0
22618927,1379,-0.0645,-0.0312,1.0171,0.1831,-1.7700,-2.1973,1,502,844,0
22623923,1380,-0.0698,-0.0312,1.0146,0.5493,-2.0752,-2.6855,1,465,879,0
22628930,1381,-0.0698,-0.0347,1.0137,1.0376,-2.1973,-3.1128,1,484,889,0
22633927,1382,-0.0645,-0.0342,1.0166,1.7700,-2.6855,-3.6621,1,466,859,0
22638923,1383,-0.0625,-0.0312,1.0181,2.1973,-3.1738,-4.0283,1,466,883,0
22643925,1384,-0.0640,-0.0273,1.0156,2.5024,-3.6011,-4.3335,1,466,902,0
22648925,1385,-0.0649,-0.0244,1.0151,2.8076,-3.9673,-4.6387,1,466,877,0
22653926,1386,-0.0654,-0.0234,1.0171,2.8687,-4.5166,-5.0049,1,466,885,0
22658924,1387,-0.0596,-0.0254,1.0220,3.1128,-4.9438,-5.1880,1,466,875,0
22663922,1388,-0.0508,-0.0264,1.0269,3.4790,-4.6387,-5.2490,1,466,879,0
22668929,1389,-0.0488,-0.0269,1.0269,3.6011,-4.3945,-5.1270,1,466,876,0
22673927,1390,-0.0542,-0.0288,1.0205,3.4790,-4.6387,-4.9438,1,466,877,0
22678928,1391,-0.0625,-0.0312,1.0112,3.5400,-5.0659,-4.6997,1,493,883,0
22683924,1392,-0.0698,-0.0288,1.0029,3.9673,-5.6763,-4.5166,1,479,908,0
22688922,1393,-0.0742,-0.0254,0.9971,4.1504,-6.4697,-4.3945,1,489,884,0
22693925,1394,-0.0757,-0.0259,0.9941,4.1504,-7.5073,-3.9062,1,472,849,0
22698926,1395,-0.0752,-0.0259,0.9946,4.3335,-8.4839,-3.5400,1,500,837,0
22703929,1396,-0.0752,-0.0259,0.9951,4.4556,-9.5215,-3.4790,1,486,876,0
22708925,1397,-0.0737,-0.0273,0.9990,4.5776,-10.8643,-3.4790,1,491,866,0
22713927,1398,-0.0679,-0.0288,1.0049,4.7607,-11.9629,-3.5400,1,508,883,0
22718926,1399,-0.0688,-0.0298,1.0034,5.1270,-12.5122,-3.9062,1,489,856,0
22723923,1400,-0.0757,-0.0303,1.0005,5.4932,-13.9770,-4.0283,1,501,871,0
22728925,1401,-0.0752,-0.0303,1.0029,6.0425,-15.3809,-4.4556,1,482,870,0
22733924,1402,-0.0679,-0.0293,1.0083,6.4697,-16.4795,-5.1270,1,483,869,0
22738930,1403,-0.0532,-0.0249,1.0200,6.4697,-17.8833,-5.5542,1,466,890,0
22743929,1404,-0.0332,-0.0195,1.0322,6.6528,-18.0054,-5.9814,1,465,896,0
22748925,1405,-0.0244,-0.0122,1.0381,6.5308,-17.4561,-6.2256,1,466,896,0
22753924,1406,-0.0298,0.0015,1.0366,5.9814,-17.7612,-6.3477,1,466,886,0
22758923,1407,-0.0479,0.0122,1.0254,3.6621,-19.4702,-6.4697,1,466,889,0
22763924,1408,-0.0474,0.0034,1.0215,3.1128,-20.5078,-6.4087,1,466,894,0
22768923,1409,-0.0430,-0.0073,1.0200,2.6855,-21.1182,-6.3477,1,466,889,0
22773922,1410,-0.0396,-0.0161,1.0190,2.5635,-21.8506,-5.9204,1,466,892,0
22778927,1411,-0.0400,-0.0210,1.0137,2.8687,-22.2168,-5.6763,1,466,895,0
22783929,1412,-0.0513,-0.0254,1.0059,3.0518,-23.0713,-5.5542,1,466,891,0
22788922,1413,-0.0669,-0.0283,1.0029,3.5400,-24.7803,-5.6763,1,494,887,0
22793926,1414,-0.0698,-0.0264,1.0049,4.0894,-27.1606,-6.0425,1,512,893,0
22798929,1415,-0.0737,-0.0225,1.0034,4.5166,-28.9307,-6.7139,1,491,873,0
22803922,1416,-0.0854,-0.0146,1.0024,4.6387,-32.5317,-7.0801,1,500,857,0
22808925,1417,-0.0786,-0.0068,1.0078,4.4556,-36.3770,-7.2632,1,494,890,0
22813922,1418,-0.0601,-0.0063,1.0146,4.3945,-38.3301,-7.6904,1,498,869,0
22818926,1419,-0.0474,-0.0107,1.0210,4.3945,-40.3442,-7.7515,1,508,853,0
22823922,1420,-0.0322,-0.0156,1.0264,4.2725,-42.7246,-7.3242,1,504,857,0
22828926,1421,-0.0229,-0.0151,1.0278,4.3945,-44.0063,-7.6294,1,496,856,0
22833930,1422,-0.0229,-0.0073,1.0303,4.4556,-45.6543,-8.1787,1,465,883,0
22838924,1423,-0.0117,-0.0010,1.0366,4.0894,-48.0957,-8.4839,1,483,877,0
22843926,1424,0.0034,0.0059,1.0435,3.7842,-48.7061,-9.0942,1,465,886,0
22848925,1425,0.0171,0.0176,1.0527,2.7466,-49.4385,-9.2773,1,466,882,0
22853923,1426,0.0229,0.0249,1.0605,1.2207,-50.4761,-9.5825,1,466,897,0
22858927,1427,0.0020,0.0273,1.0620,-0.3052,-52.3682,-10.3760,1,466,897,0
22863923,1428,-0.0303,0.0254,1.0601,-2.8687,-58.2886,-10.4980,1,466,905,0
22868922,1429,-0.0469,0.0225,1.0581,-4.6387,-62.5610,-10.1929,1,466,905,0
22873924,1430,-0.0381,0.0254,1.0547,-6.7139,-66.5894,-9.1553,1,466,911,0
22878953,1431,-0.0220,0.0254,1.0562,-8.9722,-70.2515,-8.4229,1,465,886,0
22883930,1432,-0.0132,0.0195,1.0605,-10.9253,-75.2563,-7.9346,1,466,886,0
22888930,1433,-0.0127,0.0122,1.0601,-12.5732,-80.0781,-7.6904,1,466,909,0
22893925,1434,-0.0225,0.0054,1.0576,-13.7329,-84.3506,-8.1787,1,468,903,0
22898928,1435,-0.0889,0.0181,1.0620,-15.4419,-89.9658,-9.7046,1,511,912,0
22903927,1436,-0.2554,0.0464,1.0767,-18.4326,-103.5156,-11.3525,1,488,806,0
22908927,1437,-0.4595,0.0791,1.1074,-22.3999,-129.2725,-11.0474,1,498,868,0
22913923,1438,-0.5801,0.1206,1.1538,-28.0151,-167.6636,-10.6201,1,485,868,0
22918925,1439,-0.6309,0.1489,1.1943,-36.1328,-207.8857,-11.4136,1,497,936,0
22923925,1440,-0.7212,0.1577,1.2329,-46.7529,-248.3520,-14.5874,1,494,921,0
22928929,1441,-0.8096,0.1943,1.3008,-57.3730,-298.3398,-16.4795,1,504,913,0
22933928,1442,-0.8979,0.2900,1.4131,-73.4863,-347.1069,-17.5781,1,508,894,0
22938927,1443,-0.9834,0.3755,1.5674,-99.0601,-400.0854,-22.2778,1,482,910,0
22943922,1444,-0.9326,0.3228,1.6938,-121.4600,-463.5009,-25.8789,1,483,912,0
22948927,1445,-0.7554,0.2231,1.7407,-132.7515,-506.2256,-29.4189,1,466,951,0
22953924,1446,-0.6367,0.2690,1.7725,-148.8647,-531.6162,-33.6914,1,466,942,0
22958923,1447,-0.7646,0.3740,1.8335,-177.6123,-564.8804,-38.6963,1,466,936,0
22963930,1448,-0.9351,0.3760,1.8047,-202.5757,-614.3188,-44.4946,1,466,933,0
22968928,1449,-0.8403,0.2236,1.5479,-214.3555,-647.1557,-49.4385,1,466,937,0
22973924,1450,-0.5825,-0.0474,1.1582,-215.3931,-652.7099,-60.7910,1,466,952,0
22978924,1451,-0.4126,-0.3574,0.7920,-202.3926,-661.2548,-70.9229,1,466,944,0
22983948,1452,-0.4082,-0.6748,0.4941,-173.8891,-684.0820,-74.6460,1,465,939,0
22988928,1453,-0.4082,-0.8257,0.3540,-133.5449,-713.5009,-75.0122,1,466,944,0
22993923,1454,-0.0830,-0.4575,0.5112,-91.5527,-722.4731,-63.7817,1,493,932,0
22998923,1455,1.0107,0.0684,1.2007,-75.2563,-675.7812,-30.0293,1,466,944,0
23003922,1456,2.8701,-0.2515,2.8848,-115.5395,-582.6416,-16.1743,1,512,925,0
23008928,1457,3.8872,-1.2153,4.8203,-105.0415,-396.1792,-42.0532,1,484,942,0
23013922,1458,2.7114,-1.6367,5.3496,-28.2593,-221.0083,-47.9126,1,508,845,0
23018927,1459,0.4575,-1.1978,4.3696,6.9580,-128.5400,-38.7573,1,479,919,0
23023927,1460,-1.0161,-0.5312,3.1396,-2.5635,-86.1206,-33.2031,1,496,918,0
23028927,1461,-1.1982,-0.1733,2.4521,-1.4648,-53.0395,-28.3203,1,505,943,0
23033925,1462,-0.8774,-0.0728,2.1309,15.5640,-20.2637,-29.2358,1,491,891,0
23038929,1463,-0.7637,0.0161,1.8271,25.0854,1.5869,-34.7290,1,501,896,0
23043926,1464,-0.9014,0.1553,1.5146,28.6255,7.1411,-41.6260,1,473,896,0
23048925,1465,-1.0352,0.2729,1.3135,29.0527,7.0190,-51.2085,1,483,901,0
23053922,1466,-1.0605,0.3247,1.2749,29.5410,10.6201,-63.3545,1,466,915,0
23058925,1467,-1.0146,0.3335,1.3496,31.8603,16.6626,-74.7681,1,466,940,0
23063922,1468,-0.9360,0.3081,1.4609,33.3862,26.8555,-86.4258,1,466,923,0
23068926,1469,-0.8521,0.2500,1.5596,35.7666,41.3818,-98.0835,1,466,933,0
23073922,1470,-0.7666,0.1616,1.6226,39.4287,59.5093,-107.7270,1,466,924,0
23078924,1471,-0.6875,0.0522,1.6543,43.8843,80.6885,-115.2954,1,466,937,0
23083928,1472,-0.6279,-0.0562,1.6792,47.9126,102.7832,-120.7886,1,466,941,0
23088922,1473,-0.5835,-0.1665,1.7139,52.4292,125.0000,-123.5351,1,466,941,0
23093922,1474,-0.5449,-0.2793,1.7446,58.7158,147.2778,-123.7793,1,466,952,0
23098924,1475,-0.5117,-0.3867,1.7422,65.4907,169.6777,-122.1924,1,492,948,0
23103925,1476,-0.4858,-0.4873,1.6919,71.7773,191.6504,-118.2861,1,471,947,0
23108923,1477,-0.4722,-0.5869,1.5913,77.4536,211.4258,-112.3657,1,511,944,0
23113923,1478,-0.4761,-0.6797,1.4507,82.6416,227.9053,-104.3701,1,475,843,0
23118923,1479,-0.4883,-0.7500,1.3027,85.3271,239.8681,-94.7876,1,506,834,0
23123926,1480,-0.4961,-0.7959,1.1802,85.0830,247.9248,-83.8013,1,495,901,0
23128930,1481,-0.4927,-0.8228,1.0952,81.6650,252.9297,-71.5332,1,489,930,0
23133929,1482,-0.4668,-0.8345,1.0391,75.6836,255.8594,-58.5937,1,497,918,0
23138929,1483,-0.4131,-0.8286,0.9927,68.6646,258.2397,-45.2270,1,483,902,0
23143930,1484,-0.3477,-0.8057,0.9458,60.3027,261.4136,-32.7759,1,492,853,0
23148927,1485,-0.2930,-0.7710,0.9023,51.3916,264.7095,-21.3013,1,467,905,0
23153925,1486,-0.2617,-0.7227,0.8638,42.6025,267.7002,-10.9863,1,483,909,0
23158922,1487,-0.2500,-0.6592,0.8350,33.2031,268.5547,-1.7090,1,466,931,0
23163926,1488,-0.2358,-0.5830,0.8281,22.7051,267.8833,6.3477,1,466,900,0
23168928,1489,-0.2046,-0.5083,0.8525,11.1694,266.8457,13.0615,1,466,918,0
23173922,1490,-0.1606,-0.4482,0.9072,-0.3052,266.6016,18.8599,1,466,939,0
23178929,1491,-0.1206,-0.4038,0.9868,-10.7422,266.9067,23.3765,1,466,904,0
23183924,1492,-0.0918,-0.3711,1.0884,-19.7754,267.8223,27.1606,1,466,932,0
23188924,1493,-0.0615,-0.3506,1.2061,-27.6489,269.7754,30.9448,1,466,918,0
23193948,1494,-0.0215,-0.3364,1.3296,-33.5083,274.1089,34.8511,1,465,930,0
23198924,1495,0.0176,-0.3159,1.4473,-38.1470,280.9448,38.8794,1,466,918,0
23203939,1496,0.0479,-0.2881,1.5469,-41.7480,289.1846,42.9687,1,465,951,0
23208922,1497,0.0728,-0.2578,1.6187,-43.8232,298.4009,47.1802,1,483,930,0
23213922,1498,0.0981,-0.2246,1.6553,-44.3115,307.8003,51.5137,1,467,859,0
23218925,1499,0.1152,-0.1836,1.6567,-44.1284,316.4062,55.4810,1,501,861,0
23223924,1500,0.1133,-0.1279,1.6411,-43.7622,321.8383,58.5327,1,489,868,0
23228925,1501,0.1118,-0.0635,1.6357,-43.8232,324.2187,60.9131,1,493,885,0
23233923,1502,0.1406,-0.0073,1.6533,-44.3115,325.9887,62.5610,1,502,941,0
23238924,1503,0.1943,0.0347,1.6851,-44.1284,328.7964,63.1103,1,489,906,0
23243928,1504,0.2451,0.0703,1.7168,-43.3960,332.3974,62.6221,1,497,901,0
23248929,1505,0.2798,0.1069,1.7456,-42.7856,335.5713,60.9741,1,472,935,0
23253922,1506,0.3101,0.1416,1.7734,-42.3584,338.4399,58.5937,1,483,925,0
23258926,1507,0.3511,0.1675,1.7944,-41.8701,341.5527,55.5420,1,466,944,0
23263929,1508,0.3945,0.1807,1.7998,-41.1987,344.9707,51.8799,1,466,940,0
23268924,1509,0.4277,0.1782,1.7993,-40.4053,347.6562,47.8516,1,466,940,0
23273924,1510,0.4531,0.1597,1.8066,-39.6729,348.9990,44.1284,1,466,945,0
23278923,1511,0.4780,0.1240,1.8228,-39.0625,350.0976,41.0156,1,466,938,0
23283925,1512,0.4990,0.0737,1.8374,-37.8418,350.8300,38.6963,1,466,930,0
23288929,1513,0.5107,0.0195,1.8457,-36.1328,350.6469,37.5366,1,466,925,0
23293929,1514,0.5137,-0.0215,1.8584,-34.4849,349.4873,37.2925,1,466,935,0
23298925,1515,0.5161,-0.0381,1.8979,-33.9355,347.8393,37.3535,1,466,924,0
23303922,1516,0.5200,-0.0337,1.9800,-34.5459,346.9238,37.2314,1,493,935,0
23308927,1517,0.5225,-0.0210,2.1030,-35.8887,346.7407,36.3159,1,477,926,0
23313930,1518,0.5386,-0.0103,2.2583,-38.2080,347.1679,34.8511,1,511,922,0
23318931,1519,0.5923,-0.0190,2.4263,-42.1753,350.4028,34.0576,1,488,923,0
23323925,1520,0.6787,-0.0630,2.5737,-45.8374,357.7881,34.7290,1,498,826,0
23328928,1521,0.7705,-0.1338,2.6562,-46.5088,367.5537,36.8652,1,479,897,0
23333927,1522,0.8496,-0.2021,2.6431,-43.8843,376.5869,40.7104,1,484,907,0
23338928,1523,0.9146,-0.2393,2.5386,-38.9404,382.7514,45.1660,1,498,920,0
23343928,1524,0.9805,-0.2358,2.3726,-33.2031,384.6435,49.8657,1,506,897,0
23348928,1525,1.0601,-0.2070,2.1880,-27.5879,382.8735,53.7720,1,493,861,0
23353927,1526,1.1479,-0.1665,2.0122,-23.0713,377.8686,56.4575,1,466,917,0
23358926,1527,1.2285,-0.1177,1.8560,-19.8364,369.3237,57.4951,1,483,931,0
23363930,1528,1.2939,-0.0684,1.7246,-18.2495,358.0932,56.7627,1,466,940,0
23368930,1529,1.3550,-0.0342,1.6211,-18.1885,344.6655,54.3823,1,466,940,0
23373928,1530,1.4189,-0.0195,1.5317,-18.5547,331.0547,50.8423,1,466,931,0
23378924,1531,1.4785,-0.0132,1.4360,-19.1650,317.4438,46.4478,1,466,932,0
23383927,1532,1.5200,-0.0034,1.3320,-20.2637,303.1616,40.9546,1,466,930,0
23388923,1533,1.5396,0.0142,1.2319,-21.9727,287.9028,34.4849,1,466,925,0
23393931,1534,1.5435,0.0415,1.1406,-24.6582,271.5454,26.9775,1,466,928,0
23398936,1535,1.5474,0.0825,1.0640,-28.5034,254.2724,18.4937,1,466,940,0
23403927,1536,1.5713,0.1377,1.0112,-33.8135,237.7319,8.7280,1,466,934,0
23408939,1537,1.6172,0.1992,0.9780,-41.0156,222.7173,-1.7090,1,493,921,0
23413928,1538,1.6694,0.2378,0.9414,-48.5229,208.8623,-12.5732,1,477,919,0
23418929,1539,1.7080,0.2275,0.8818,-54.6875,195.1904,-22.7661,1,511,947,0
23423924,1540,1.7080,0.1768,0.7954,-58.8379,181.3965,-31.4941,1,491,943,0
23428930,1541,1.6714,0.1118,0.6968,-61.2793,165.5273,-37.9028,1,477,913,0
23433922,1542,1.6353,0.0347,0.6045,-60.6689,146.8506,-41.5039,1,481,909,0
23438926,1543,1.6240,-0.0684,0.5269,-56.3965,126.7090,-42.1143,1,500,887,0
23443925,1544,1.6260,-0.1855,0.4629,-48.0347,106.3232,-40.1001,1,508,897,0
23448922,1545,1.6221,-0.2891,0.4136,-37.3535,85.7544,-35.7666,1,495,895,0
23453928,1546,1.6074,-0.3647,0.3843,-26.3062,64.3311,-29.9683,1,477,901,0
23458925,1547,1.5869,-0.4097,0.3730,-15.3809,42.4194,-23.5596,1,483,907,0
23463922,1548,1.5615,-0.4224,0.3740,-6.1646,20.8740,-17.4561,1,466,934,0
23468927,1549,1.5396,-0.4092,0.3906,-0.5493,0.3662,-12.3291,1,466,907,0
23473922,1550,1.5239,-0.3916,0.4229,1.0986,-18.0054,-8.1177,1,466,899,0
23478922,1551,1.4951,-0.3921,0.4492,0.4883,-34.2407,-4.7607,1,466,892,0
23483925,1552,1.4351,-0.4136,0.4604,-1.8311,-50.2930,-1.8921,1,466,895,0
23488923,1553,1.3457,-0.4463,0.4751,-4.8218,-66.3452,0.8545,1,466,889,0
23493923,1554,1.2695,-0.4976,0.5337,-8.3618,-83.6792,3.8452,1,466,894,0
23498929,1555,1.5024,-0.4546,0.1611,-16.3574,-146.4844,10.3760,1,466,906,0
23503925,1556,1.1353,-0.0542,-1.0205,-23.0713,-278.0762,33.5083,1,465,930,0
23508927,1557,-0.1909,0.1421,-1.3906,-76.1108,-319.8242,11.9629,1,492,922,0
23513930,1558,-0.2324,-0.2114,-0.0591,-91.7969,-352.7832,20.1416,1,473,928,0
23518928,1559,0.7290,-0.5439,1.2925,-75.6226,-288.6353,27.4048,1,511,937,0
23523923,1560,0.1665,-0.8262,1.8027,-83.1299,-211.1816,2.1362,1,473,849,0
23528930,1561,-1.2271,-1.1343,1.7563,-48.5229,-258.4229,11.1694,1,499,843,0
23533928,1562,-1.5771,-1.0068,1.3325,15.7471,-303.3447,22.0337,1,477,875,0
23538929,1563,-1.0215,-0.3169,0.7598,35.4614,-311.4014,17.1509,1,488,933,0
23543925,1564,-0.3955,0.4102,0.2578,25.8789,-337.1582,9.5825,1,496,875,0
23548922,1565,-0.1499,0.7983,0.1465,4.3945,-374.5117,4.5166,1,506,894,0
23553926,1566,-0.1323,0.8931,0.6958,-13.6719,-423.2177,3.1128,1,496,882,0
23558925,1567,0.0547,0.8647,1.7959,-21.8506,-442.4438,-1.5259,1,465,906,0
23563927,1568,0.4644,0.7964,2.9961,-19.7144,-419.9829,-9.5825,1,484,900,0
23568923,1569,0.9438,0.7554,3.7427,-7.4463,-374.4507,-17.7612,1,466,915,0
23573924,1570,1.1899,0.7256,3.7686,0.8545,-318.1763,-31.0059,1,466,920,0
23578924,1571,1.1133,0.5894,3.2812,-0.6714,-273.9258,-46.3867,1,465,912,0
23583927,1572,0.8760,0.2891,2.6807,-5.1270,-236.6943,-55.6030,1,465,950,0
23588923,1573,0.5688,-0.1353,2.2056,-17.2729,-204.4067,-54.3823,1,466,922,0
23593925,1574,0.3042,-0.5439,1.8643,-24.6582,-182.6782,-47.6074,1,465,940,0
23598924,1575,0.1475,-0.7764,1.5762,-24.4141,-169.4336,-38.1470,1,466,946,0
23603931,1576,0.0679,-0.7954,1.3252,-24.2920,-162.4756,-28.5034,1,466,932,0
23608928,1577,-0.0454,-0.7207,1.1411,-23.9868,-158.4473,-21.9116,1,466,939,0
23613931,1578,-0.5645,-1.6333,1.9058,22.8882,-185.1806,26.1230,1,466,942,0
23618926,1579,0.3770,-1.7656,1.9849,57.0068,-179.6875,41.6870,1,466,940,0
23623929,1580,0.7803,-1.5532,1.6074,76.4771,-117.4927,46.0205,1,492,941,0
23628923,1581,0.3130,-0.9414,1.3198,105.2246,-113.5254,47.6074,1,470,931,0
23633922,1582,-0.0571,-0.1240,1.3447,122.8638,-136.2915,50.8423,1,496,951,0
23638924,1583,0.0015,0.4541,1.5000,113.9526,-120.9106,40.9546,1,481,914,0
23643927,1584,0.0840,0.5156,1.6440,100.7080,-98.0225,29.6631,1,486,900,0
23648924,1585,0.1333,0.1812,1.6855,98.9380,-94.6045,28.4424,1,491,942,0
23653926,1586,0.2290,-0.1660,1.5415,100.4028,-84.9609,28.1372,1,498,896,0
23658925,1587,0.1846,-0.3096,1.3159,102.7222,-67.7490,27.2217,1,496,911,0
23663926,1588,0.0254,-0.2095,1.1875,108.6426,-66.9556,27.7710,1,499,856,0
23668924,1589,-0.0547,0.0708,1.2041,109.5581,-68.2373,26.9165,1,466,907,0
23673927,1590,-0.0376,0.3540,1.3369,99.8535,-61.7676,21.6675,1,483,911,0
23678925,1591,0.0371,0.5054,1.4761,84.1064,-55.2978,16.7847,1,466,936,0
23683923,1592,0.1118,0.5068,1.5098,68.1763,-44.4336,11.8408,1,466,927,0
23688928,1593,0.1001,0.3794,1.4331,53.4058,-34.9731,7.6294,1,465,928,0
23693928,1594,0.0093,0.2393,1.3149,43.1519,-30.8838,3.9673,1,466,907,0
23698929,1595,-0.0557,0.1470,1.2075,34.3628,-34.2407,2.0142,1,466,911,0
23703922,1596,-0.0605,0.0576,1.1250,28.1372,-31.5552,0.8545,1,466,903,0
23708925,1597,-0.0532,-0.0049,1.0811,25.5127,-30.2734,0.0610,1,466,914,0
23713925,1598,-0.0498,-0.0068,1.0703,23.5596,-29.0527,-0.1831,1,466,906,0
23718922,1599,-0.0386,0.0220,1.0806,19.1650,-28.6255,-0.1831,1,465,914,0
23723925,1600,-0.0107,0.0327,1.0986,14.8926,-25.9399,-0.1831,1,492,903,0
23728941,1601,0.0264,0.0259,1.1250,11.3525,-21.3013,-0.0610,1,466,949,0
23733922,1602,0.0493,0.0195,1.1353,8.3008,-14.9536,0.1831,1,466,908,0
23738930,1603,0.0249,0.0122,1.1084,5.4321,-9.2773,-0.4883,1,511,898,0
23743924,1604,-0.0234,-0.0049,1.0684,3.4790,-8.6060,-0.7324,1,482,853,0
23748922,1605,-0.0488,-0.0288,1.0420,3.0518,-8.7280,-0.5493,1,498,814,0
23753928,1606,-0.0483,-0.0444,1.0342,2.8076,-7.9346,-0.7324,1,508,879,0
23758927,1607,-0.0415,-0.0459,1.0352,2.8076,-7.1411,-0.7935,1,488,863,0
23763929,1608,-0.0410,-0.0396,1.0356,2.8687,-6.8970,-0.8545,1,489,840,0
23768922,1609,-0.0425,-0.0396,1.0347,2.7466,-6.5918,-1.1597,1,470,830,0
23773922,1610,-0.0454,-0.0474,1.0278,3.0518,-6.3477,-1.3428,1,506,826,0
23778931,1611,-0.0483,-0.0488,1.0215,3.9062,-6.7749,-1.7700,1,477,858,0
23783925,1612,-0.0493,-0.0410,1.0210,4.1504,-6.8970,-2.2583,1,483,865,0
23788930,1613,-0.0522,-0.0361,1.0220,3.9673,-6.8359,-2.4414,1,466,879,0
23793927,1614,-0.0479,-0.0371,1.0254,4.0283,-7.9346,-2.5635,1,466,887,0
23798928,1615,-0.0308,-0.0396,1.0337,4.3945,-7.4463,-2.6855,1,466,880,0
23803927,1616,-0.0176,-0.0342,1.0405,4.2725,-6.1035,-2.5024,1,466,881,0
23808928,1617,-0.0186,-0.0225,1.0391,3.5400,-5.1880,-2.2583,1,466,878,0
23813926,1618,-0.0225,-0.0195,1.0376,2.7466,-5.3101,-1.8921,1,466,877,0
23818922,1619,-0.0171,-0.0278,1.0420,2.4414,-4.6387,-1.7090,1,466,873,0
23823936,1620,-0.0083,-0.0356,1.0464,2.4414,-3.4790,-1.2817,1,466,877,0
23828930,1621,-0.0039,-0.0308,1.0469,2.3804,-2.0752,-0.6714,1,466,884,0
23833927,1622,-0.0098,-0.0259,1.0420,2.0142,-0.6714,-0.6104,1,466,895,0
23838930,1623,-0.0239,-0.0322,1.0327,1.7090,0.1221,-0.2441,1,466,862,0
23843922,1624,-0.0312,-0.0366,1.0269,2.2583,-0.2441,-0.3662,1,501,875,0
23848928,1625,-0.0337,-0.0356,1.0239,2.6855,0.4883,-0.9155,1,479,832,0
23853925,1626,-0.0454,-0.0391,1.0137,3.0518,0.5493,-1.2817,1,505,841,0
23858926,1627,-0.0591,-0.0405,1.0034,3.7842,-0.7935,-1.4648,1,494,872,0
23863925,1628,-0.0625,-0.0410,1.0005,4.2114,-1.8921,-1.9531,1,495,855,0
23868928,1629,-0.0522,-0.0449,1.0068,4.8218,-2.3804,-2.4414,1,505,842,0
23873929,1630,-0.0391,-0.0449,1.0137,5.9814,-2.3193,-2.6245,1,491,806,0
23878928,1631,-0.0361,-0.0479,1.0112,6.8359,-1.8921,-2.8076,1,492,836,0
23883927,1632,-0.0532,-0.0469,1.0005,7.9346,-1.7090,-3.1738,1,466,863,0
23888927,1633,-0.0757,-0.0347,0.9937,8.6060,-4.0894,-3.4790,1,484,853,0
23893924,1634,-0.0732,-0.0200,1.0029,8.4839,-6.8970,-3.6011,1,465,875,0
23898927,1635,-0.0498,-0.0117,1.0229,8.3618,-7.7515,-3.7842,1,466,876,0
23903923,1636,-0.0322,-0.0083,1.0371,8.1787,-7.8125,-3.9673,1,466,884,0
23908925,1637,-0.0288,0.0024,1.0430,8.1177,-8.3618,-4.4556,1,466,884,0
23913925,1638,-0.0356,0.0117,1.0435,7.2632,-9.0332,-5.1270,1,466,882,0
23918922,1639,-0.0327,0.0059,1.0483,5.9814,-10.4980,-4.9438,1,466,880,0
23923930,1640,-0.0137,-0.0034,1.0615,4.9438,-10.1929,-3.9673,1,466,898,0
23928933,1641,0.0049,-0.0015,1.0659,3.5400,-9.2773,-2.6855,1,466,895,0
23933927,1642,0.0015,-0.0054,1.0469,2.3804,-7.7515,-2.3804,1,466,875,0
23938944,1643,-0.0332,-0.0220,1.0142,2.3804,-7.4463,-2.5635,1,493,862,0
23943922,1644,-0.0659,-0.0347,0.9907,2.6245,-9.5825,-2.3804,1,466,877,0
23948925,1645,-0.0640,-0.0430,0.9897,3.1128,-11.6577,-1.7700,1,466,814,0
23953926,1646,-0.0371,-0.0562,0.9995,3.6621,-12.1460,-1.5869,1,499,829,0
23958923,1647,-0.0415,-0.0635,0.9902,5.4321,-10.9253,-2.0752,1,488,874,0
23963929,1648,-0.0957,-0.0493,0.9648,6.5918,-13.5498,-2.9907,1,493,906,0
23968923,1649,-0.1289,-0.0293,0.9590,6.6528,-18.9819,-4.0283,1,498,865,0
23973929,1650,-0.0977,-0.0225,0.9839,6.7749,-22.2168,-5.3101,1,493,859,0
23978930,1651,-0.0405,-0.0249,1.0186,7.1411,-22.3389,-6.4087,1,489,859,0
23983924,1652,-0.0049,-0.0249,1.0396,6.8359,-21.5454,-6.6528,1,465,849,0
23988922,1653,0.0024,-0.0171,1.0410,6.4087,-20.6299,-6.4087,1,484,880,0
23993930,1654,-0.0044,-0.0122,1.0342,5.3101,-19.9585,-6.1646,1,466,885,0
23998930,1655,-0.0054,-0.0054,1.0356,4.5776,-19.2871,-5.6763,1,466,880,0
24003924,1656,0.0117,0.0049,1.0483,2.7466,-18.3716,-5.0049,1,466,888,0
24008922,1657,0.0371,0.0015,1.0581,0.9766,-15.3809,-4.6387,1,466,880,0
24013928,1658,0.0391,-0.0132,1.0488,0.1831,-12.2070,-4.1504,1,466,888,0
24018924,1659,0.0068,-0.0229,1.0259,0.2441,-10.6812,-3.6621,1,466,891,0
24023930,1660,-0.0317,-0.0205,1.0073,0.1221,-11.7187,-3.7231,1,466,896,0
24028922,1661,-0.0547,-0.0181,0.9980,0.0610,-12.5122,-4.6387,1,466,898,0
24033949,1662,-0.0615,-0.0142,1.0020,0.2441,-14.5874,-5.6152,1,466,891,0
24038922,1663,-0.0444,-0.0068,1.0186,-0.1831,-16.2964,-6.4697,1,465,901,0
24043924,1664,-0.0249,-0.0044,1.0283,-0.7324,-16.0522,-7.2632,1,466,891,0
24048925,1665,-0.0176,-0.0093,1.0293,-1.0986,-16.7847,-7.7515,1,476,887,0
24053926,1666,-0.0122,-0.0098,1.0327,-1.0986,-17.3950,-7.9956,1,464,817,0
24058926,1667,-0.0073,-0.0083,1.0386,-1.4038,-17.7002,-7.9346,1,506,806,0
24063931,1668,0.0098,-0.0088,1.0513,-2.0752,-17.9443,-7.4463,1,491,851,0
24068922,1669,0.0239,-0.0137,1.0586,-2.4414,-16.7236,-6.8359,1,487,841,0
24073929,1670,0.0117,-0.0146,1.0483,-2.8076,-16.1743,-5.9204,1,507,856,0
24078926,1671,-0.0088,-0.0088,1.0347,-3.3569,-17.4561,-5.0049,1,484,857,0
24083928,1672,-0.0151,-0.0103,1.0293,-3.7842,-18.6157,-4.3945,1,492,829,0
24088928,1673,-0.0103,-0.0186,1.0317,-3.9062,-19.5923,-3.7842,1,466,846,0
24093924,1674,-0.0010,-0.0249,1.0356,-3.8452,-20.5688,-2.9907,1,484,869,0
24098928,1675,0.0132,-0.0278,1.0396,-3.4790,-21.9116,-2.5024,1,466,895,0
24103928,1676,0.0220,-0.0278,1.0415,-2.9907,-22.0337,-2.8076,1,465,901,0
24108926,1677,0.0176,-0.0249,1.0391,-2.7466,-22.6440,-2.8687,1,466,898,0
24113922,1678,0.0112,-0.0244,1.0347,-2.1362,-23.6206,-3.0518,1,466,895,0
24118928,1679,0.0063,-0.0259,1.0298,-2.0752,-24.9634,-3.2349,1,465,899,0
24123924,1680,-0.0063,-0.0244,1.0283,-2.0752,-26.4282,-3.2959,1,466,892,0
24128922,1681,-0.0278,-0.0234,1.0278,-2.0142,-29.2358,-3.3569,1,465,899,0
24133925,1682,-0.0410,-0.0244,1.0288,-1.9531,-32.8979,-3.2959,1,466,904,0
24138944,1683,-0.0430,-0.0234,1.0327,-2.2583,-37.7197,-3.1738,1,466,898,0
24143931,1684,-0.0449,-0.0161,1.0337,-2.8076,-42.7246,-3.6621,1,466,898,0
24148934,1685,-0.0479,-0.0024,1.0371,-3.6621,-47.9126,-4.3335,1,492,906,0
24153928,1686,-0.0483,0.0093,1.0430,-5.4932,-54.9927,-5.4932,1,469,897,0
24158929,1687,-0.0405,0.0171,1.0444,-7.7515,-62.0117,-6.2256,1,511,892,0
24163925,1688,-0.0283,0.0156,1.0425,-9.5825,-68.6035,-7.6904,1,485,809,0
24168928,1689,-0.0327,0.0142,1.0376,-10.8643,-75.9277,-9.7046,1,491,830,0
24173923,1690,-0.0635,0.0244,1.0356,-13.6719,-84.7778,-12.5122,1,494,876,0
24178922,1691,-0.1387,0.0259,1.0347,-16.9067,-96.4966,-15.7471,1,506,908,0
24183931,1692,-0.2681,0.0205,1.0259,-20.1416,-110.1684,-19.4702,1,475,884,0
24188927,1693,-0.4038,0.0264,1.0190,-23.4985,-130.3711,-22.4609,1,496,894,0
24193923,1694,-0.5376,0.0566,1.0142,-27.0386,-152.4658,-26.1230,1,494,853,0
