t_us, seq, ax, ay, az, gx, gy, gz, valid, t_imu_us, t_serial_us, missed
963428926,189066,-0.0308,-0.0317,1.0234,0.2441,-0.1221,-0.3052,1,511,846,475
963433930,189067,-0.0308,-0.0308,1.0229,0.3052,-0.2441,-0.3052,1,487,873,475
963438926,189068,-0.0317,-0.0303,1.0244,0.1221,-0.1831,-0.3052,1,490,830,475
963443922,189069,-0.0322,-0.0303,1.0244,0.1831,-0.1221,-0.2441,1,497,843,475
963448930,189070,-0.0342,-0.0322,1.0200,0.0610,-0.1831,-0.3662,1,486,849,475
963453928,189071,-0.0352,-0.0337,1.0195,0.1221,-0.2441,-0.4272,1,482,832,475
963458923,189072,-0.0342,-0.0347,1.0200,0.1221,-0.4883,-0.4272,1,489,831,475
963463930,189073,-0.0337,-0.0342,1.0210,0.0610,-0.4272,-0.3052,1,511,825,475
963468926,189074,-0.0322,-0.0332,1.0234,0.1221,-0.4272,-0.3052,1,466,852,475
963473930,189075,-0.0303,-0.0322,1.0254,0.1221,-0.3662,-0.4883,1,466,878,475
963478923,189076,-0.0303,-0.0322,1.0249,0.0000,-0.4272,-0.4272,1,466,874,475
963483925,189077,-0.0308,-0.0317,1.0244,0.0610,-0.3662,-0.3662,1,466,836,475
963488930,189078,-0.0308,-0.0312,1.0249,0.1221,-0.3662,-0.3052,1,465,880,475
963493927,189079,-0.0303,-0.0308,1.0249,0.0000,-0.2441,-0.3052,1,466,899,475
963498927,189080,-0.0303,-0.0308,1.0234,-0.1221,-0.1831,-0.4883,1,466,827,475
963503926,189081,-0.0317,-0.0317,1.0215,-0.0610,-0.1831,-0.4883,1,466,874,475
963508923,189082,-0.0327,-0.0337,1.0215,0.0000,-0.3052,-0.3662,1,466,880,475
963513945,189083,-0.0327,-0.0342,1.0225,0.0000,-0.2441,-0.3662,1,466,830,475
963518927,189084,-0.0312,-0.0322,1.0239,0.1221,-0.2441,-0.3662,1,466,836,475
963523923,189085,-0.0298,-0.0312,1.0239,0.0610,-0.2441,-0.3052,1,492,908,475
963528930,189086,-0.0298,-0.0317,1.0229,0.0000,-0.1221,-0.3662,1,485,901,475
963533925,189087,-0.0312,-0.0327,1.0220,-0.0610,-0.1221,-0.3662,1,512,756,475
963538930,189088,-0.0332,-0.0337,1.0225,0.0000,0.0000,-0.4272,1,479,797,475
963543924,189089,-0.0337,-0.0332,1.0234,0.0000,0.0610,-0.4883,1,482,784,475
963548923,189090,-0.0312,-0.0312,1.0239,0.0610,0.1221,-0.3662,1,508,793,475
963553926,189091,-0.0298,-0.0303,1.0254,-0.0610,0.1831,-0.3052,1,474,918,475
963558930,189092,-0.0298,-0.0322,1.0259,0.0610,0.1831,-0.3052,1,481,823,475
963563931,189093,-0.0303,-0.0332,1.0249,0.0610,0.2441,-0.3052,1,503,827,475
963568929,189094,-0.0312,-0.0332,1.0225,-0.0610,0.1831,-0.3052,1,505,828,475
963573929,189095,-0.0322,-0.0332,1.0215,-0.0610,0.1221,-0.3662,1,484,881,475
963578926,189096,-0.0317,-0.0322,1.0215,-0.0610,0.1831,-0.4883,1,466,878,475
963583928,189097,-0.0303,-0.0308,1.0234,0.0610,0.1831,-0.2441,1,466,879,475
963588924,189098,-0.0298,-0.0317,1.0244,-0.1221,0.2441,-0.3662,1,466,875,475
963593922,189099,-0.0308,-0.0322,1.0229,-0.1221,0.3662,-0.3052,1,466,882,475
963598927,189100,-0.0317,-0.0317,1.0220,-0.0610,0.3052,-0.3662,1,465,876,475
963603929,189101,-0.0317,-0.0308,1.0215,0.0000,0.2441,-0.3052,1,466,876,475
963608929,189102,-0.0312,-0.0317,1.0220,-0.0610,0.3052,-0.1831,1,466,827,475
963613925,189103,-0.0312,-0.0332,1.0225,-0.0610,0.4272,-0.1831,1,466,902,475
963618922,189104,-0.0303,-0.0342,1.0234,-0.1221,0.3662,-0.3662,1,466,906,475
963623944,189105,-0.0303,-0.0337,1.0234,-0.1221,0.3662,-0.4272,1,466,877,475
963628930,189106,-0.0312,-0.0337,1.0225,-0.1221,0.3662,-0.3662,1,466,877,475
963633922,189107,-0.0312,-0.0327,1.0225,-0.0610,0.3662,-0.2441,1,493,902,475
963638926,189108,-0.0308,-0.0317,1.0234,0.0610,0.4272,-0.3052,1,491,906,475
963643925,189109,-0.0317,-0.0327,1.0225,0.0610,0.3052,-0.2441,1,512,862,475
963648924,189110,-0.0327,-0.0337,1.0215,0.0000,0.4272,-0.3052,1,477,875,475
963653924,189111,-0.0322,-0.0332,1.0210,0.0610,0.3052,-0.2441,1,501,790,475
963658925,189112,-0.0312,-0.0332,1.0215,0.1831,0.3052,-0.2441,1,486,844,475
963663930,189113,-0.0308,-0.0327,1.0215,-0.0610,0.4272,-0.2441,1,489,873,475
963668927,189114,-0.0312,-0.0317,1.0229,-0.1221,0.4883,-0.1831,1,489,847,475
963673928,189115,-0.0312,-0.0308,1.0234,0.0000,0.4883,-0.2441,1,494,858,475
963678928,189116,-0.0298,-0.0308,1.0239,-0.1221,0.4883,-0.3052,1,492,810,475
963683930,189117,-0.0293,-0.0322,1.0234,-0.1221,0.5493,-0.2441,1,511,821,475
963688926,189118,-0.0308,-0.0332,1.0229,-0.1831,0.6714,-0.1221,1,466,880,475
963693929,189119,-0.0322,-0.0322,1.0220,-0.1831,0.6104,-0.1831,1,466,878,475
963698927,189120,-0.0327,-0.0322,1.0215,-0.2441,0.6104,-0.2441,1,466,882,475
963703926,189121,-0.0322,-0.0322,1.0229,-0.1221,0.6104,-0.1221,1,466,883,475
963708926,189122,-0.0317,-0.0312,1.0234,-0.3052,0.8545,-0.1221,1,466,874,475
963713927,189123,-0.0308,-0.0312,1.0234,-0.3662,0.9766,-0.2441,1,466,900,475
963718929,189124,-0.0303,-0.0317,1.0229,-0.3052,0.9766,-0.2441,1,466,904,475
963723926,189125,-0.0312,-0.0322,1.0239,-0.5493,1.0986,-0.1221,1,466,876,475
963728923,189126,-0.0317,-0.0322,1.0234,-0.4883,1.2817,-0.0610,1,466,908,475
963733933,189127,-0.0322,-0.0322,1.0229,-0.4883,1.3428,-0.0610,1,466,885,475
963738941,189128,-0.0322,-0.0312,1.0229,-0.6104,1.2207,-0.0610,1,466,881,475
963743924,189129,-0.0327,-0.0308,1.0234,-0.5493,1.1597,-0.0610,1,492,903,475
963748926,189130,-0.0337,-0.0317,1.0229,-0.5493,1.2207,-0.1221,1,511,879,475
963753924,189131,-0.0342,-0.0342,1.0220,-0.6104,1.4038,-0.1221,1,495,869,475
963758928,189132,-0.0337,-0.0352,1.0205,-0.4883,1.3428,-0.1221,1,511,789,475
963763926,189133,-0.0337,-0.0347,1.0195,-0.3052,1.2817,-0.1831,1,481,884,475
963768925,189134,-0.0352,-0.0347,1.0176,-0.3662,1.2207,-0.1831,1,487,840,475
963773922,189135,-0.0361,-0.0366,1.0171,-0.3662,1.0986,-0.1831,1,496,848,475
963778924,189136,-0.0352,-0.0366,1.0181,-0.1221,0.9155,-0.1221,1,506,853,475
963783930,189137,-0.0337,-0.0356,1.0215,0.0000,0.7935,-0.2441,1,504,824,475
963788926,189138,-0.0327,-0.0347,1.0249,0.0000,0.8545,-0.2441,1,497,787,475
963793925,189139,-0.0327,-0.0347,1.0259,-0.1221,0.9155,-0.1831,1,511,788,475
963798923,189140,-0.0332,-0.0347,1.0254,0.0610,0.8545,-0.2441,1,466,859,475
963803925,189141,-0.0342,-0.0342,1.0239,0.1221,0.8545,-0.3052,1,466,877,475
963808931,189142,-0.0337,-0.0347,1.0234,0.0610,0.9155,-0.3052,1,466,871,475
963813930,189143,-0.0327,-0.0342,1.0229,0.1831,0.7935,-0.3052,1,466,874,475
963818927,189144,-0.0327,-0.0337,1.0220,0.0610,0.7935,-0.3662,1,466,880,475
963823930,189145,-0.0332,-0.0332,1.0210,0.0000,0.7324,-0.3662,1,466,878,475
963828923,189146,-0.0337,-0.0322,1.0205,0.0000,0.7324,-0.4272,1,465,837,475
963833924,189147,-0.0337,-0.0308,1.0215,0.0610,0.7935,-0.3052,1,466,836,475
963838927,189148,-0.0342,-0.0317,1.0220,0.0000,0.6714,-0.1831,1,465,868,475
963843924,189149,-0.0342,-0.0337,1.0215,-0.0610,0.7324,-0.3662,1,466,832,475
963848946,189150,-0.0337,-0.0337,1.0210,0.0610,0.7324,-0.2441,1,465,878,475
963853922,189151,-0.0342,-0.0322,1.0220,0.1831,0.6714,-0.1831,1,466,876,475
963858929,189152,-0.0352,-0.0322,1.0225,0.1221,0.5493,-0.2441,1,510,879,475
963863927,189153,-0.0347,-0.0337,1.0215,0.1221,0.4883,-0.3662,1,476,867,475
963868925,189154,-0.0347,-0.0327,1.0205,0.2441,0.6104,-0.3662,1,512,753,475
963873930,189155,-0.0347,-0.0322,1.0205,0.3052,0.4883,-0.2441,1,474,887,475
963878926,189156,-0.0342,-0.0332,1.0220,0.3052,0.4272,-0.2441,1,497,836,475
963883925,189157,-0.0352,-0.0322,1.0220,0.3052,0.4272,-0.3052,1,507,839,475
963888929,189158,-0.0356,-0.0317,1.0200,0.3052,0.2441,-0.2441,1,510,833,475
963893927,189159,-0.0347,-0.0322,1.0195,0.3052,0.2441,-0.1831,1,488,832,475
963898924,189160,-0.0327,-0.0322,1.0205,0.2441,0.1831,-0.3662,1,495,834,475
963903929,189161,-0.0312,-0.0322,1.0229,0.2441,0.1831,-0.3662,1,506,839,475
963908930,189162,-0.0312,-0.0308,1.0249,0.1831,0.3662,-0.3662,1,484,893,475
963913925,189163,-0.0317,-0.0293,1.0249,0.1221,0.3052,-0.3052,1,465,907,475
963918924,189164,-0.0327,-0.0298,1.0234,0.0000,0.2441,-0.4272,1,466,871,475
963923925,189165,-0.0332,-0.0317,1.0215,-0.0610,0.1221,-0.3662,1,465,838,475
963928928,189166,-0.0332,-0.0332,1.0210,-0.0610,0.1831,-0.3662,1,466,878,475
963933925,189167,-0.0332,-0.0337,1.0210,0.0000,0.1831,-0.2441,1,466,881,475
963938922,189168,-0.0337,-0.0337,1.0215,0.0000,0.1831,-0.1831,1,466,834,475
963943930,189169,-0.0337,-0.0332,1.0215,-0.0610,0.1831,-0.1221,1,466,833,475
963948930,189170,-0.0337,-0.0322,1.0225,-0.0610,0.0000,-0.1221,1,466,875,475
963953930,189171,-0.0342,-0.0322,1.0234,-0.1221,0.0610,-0.1221,1,466,828,475
963958949,189172,-0.0342,-0.0322,1.0220,0.0000,0.1221,-0.2441,1,465,875,475
963963929,189173,-0.0347,-0.0312,1.0195,0.0000,0.1221,-0.1831,1,466,832,475
963968930,189174,-0.0361,-0.0312,1.0166,-0.0610,-0.0610,-0.1831,1,510,857,475
963973924,189175,-0.0361,-0.0332,1.0161,0.0000,-0.1221,-0.2441,1,480,905,475
963978922,189176,-0.0356,-0.0332,1.0181,0.0000,-0.2441,-0.1831,1,512,725,475
963983922,189177,-0.0337,-0.0312,1.0215,-0.1221,-0.1831,-0.2441,1,476,797,475
963988923,189178,-0.0317,-0.0312,1.0239,-0.1221,-0.2441,-0.1831,1,498,846,475
963993922,189179,-0.0317,-0.0322,1.0234,0.0610,-0.0610,-0.1831,1,494,869,475
963998922,189180,-0.0327,-0.0332,1.0220,0.1221,-0.1221,-0.2441,1,476,878,475
964003923,189181,-0.0322,-0.0327,1.0215,0.1221,-0.0610,-0.2441,1,483,847,475
964008926,189182,-0.0322,-0.0312,1.0225,-0.0610,0.0000,-0.1831,1,484,831,475
964013929,189183,-0.0322,-0.0312,1.0229,-0.1221,0.0000,-0.2441,1,487,811,475
964018927,189184,-0.0312,-0.0327,1.0239,-0.1221,0.0000,-0.1831,1,511,813,475
964023930,189185,-0.0312,-0.0342,1.0254,0.0000,0.0610,-0.2441,1,466,859,475
964028927,189186,-0.0327,-0.0342,1.0244,-0.0610,0.2441,-0.3052,1,466,854,475
964033923,189187,-0.0337,-0.0337,1.0225,-0.0610,0.3052,-0.1831,1,466,878,475
964038925,189188,-0.0347,-0.0332,1.0205,-0.0610,0.3052,-0.1221,1,465,874,475
964043925,189189,-0.0352,-0.0322,1.0190,-0.0610,0.2441,-0.2441,1,466,871,475
964048924,189190,-0.0347,-0.0332,1.0200,-0.1221,0.2441,-0.2441,1,466,881,475
964053926,189191,-0.0342,-0.0347,1.0210,0.0610,0.2441,-0.2441,1,466,880,475
964058926,189192,-0.0352,-0.0347,1.0200,0.0610,0.2441,-0.2441,1,466,876,475
964063927,189193,-0.0356,-0.0342,1.0181,0.0610,0.0610,-0.3052,1,466,876,475
964068923,189194,-0.0352,-0.0347,1.0190,0.1221,0.1221,-0.1221,1,466,869,475
964073936,189195,-0.0352,-0.0352,1.0220,0.1831,0.0000,-0.1831,1,465,868,475
964078922,189196,-0.0342,-0.0347,1.0220,0.1221,-0.0610,-0.2441,1,466,831,475
964083929,189197,-0.0327,-0.0337,1.0220,0.1221,0.3052,-0.3052,1,510,873,475
964088924,189198,-0.0327,-0.0337,1.0220,0.0610,0.2441,-0.3662,1,485,811,475
964093923,189199,-0.0337,-0.0342,1.0210,0.1221,0.0610,-0.3052,1,512,792,475
964098928,189200,-0.0342,-0.0347,1.0215,0.1831,0.1831,-0.3052,1,495,877,475
964103923,189201,-0.0337,-0.0342,1.0225,0.3052,0.0610,-0.3052,1,498,835,475
964108923,189202,-0.0337,-0.0332,1.0229,0.3052,0.0000,-0.3662,1,486,849,475
964113922,189203,-0.0337,-0.0322,1.0225,0.3052,0.0000,-0.3662,1,495,786,475
964118929,189204,-0.0337,-0.0322,1.0229,0.1221,0.0610,-0.3662,1,498,783,475
964123922,189205,-0.0332,-0.0322,1.0234,0.1221,0.1831,-0.3662,1,490,831,475
964128926,189206,-0.0327,-0.0322,1.0229,0.1831,0.1221,-0.3052,1,510,837,475
964133928,189207,-0.0322,-0.0327,1.0215,0.0610,0.1831,-0.3052,1,483,832,475
964138922,189208,-0.0322,-0.0327,1.0210,0.1221,0.1831,-0.1831,1,466,876,475
964143928,189209,-0.0322,-0.0317,1.0220,0.1221,0.1831,-0.1831,1,465,880,475
964148926,189210,-0.0332,-0.0327,1.0225,0.0000,0.2441,-0.1831,1,466,882,475
964153926,189211,-0.0332,-0.0337,1.0225,0.0610,0.3052,-0.2441,1,466,838,475
964158929,189212,-0.0342,-0.0337,1.0220,0.1221,0.2441,-0.2441,1,466,875,475
964163930,189213,-0.0347,-0.0342,1.0205,0.1831,0.1831,-0.2441,1,466,876,475
964168925,189214,-0.0352,-0.0337,1.0186,0.1831,0.1831,-0.1221,1,466,883,475
964173926,189215,-0.0352,-0.0337,1.0181,0.0610,0.0610,-0.1831,1,466,876,475
964178930,189216,-0.0347,-0.0332,1.0195,0.2441,-0.1221,-0.3052,1,466,871,475
964183926,189217,-0.0332,-0.0322,1.0215,0.3662,0.0000,-0.1831,1,465,877,475
964188965,189218,-0.0327,-0.0322,1.0220,0.2441,0.0000,-0.2441,1,466,836,475
964193925,189219,-0.0332,-0.0327,1.0229,0.2441,-0.1221,-0.2441,1,466,838,475
964198928,189220,-0.0327,-0.0322,1.0234,0.3052,0.0610,-0.3052,1,510,885,475
964203929,189221,-0.0317,-0.0322,1.0244,0.3052,0.0610,-0.1831,1,493,862,475
964208925,189222,-0.0312,-0.0337,1.0249,0.2441,0.1221,-0.2441,1,512,822,475
964213928,189223,-0.0317,-0.0332,1.0244,0.3052,-0.0610,-0.2441,1,494,803,475
964218922,189224,-0.0322,-0.0303,1.0234,0.2441,0.0610,-0.3052,1,493,840,475
964223928,189225,-0.0327,-0.0312,1.0234,0.1831,0.0610,-0.2441,1,497,843,475
964228923,189226,-0.0327,-0.0317,1.0249,0.1831,0.1221,-0.2441,1,493,878,475
964233923,189227,-0.0312,-0.0312,1.0254,0.1831,0.3052,-0.3052,1,496,837,475
964238929,189228,-0.0303,-0.0312,1.0254,0.0610,0.2441,-0.2441,1,475,875,475
964243929,189229,-0.0312,-0.0322,1.0254,0.1831,0.3662,-0.1831,1,505,854,475
964248926,189230,-0.0332,-0.0327,1.0244,0.1831,0.4883,-0.2441,1,511,862,475
964253927,189231,-0.0342,-0.0332,1.0225,0.1831,0.3662,-0.1831,1,465,885,475
964258925,189232,-0.0337,-0.0337,1.0210,0.1221,0.3662,-0.1831,1,466,883,475
964263925,189233,-0.0327,-0.0332,1.0215,0.2441,0.3052,-0.1221,1,466,875,475
964268929,189234,-0.0332,-0.0327,1.0229,0.4272,0.3052,-0.0610,1,466,878,475
964273924,189235,-0.0347,-0.0322,1.0215,0.1221,0.3662,-0.1221,1,466,879,475
964278927,189236,-0.0356,-0.0322,1.0200,0.1221,0.3052,-0.2441,1,466,873,475
964283927,189237,-0.0347,-0.0342,1.0190,0.2441,0.1221,-0.1831,1,466,875,475
964288928,189238,-0.0337,-0.0347,1.0200,0.3662,0.0610,-0.1831,1,466,876,475
964293929,189239,-0.0332,-0.0337,1.0210,0.4272,0.1221,-0.1831,1,466,876,475
964298931,189240,-0.0337,-0.0332,1.0210,0.3662,0.1221,-0.2441,1,466,876,475
964303963,189241,-0.0347,-0.0337,1.0210,0.4272,-0.1221,-0.1831,1,466,877,475
964308928,189242,-0.0337,-0.0342,1.0220,0.4883,-0.0610,-0.1221,1,466,875,475
964313923,189243,-0.0317,-0.0342,1.0225,0.4272,-0.0610,-0.2441,1,510,869,475
964318922,189244,-0.0317,-0.0337,1.0220,0.4272,-0.0610,-0.2441,1,488,868,475
964323926,189245,-0.0327,-0.0322,1.0229,0.4272,-0.1221,-0.2441,1,512,868,475
964328924,189246,-0.0332,-0.0312,1.0234,0.4272,-0.1831,-0.2441,1,488,826,475
964333923,189247,-0.0327,-0.0308,1.0234,0.4272,-0.1831,-0.2441,1,509,844,475
964338925,189248,-0.0317,-0.0312,1.0234,0.3662,-0.1221,-0.1221,1,492,845,475
964343923,189249,-0.0312,-0.0322,1.0225,0.4883,-0.1221,-0.1221,1,499,872,475
964348924,189250,-0.0317,-0.0327,1.0220,0.5493,-0.1831,-0.3052,1,493,867,475
964353928,189251,-0.0322,-0.0317,1.0215,0.4272,-0.0610,-0.1831,1,493,834,475
964358929,189252,-0.0327,-0.0317,1.0215,0.4883,0.0610,-0.1831,1,507,835,475
964363927,189253,-0.0327,-0.0327,1.0220,0.4883,0.0610,-0.3052,1,511,832,475
964368926,189254,-0.0322,-0.0332,1.0220,0.5493,0.0610,-0.1831,1,466,875,475
964373925,189255,-0.0327,-0.0327,1.0215,0.5493,0.0000,-0.1831,1,466,884,475
964378925,189256,-0.0332,-0.0317,1.0205,0.6104,-0.1221,-0.2441,1,466,838,475
964383927,189257,-0.0332,-0.0322,1.0210,0.5493,-0.1831,-0.3662,1,466,876,475
964388926,189258,-0.0322,-0.0337,1.0220,0.4883,0.0000,-0.3052,1,466,885,475
964393925,189259,-0.0312,-0.0327,1.0220,0.4883,0.0000,-0.1831,1,466,827,475
964398930,189260,-0.0308,-0.0303,1.0229,0.4883,0.0000,-0.3052,1,466,859,475
964403925,189261,-0.0298,-0.0293,1.0239,0.4272,-0.0610,-0.3052,1,466,823,475
964408923,189262,-0.0312,-0.0293,1.0244,0.3662,-0.0610,-0.3052,1,466,874,475
964413948,189263,-0.0317,-0.0308,1.0244,0.2441,-0.0610,-0.2441,1,466,900,475
964418928,189264,-0.0308,-0.0317,1.0259,0.2441,0.1221,-0.1831,1,466,881,475
964423928,189265,-0.0298,-0.0303,1.0269,0.1221,0.2441,-0.1831,1,510,875,475
964428928,189266,-0.0308,-0.0293,1.0254,0.1221,0.1831,-0.1831,1,474,862,475
964433929,189267,-0.0322,-0.0303,1.0239,-0.0610,0.2441,-0.1221,1,511,862,475
964438925,189268,-0.0322,-0.0317,1.0225,0.0610,0.3052,-0.0610,1,476,883,475
964443928,189269,-0.0327,-0.0322,1.0220,-0.0610,0.1221,-0.1221,1,486,833,475
964448925,189270,-0.0327,-0.0327,1.0225,-0.1221,0.1831,-0.1221,1,497,835,475
964453924,189271,-0.0322,-0.0337,1.0225,0.0000,0.3662,0.0000,1,504,866,475
964458924,189272,-0.0327,-0.0327,1.0220,-0.1831,0.3662,0.0000,1,504,741,475
964463924,189273,-0.0322,-0.0312,1.0210,-0.0610,0.2441,0.0000,1,504,791,475
964468930,189274,-0.0312,-0.0303,1.0215,-0.0610,0.1831,-0.1221,1,499,810,475
964473928,189275,-0.0308,-0.0303,1.0215,-0.0610,0.2441,-0.1221,1,510,849,475
964478928,189276,-0.0317,-0.0308,1.0225,0.0000,0.3662,-0.1221,1,466,866,475
964483929,189277,-0.0327,-0.0317,1.0225,0.0000,0.4272,-0.1831,1,466,827,475
964488926,189278,-0.0327,-0.0332,1.0229,0.0000,0.4272,-0.1831,1,466,836,475
964493929,189279,-0.0312,-0.0327,1.0229,-0.1221,0.3662,-0.1831,1,465,841,475
964498927,189280,-0.0312,-0.0322,1.0229,0.0610,0.3662,-0.1831,1,466,909,475
964503926,189281,-0.0312,-0.0327,1.0229,-0.0610,0.6104,-0.1831,1,466,909,475
964508927,189282,-0.0312,-0.0322,1.0225,-0.1221,0.4272,-0.0610,1,466,904,475
964513927,189283,-0.0317,-0.0312,1.0220,0.0000,0.4272,-0.1221,1,466,900,475
964518927,189284,-0.0322,-0.0317,1.0220,0.0000,0.5493,-0.1831,1,466,857,475
964523929,189285,-0.0327,-0.0317,1.0220,0.1831,0.4883,-0.0610,1,466,837,475
964528960,189286,-0.0332,-0.0312,1.0215,0.1221,0.5493,-0.1831,1,466,879,475
964533930,189287,-0.0332,-0.0312,1.0210,0.0000,0.4883,-0.1831,1,466,904,475
964538924,189288,-0.0337,-0.0322,1.0205,-0.0610,0.5493,-0.0610,1,510,857,475
964543928,189289,-0.0337,-0.0322,1.0210,-0.1221,0.4272,-0.1221,1,497,865,475
964548927,189290,-0.0327,-0.0312,1.0225,-0.1831,0.5493,-0.1831,1,512,747,475
964553929,189291,-0.0317,-0.0308,1.0225,-0.1221,0.5493,-0.2441,1,499,807,475
964558930,189292,-0.0322,-0.0303,1.0215,-0.1831,0.4883,-0.1221,1,502,838,475
964563922,189293,-0.0332,-0.0303,1.0220,-0.1831,0.4883,0.0000,1,504,843,475
964568924,189294,-0.0337,-0.0298,1.0234,-0.1831,0.5493,-0.0610,1,490,784,475
964573927,189295,-0.0342,-0.0308,1.0234,-0.3662,0.4883,-0.1221,1,494,832,475
964578923,189296,-0.0342,-0.0312,1.0215,-0.1221,0.5493,-0.2441,1,504,827,475
964583928,189297,-0.0342,-0.0322,1.0200,-0.0610,0.4883,-0.1221,1,510,855,475
964588930,189298,-0.0342,-0.0332,1.0195,-0.1221,0.4883,-0.0610,1,466,869,475
964593928,189299,-0.0342,-0.0327,1.0205,-0.1831,0.4272,-0.1831,1,465,874,475
964598927,189300,-0.0337,-0.0308,1.0220,-0.1221,0.2441,-0.1831,1,466,884,475
964603927,189301,-0.0332,-0.0298,1.0225,-0.1831,0.4272,-0.2441,1,466,876,475
964608927,189302,-0.0332,-0.0298,1.0225,-0.0610,0.4883,-0.1831,1,466,883,475
964613923,189303,-0.0337,-0.0303,1.0215,-0.0610,0.3662,0.0000,1,466,877,475
964618922,189304,-0.0342,-0.0317,1.0220,-0.1831,0.4272,-0.1221,1,466,828,475
964623924,189305,-0.0332,-0.0332,1.0234,-0.1831,0.4883,-0.2441,1,466,877,475
964628926,189306,-0.0322,-0.0317,1.0225,-0.2441,0.4272,-0.1831,1,466,886,475
964633929,189307,-0.0322,-0.0308,1.0210,-0.2441,0.5493,-0.1831,1,466,885,475
964638972,189308,-0.0322,-0.0322,1.0210,-0.1831,0.4272,-0.1831,1,465,881,475
964643930,189309,-0.0317,-0.0342,1.0220,-0.1221,0.4883,-0.1831,1,466,883,475
964648923,189310,-0.0317,-0.0347,1.0220,-0.1831,0.5493,-0.1831,1,510,874,475
964653928,189311,-0.0332,-0.0347,1.0210,-0.0610,0.4883,-0.1831,1,502,870,475
964658927,189312,-0.0342,-0.0342,1.0200,-0.0610,0.4272,-0.1831,1,511,764,475
964663926,189313,-0.0337,-0.0327,1.0200,-0.0610,0.4883,-0.1831,1,508,873,475
964668922,189314,-0.0332,-0.0332,1.0210,-0.0610,0.3052,-0.2441,1,507,837,475
964673925,189315,-0.0342,-0.0347,1.0220,0.0000,0.4883,-0.3052,1,494,859,475
964678930,189316,-0.0347,-0.0342,1.0215,-0.0610,0.3662,-0.2441,1,473,778,475
964683923,189317,-0.0342,-0.0312,1.0220,0.0000,0.2441,-0.2441,1,506,830,475
964688926,189318,-0.0332,-0.0293,1.0229,0.0000,0.3052,-0.2441,1,491,812,475
964693927,189319,-0.0327,-0.0293,1.0234,-0.1221,0.4883,-0.2441,1,510,786,475
964698928,189320,-0.0322,-0.0303,1.0229,-0.0610,0.4272,-0.2441,1,466,877,475
964703922,189321,-0.0337,-0.0327,1.0229,-0.1221,0.3052,-0.3052,1,465,879,475
964708927,189322,-0.0347,-0.0337,1.0220,-0.0610,0.1831,-0.2441,1,466,871,475
964713930,189323,-0.0342,-0.0332,1.0220,0.0610,0.2441,-0.2441,1,466,879,475
964718925,189324,-0.0337,-0.0327,1.0229,-0.0610,0.3662,-0.2441,1,466,880,475
964723923,189325,-0.0337,-0.0322,1.0229,0.0000,0.1831,-0.1221,1,466,883,475
964728928,189326,-0.0342,-0.0317,1.0225,-0.0610,0.2441,-0.1221,1,466,833,475
964733930,189327,-0.0342,-0.0322,1.0210,-0.0610,0.1831,-0.2441,1,466,875,475
964738925,189328,-0.0342,-0.0327,1.0195,0.0610,0.3662,-0.3052,1,465,880,475
964743926,189329,-0.0347,-0.0332,1.0200,0.0000,0.0610,-0.3662,1,466,877,475
964748958,189330,-0.0352,-0.0332,1.0215,0.1221,0.0000,-0.2441,1,466,830,475
964753927,189331,-0.0337,-0.0332,1.0215,0.1221,-0.0610,-0.3052,1,466,829,475
964758924,189332,-0.0317,-0.0332,1.0205,0.0610,0.0610,-0.3052,1,510,869,475
964763930,189333,-0.0303,-0.0317,1.0200,0.1221,0.0610,-0.3052,1,492,862,475
964768926,189334,-0.0312,-0.0317,1.0215,0.1221,0.1831,-0.3662,1,512,783,475
964773928,189335,-0.0332,-0.0322,1.0229,0.0610,0.1831,-0.4272,1,497,790,475
964778924,189336,-0.0332,-0.0327,1.0239,-0.0610,0.1221,-0.3662,1,500,844,475
964783922,189337,-0.0317,-0.0327,1.0249,0.0000,0.1831,-0.2441,1,496,850,475
964788925,189338,-0.0312,-0.0327,1.0254,0.0610,0.1831,-0.2441,1,502,792,475
964793930,189339,-0.0312,-0.0327,1.0244,0.0000,0.2441,-0.2441,1,506,830,475
964798927,189340,-0.0322,-0.0317,1.0244,-0.0610,0.1221,-0.2441,1,502,818,475
964803924,189341,-0.0342,-0.0317,1.0229,0.0610,0.3052,-0.1831,1,511,833,475
964808923,189342,-0.0356,-0.0332,1.0215,-0.0610,0.1831,-0.1831,1,466,874,475
964813928,189343,-0.0352,-0.0337,1.0205,-0.0610,0.1221,-0.2441,1,466,881,475
964818929,189344,-0.0332,-0.0332,1.0210,0.1221,0.1221,-0.3052,1,465,874,475
964823925,189345,-0.0327,-0.0322,1.0210,0.0610,0.1831,-0.2441,1,466,869,475
964828930,189346,-0.0327,-0.0308,1.0210,-0.0610,0.1221,-0.1831,1,466,881,475
964833927,189347,-0.0322,-0.0317,1.0210,0.0000,0.1221,-0.1831,1,466,872,475
964838930,189348,-0.0327,-0.0332,1.0205,0.0610,0.0610,-0.3052,1,466,832,475
964843927,189349,-0.0332,-0.0337,1.0200,0.1221,0.0000,-0.2441,1,466,874,475
964848928,189350,-0.0327,-0.0332,1.0205,0.1221,0.0000,-0.3052,1,466,829,475
964853944,189351,-0.0322,-0.0317,1.0215,0.0610,-0.0610,-0.1831,1,466,826,475
964858922,189352,-0.0327,-0.0312,1.0215,0.0610,-0.0610,-0.1831,1,466,879,475
964863930,189353,-0.0337,-0.0308,1.0210,0.1221,0.1221,-0.1831,1,510,902,475
964868922,189354,-0.0337,-0.0312,1.0215,0.0000,0.1831,-0.2441,1,482,810,475
964873930,189355,-0.0337,-0.0308,1.0215,0.0610,0.0610,-0.2441,1,511,748,475
964878928,189356,-0.0332,-0.0308,1.0200,0.0000,0.0000,-0.2441,1,498,867,475
964883925,189357,-0.0332,-0.0312,1.0200,0.1221,0.1831,-0.1831,1,496,781,475
964888924,189358,-0.0342,-0.0332,1.0205,0.2441,-0.1221,-0.2441,1,509,864,475
964893927,189359,-0.0342,-0.0347,1.0215,0.1221,-0.3052,-0.2441,1,497,849,475
964898930,189360,-0.0327,-0.0332,1.0229,0.1221,-0.1831,-0.1831,1,499,824,475
964903928,189361,-0.0317,-0.0303,1.0234,0.0000,-0.1221,-0.2441,1,494,837,475
964908928,189362,-0.0322,-0.0298,1.0229,0.0000,-0.1221,-0.2441,1,510,784,475
964913925,189363,-0.0327,-0.0317,1.0229,0.0000,-0.1221,-0.2441,1,465,832,475
964918923,189364,-0.0327,-0.0337,1.0234,-0.0610,0.0000,-0.1221,1,466,836,475
964923924,189365,-0.0327,-0.0337,1.0239,-0.2441,-0.0610,-0.2441,1,466,830,475
964928924,189366,-0.0322,-0.0322,1.0234,-0.1831,0.0000,-0.3052,1,466,884,475
964933922,189367,-0.0322,-0.0327,1.0225,-0.0610,0.0000,-0.1831,1,466,836,475
964938922,189368,-0.0322,-0.0337,1.0215,-0.0610,-0.0610,-0.1831,1,466,836,475
964943924,189369,-0.0332,-0.0342,1.0205,-0.0610,0.0000,-0.1831,1,466,878,475
964948928,189370,-0.0347,-0.0342,1.0195,-0.0610,0.0000,-0.1221,1,465,832,475
964953925,189371,-0.0352,-0.0337,1.0190,0.0610,-0.1831,-0.1831,1,466,827,475
964958946,189372,-0.0342,-0.0337,1.0186,0.1221,-0.1831,-0.3052,1,466,878,475
964963928,189373,-0.0337,-0.0342,1.0190,0.1221,-0.2441,-0.1831,1,466,870,475
964968927,189374,-0.0342,-0.0347,1.0200,0.1221,-0.2441,-0.2441,1,509,876,475
964973930,189375,-0.0337,-0.0347,1.0210,0.1831,-0.2441,-0.2441,1,478,864,475
964978927,189376,-0.0327,-0.0352,1.0210,0.2441,-0.3052,-0.1831,1,512,868,475
964983926,189377,-0.0322,-0.0347,1.0220,0.3052,-0.3662,-0.3662,1,469,884,475
964988929,189378,-0.0332,-0.0342,1.0220,0.3052,-0.3662,-0.4272,1,499,839,475
964993930,189379,-0.0327,-0.0342,1.0220,0.3662,-0.3052,-0.3052,1,502,838,475
964998926,189380,-0.0312,-0.0332,1.0225,0.3662,-0.3052,-0.2441,1,507,834,475
965003924,189381,-0.0308,-0.0327,1.0229,0.4272,-0.3052,-0.3662,1,494,874,475
965008925,189382,-0.0322,-0.0317,1.0225,0.3662,-0.1221,-0.3662,1,500,831,475
965013928,189383,-0.0317,-0.0322,1.0225,0.4883,-0.2441,-0.2441,1,510,834,475
965018927,189384,-0.0308,-0.0303,1.0225,0.4883,-0.2441,-0.2441,1,510,837,475
965023926,189385,-0.0308,-0.0288,1.0239,0.1831,0.0000,-0.3052,1,466,875,475
965028928,189386,-0.0308,-0.0298,1.0254,0.1831,0.0000,-0.3662,1,466,831,475
965033927,189387,-0.0308,-0.0312,1.0259,0.3052,0.0610,-0.1221,1,466,830,475
965038923,189388,-0.0308,-0.0317,1.0259,0.1221,0.0000,-0.1221,1,466,891,475
965043928,189389,-0.0303,-0.0312,1.0239,0.0610,0.0610,-0.1831,1,466,825,475
965048925,189390,-0.0303,-0.0312,1.0225,-0.0610,0.0000,-0.0610,1,466,901,475
965053926,189391,-0.0308,-0.0317,1.0225,-0.1831,0.1221,-0.1831,1,466,850,475
965058927,189392,-0.0317,-0.0322,1.0239,-0.2441,0.1831,-0.2441,1,466,876,475
965063930,189393,-0.0317,-0.0317,1.0254,-0.3052,0.2441,-0.0610,1,466,889,475
965068953,189394,-0.0317,-0.0317,1.0254,-0.3052,0.1221,-0.0610,1,465,877,475
965073929,189395,-0.0322,-0.0317,1.0239,-0.2441,0.2441,-0.1831,1,466,871,475
965078923,189396,-0.0327,-0.0317,1.0225,-0.1831,0.1831,-0.2441,1,510,889,475
965083929,189397,-0.0327,-0.0322,1.0215,-0.3662,0.2441,-0.2441,1,470,874,475
965088928,189398,-0.0337,-0.0322,1.0215,-0.3052,0.1831,-0.1831,1,511,874,475
965093922,189399,-0.0342,-0.0327,1.0215,-0.1221,0.0610,-0.2441,1,482,870,475
965098929,189400,-0.0342,-0.0322,1.0205,-0.1221,0.0000,-0.3052,1,498,836,475
965103930,189401,-0.0342,-0.0312,1.0195,-0.1221,0.1221,-0.3052,1,495,751,475
965108930,189402,-0.0347,-0.0317,1.0210,-0.1221,0.0610,-0.3052,1,498,856,475
965113925,189403,-0.0337,-0.0322,1.0229,-0.1221,-0.0610,-0.3662,1,501,821,475
965118927,189404,-0.0327,-0.0327,1.0225,-0.1831,0.0610,-0.3662,1,492,832,475
965123927,189405,-0.0317,-0.0327,1.0225,-0.1831,-0.1831,-0.3662,1,511,835,475
965128927,189406,-0.0312,-0.0332,1.0234,0.0610,-0.1831,-0.3662,1,466,840,475
965133931,189407,-0.0317,-0.0332,1.0239,-0.0610,-0.1221,-0.4272,1,466,907,475
965138926,189408,-0.0327,-0.0317,1.0229,-0.0610,-0.1831,-0.3662,1,466,880,475
965143927,189409,-0.0332,-0.0317,1.0225,-0.0610,-0.2441,-0.3662,1,466,886,475
965148930,189410,-0.0317,-0.0342,1.0225,-0.1831,-0.2441,-0.4272,1,466,883,475
965153922,189411,-0.0308,-0.0352,1.0229,-0.1221,-0.1831,-0.3662,1,466,883,475
965158926,189412,-0.0312,-0.0322,1.0239,0.0000,-0.2441,-0.3662,1,465,877,475
965163924,189413,-0.0303,-0.0312,1.0239,-0.0610,-0.1831,-0.3662,1,466,865,475
965168926,189414,-0.0298,-0.0327,1.0234,-0.1831,-0.1221,-0.3662,1,465,905,475
965173927,189415,-0.0298,-0.0342,1.0229,-0.1221,-0.2441,-0.4272,1,466,884,475
965178949,189416,-0.0322,-0.0352,1.0210,-0.1221,-0.2441,-0.4883,1,466,879,475
965183926,189417,-0.0347,-0.0352,1.0195,-0.0610,-0.2441,-0.3662,1,466,874,475
965188928,189418,-0.0347,-0.0342,1.0205,0.0610,-0.3662,-0.4272,1,466,878,475
965193922,189419,-0.0322,-0.0332,1.0210,0.0610,-0.4883,-0.4883,1,467,865,475
965198931,189420,-0.0293,-0.0332,1.0205,0.1221,-0.3662,-0.3662,1,512,863,475
965203928,189421,-0.0293,-0.0332,1.0210,0.1221,-0.3052,-0.4883,1,482,876,475
965208922,189422,-0.0308,-0.0327,1.0205,0.1221,-0.3052,-0.3662,1,492,830,475
965213928,189423,-0.0317,-0.0332,1.0195,0.2441,-0.4272,-0.3662,1,501,842,475
965218928,189424,-0.0322,-0.0332,1.0200,0.2441,-0.4883,-0.4272,1,502,870,475
965223924,189425,-0.0322,-0.0332,1.0215,0.2441,-0.4883,-0.4272,1,509,852,475
965228928,189426,-0.0317,-0.0342,1.0225,0.1221,-0.5493,-0.4272,1,500,836,475
965233927,189427,-0.0312,-0.0352,1.0225,0.2441,-0.6104,-0.4883,1,510,831,475
965238931,189428,-0.0303,-0.0342,1.0220,0.3052,-0.4272,-0.4883,1,466,898,475
965243923,189429,-0.0298,-0.0327,1.0220,0.2441,-0.3052,-0.6104,1,466,868,475
965248922,189430,-0.0303,-0.0332,1.0210,0.2441,-0.2441,-0.4883,1,466,873,475
965253924,189431,-0.0308,-0.0322,1.0195,0.3052,-0.3052,-0.3662,1,466,878,475
965258925,189432,-0.0322,-0.0317,1.0195,0.4272,-0.2441,-0.4272,1,466,874,475
965263928,189433,-0.0347,-0.0322,1.0186,0.5493,-0.3662,-0.4883,1,466,888,475
965268929,189434,-0.0347,-0.0332,1.0190,0.4883,-0.3662,-0.4272,1,466,881,475
965273923,189435,-0.0327,-0.0337,1.0210,0.5493,-0.4883,-0.4883,1,466,880,475
965278924,189436,-0.0312,-0.0332,1.0229,0.4883,-0.4272,-0.5493,1,466,876,475
965283930,189437,-0.0303,-0.0317,1.0249,0.6104,-0.4272,-0.4883,1,466,909,475
965288957,189438,-0.0308,-0.0303,1.0264,0.4883,-0.3052,-0.4272,1,466,875,475
965293926,189439,-0.0312,-0.0298,1.0249,0.4272,-0.2441,-0.4272,1,466,867,475
965298930,189440,-0.0308,-0.0298,1.0239,0.5493,-0.3052,-0.4272,1,510,907,475
965303923,189441,-0.0303,-0.0308,1.0239,0.4883,-0.2441,-0.4272,1,496,864,475
965308924,189442,-0.0303,-0.0322,1.0234,0.5493,-0.3052,-0.4272,1,471,874,475
965313930,189443,-0.0308,-0.0327,1.0239,0.6104,-0.1831,-0.3662,1,497,904,475
965318923,189444,-0.0308,-0.0322,1.0239,0.4883,-0.1831,-0.3662,1,496,840,475
965323925,189445,-0.0317,-0.0317,1.0229,0.4272,-0.2441,-0.4883,1,490,864,475
965328927,189446,-0.0322,-0.0317,1.0225,0.4883,-0.1221,-0.4883,1,497,854,475
965333930,189447,-0.0312,-0.0308,1.0225,0.4272,-0.1221,-0.4883,1,504,828,475
965338928,189448,-0.0303,-0.0293,1.0225,0.3662,-0.2441,-0.4883,1,505,850,475
965343925,189449,-0.0293,-0.0298,1.0239,0.4272,-0.2441,-0.4883,1,466,828,475
965348924,189450,-0.0288,-0.0312,1.0249,0.5493,-0.0610,-0.4883,1,466,882,475
965353927,189451,-0.0293,-0.0322,1.0239,0.6104,0.0000,-0.5493,1,466,907,475
965358922,189452,-0.0298,-0.0332,1.0229,0.4883,-0.1221,-0.4272,1,466,833,475
965363927,189453,-0.0308,-0.0312,1.0220,0.4883,-0.1831,-0.3052,1,466,878,475
965368929,189454,-0.0312,-0.0288,1.0215,0.4883,-0.0610,-0.4883,1,466,896,475
965373924,189455,-0.0303,-0.0298,1.0220,0.4883,-0.0610,-0.5493,1,466,900,475
965378922,189456,-0.0288,-0.0317,1.0229,0.5493,-0.1221,-0.5493,1,466,872,475
965383923,189457,-0.0288,-0.0327,1.0234,0.6104,-0.2441,-0.4272,1,466,883,475
965388924,189458,-0.0293,-0.0322,1.0229,0.5493,-0.1221,-0.4883,1,466,883,475
965393954,189459,-0.0303,-0.0312,1.0220,0.4883,0.0000,-0.5493,1,466,878,475
965398927,189460,-0.0298,-0.0308,1.0215,0.5493,-0.2441,-0.4883,1,466,853,475
965403927,189461,-0.0283,-0.0298,1.0234,0.5493,-0.1221,-0.4272,1,510,876,475
965408922,189462,-0.0283,-0.0278,1.0259,0.4272,-0.1221,-0.4883,1,493,869,475
965413929,189463,-0.0303,-0.0278,1.0249,0.3662,0.0000,-0.4883,1,465,828,475
965418928,189464,-0.0308,-0.0303,1.0225,0.3052,-0.1221,-0.4883,1,477,793,475
965423928,189465,-0.0303,-0.0303,1.0215,0.2441,-0.1221,-0.4272,1,506,824,475
965428928,189466,-0.0288,-0.0303,1.0225,0.2441,-0.2441,-0.4883,1,490,854,475
965433927,189467,-0.0278,-0.0298,1.0234,0.1831,0.0000,-0.5493,1,498,804,475
965438924,189468,-0.0278,-0.0303,1.0234,0.2441,-0.0610,-0.3052,1,508,790,475
965443929,189469,-0.0293,-0.0303,1.0229,0.3052,0.1221,-0.4883,1,490,829,475
965448930,189470,-0.0303,-0.0298,1.0220,0.1831,0.0610,-0.4883,1,510,821,475
965453924,189471,-0.0293,-0.0288,1.0215,0.1831,0.0610,-0.4272,1,511,825,475
965458926,189472,-0.0293,-0.0298,1.0225,0.2441,0.0000,-0.4272,1,466,878,475
965463930,189473,-0.0298,-0.0312,1.0225,0.1221,0.1831,-0.5493,1,466,833,475
965468928,189474,-0.0303,-0.0317,1.0210,0.0610,0.0610,-0.3662,1,466,901,475
965473925,189475,-0.0308,-0.0312,1.0205,0.2441,0.0610,-0.3052,1,466,873,475
965478929,189476,-0.0298,-0.0308,1.0215,0.1831,0.0000,-0.4272,1,466,896,475
965483922,189477,-0.0283,-0.0308,1.0239,0.0610,0.1221,-0.4883,1,466,831,475
965488928,189478,-0.0278,-0.0293,1.0244,0.0610,0.1831,-0.4272,1,466,873,475
965493930,189479,-0.0283,-0.0288,1.0234,0.1221,0.1221,-0.4272,1,466,881,475
965498924,189480,-0.0298,-0.0293,1.0225,0.0610,0.2441,-0.4272,1,466,879,475
965503951,189481,-0.0308,-0.0298,1.0215,0.1221,0.1221,-0.4272,1,466,875,475
965508922,189482,-0.0312,-0.0308,1.0215,0.1221,0.1221,-0.3662,1,466,867,475
965513924,189483,-0.0308,-0.0308,1.0225,0.1221,0.2441,-0.3662,1,510,895,475
965518926,189484,-0.0303,-0.0312,1.0229,0.0000,0.1831,-0.4883,1,491,859,475
965523925,189485,-0.0293,-0.0308,1.0234,0.1221,0.1831,-0.3052,1,511,727,475
965528925,189486,-0.0288,-0.0288,1.0239,-0.0610,0.2441,-0.2441,1,477,841,475
965533929,189487,-0.0293,-0.0288,1.0229,0.0000,0.3052,-0.3052,1,506,855,475
965538922,189488,-0.0303,-0.0308,1.0220,0.0610,0.2441,-0.1831,1,509,797,475
965543927,189489,-0.0312,-0.0322,1.0210,0.0000,0.2441,-0.1831,1,504,856,475
965548922,189490,-0.0308,-0.0312,1.0215,-0.1221,0.3052,-0.3052,1,504,813,475
965553925,189491,-0.0303,-0.0293,1.0225,0.0000,0.1831,-0.2441,1,489,843,475
965558924,189492,-0.0303,-0.0303,1.0215,-0.0610,0.2441,-0.2441,1,509,783,475
965563929,189493,-0.0312,-0.0322,1.0210,-0.1221,0.2441,-0.3662,1,466,826,475
965568930,189494,-0.0317,-0.0322,1.0210,0.0610,0.0000,-0.3052,1,466,902,475
965573928,189495,-0.0312,-0.0312,1.0210,0.0610,0.0610,-0.2441,1,466,828,475
965578927,189496,-0.0303,-0.0308,1.0225,0.1221,0.1831,-0.1831,1,466,924,475
965583923,189497,-0.0293,-0.0312,1.0229,0.1221,0.1831,-0.2441,1,466,871,475
965588924,189498,-0.0293,-0.0317,1.0225,0.0000,0.0610,-0.3052,1,465,905,475
965593923,189499,-0.0293,-0.0312,1.0229,0.0610,0.0610,-0.4272,1,466,825,475
965598926,189500,-0.0298,-0.0308,1.0234,0.1831,0.0610,-0.4272,1,466,901,475
965603927,189501,-0.0293,-0.0312,1.0229,0.1831,0.0610,-0.2441,1,466,877,475
965608923,189502,-0.0293,-0.0322,1.0220,0.0610,0.2441,-0.3662,1,466,906,475
965613923,189503,-0.0308,-0.0322,1.0200,0.1221,0.1221,-0.3052,1,466,880,475
965618922,189504,-0.0312,-0.0312,1.0200,0.1221,0.0610,-0.3662,1,466,865,475
965623924,189505,-0.0303,-0.0312,1.0215,0.0610,0.1221,-0.3662,1,510,924,475
965628926,189506,-0.0293,-0.0317,1.0234,0.1221,0.1831,-0.1831,1,494,884,475
965633924,189507,-0.0288,-0.0327,1.0249,0.1221,0.2441,-0.2441,1,510,790,475
965638925,189508,-0.0293,-0.0322,1.0244,0.0610,0.2441,-0.3052,1,492,854,475
965643928,189509,-0.0303,-0.0303,1.0234,0.0610,0.1831,-0.2441,1,499,838,475
965648925,189510,-0.0303,-0.0298,1.0229,0.0000,0.3052,-0.3052,1,506,836,475
965653927,189511,-0.0303,-0.0308,1.0229,0.0000,0.2441,-0.3662,1,508,776,475
965658929,189512,-0.0298,-0.0312,1.0229,0.0610,0.2441,-0.2441,1,492,784,475
965663929,189513,-0.0303,-0.0317,1.0225,0.0000,0.3052,-0.2441,1,492,859,475
965668922,189514,-0.0303,-0.0327,1.0215,0.0610,0.3052,-0.3052,1,510,781,475
965673931,189515,-0.0303,-0.0322,1.0215,0.0610,0.3052,-0.2441,1,466,866,475
965678930,189516,-0.0303,-0.0322,1.0229,0.0000,0.3662,-0.3662,1,466,872,475
965683929,189517,-0.0308,-0.0322,1.0229,0.1831,0.2441,-0.3052,1,466,836,475
965688923,189518,-0.0308,-0.0308,1.0220,0.1221,0.2441,-0.1831,1,466,879,475
965693931,189519,-0.0303,-0.0298,1.0210,0.1221,0.1831,-0.2441,1,466,871,475
965698927,189520,-0.0293,-0.0298,1.0210,0.1831,0.1221,-0.3662,1,466,872,475
965703925,189521,-0.0288,-0.0298,1.0215,0.2441,0.1221,-0.2441,1,466,874,475
965708928,189522,-0.0288,-0.0293,1.0210,0.1831,0.2441,-0.2441,1,466,879,475
965713925,189523,-0.0293,-0.0308,1.0210,0.1221,0.2441,-0.3662,1,466,883,475
965718923,189524,-0.0303,-0.0322,1.0220,0.1831,0.1221,-0.3662,1,466,873,475
965723960,189525,-0.0312,-0.0327,1.0220,0.2441,0.1221,-0.2441,1,466,875,475
965728923,189526,-0.0303,-0.0322,1.0225,0.2441,0.1221,-0.3052,1,466,905,475
965733927,189527,-0.0298,-0.0322,1.0234,0.3052,0.0610,-0.3662,1,510,871,475
965738928,189528,-0.0303,-0.0322,1.0244,0.1831,0.0610,-0.4272,1,496,865,475
965743929,189529,-0.0312,-0.0327,1.0234,0.1831,0.1221,-0.3662,1,466,875,475
965748927,189530,-0.0303,-0.0322,1.0220,0.1831,0.1221,-0.3052,1,494,856,475
965753926,189531,-0.0288,-0.0312,1.0225,0.2441,0.0000,-0.4272,1,476,840,475
965758928,189532,-0.0283,-0.0312,1.0229,0.1831,0.1221,-0.3052,1,504,843,475
965763925,189533,-0.0288,-0.0322,1.0229,0.1221,0.1221,-0.3662,1,488,893,475
965768929,189534,-0.0303,-0.0317,1.0220,0.1831,0.1221,-0.3662,1,504,833,475
965773930,189535,-0.0303,-0.0303,1.0215,0.3052,0.1221,-0.3052,1,502,829,475
965778922,189536,-0.0293,-0.0298,1.0215,0.3052,0.0610,-0.3662,1,511,814,475
965783928,189537,-0.0288,-0.0303,1.0215,0.1831,0.0000,-0.3052,1,466,870,475
965788926,189538,-0.0288,-0.0312,1.0220,0.1831,0.0610,-0.2441,1,466,827,475
965793930,189539,-0.0288,-0.0312,1.0234,0.2441,0.0610,-0.4272,1,466,905,475
965798924,189540,-0.0288,-0.0308,1.0244,0.2441,0.0610,-0.2441,1,466,907,475
965803922,189541,-0.0278,-0.0303,1.0249,0.1831,0.1831,-0.1831,1,466,880,475
965808923,189542,-0.0283,-0.0308,1.0229,0.1221,0.1831,-0.3662,1,466,883,475
965813929,189543,-0.0303,-0.0308,1.0225,0.1831,0.1831,-0.3662,1,466,879,475
965818930,189544,-0.0312,-0.0312,1.0229,0.1221,0.0610,-0.3052,1,466,877,475
965823929,189545,-0.0308,-0.0317,1.0239,0.1831,0.1831,-0.3662,1,466,922,475
965828933,189546,-0.0293,-0.0322,1.0225,0.3052,0.3052,-0.3662,1,466,882,475
965833928,189547,-0.0283,-0.0317,1.0210,0.1221,0.1831,-0.3052,1,466,871,475
965838925,189548,-0.0283,-0.0312,1.0220,0.1221,0.1831,-0.2441,1,466,873,475
965843923,189549,-0.0293,-0.0303,1.0229,0.1831,0.1831,-0.3052,1,476,901,475
965848922,189550,-0.0308,-0.0293,1.0220,0.1831,0.2441,-0.3662,1,512,863,475
965853930,189551,-0.0312,-0.0298,1.0205,0.2441,0.1831,-0.3052,1,472,819,475
965858931,189552,-0.0308,-0.0303,1.0200,0.1221,0.1221,-0.2441,1,490,843,475
965863926,189553,-0.0293,-0.0298,1.0205,0.1831,0.1221,-0.3052,1,497,836,475
965868923,189554,-0.0288,-0.0288,1.0210,0.2441,0.0610,-0.3052,1,509,840,475
965873925,189555,-0.0303,-0.0298,1.0220,0.2441,0.1831,-0.4272,1,498,828,475
965878929,189556,-0.0308,-0.0327,1.0215,0.2441,0.0000,-0.3662,1,502,831,475
965883922,189557,-0.0308,-0.0327,1.0200,0.1831,0.0610,-0.3052,1,510,786,475
965888923,189558,-0.0308,-0.0308,1.0195,0.1831,0.0000,-0.3052,1,510,823,475
965893927,189559,-0.0303,-0.0298,1.0200,0.2441,0.0610,-0.4272,1,465,824,475
965898922,189560,-0.0298,-0.0308,1.0210,0.3052,0.0000,-0.3662,1,466,874,475
965903922,189561,-0.0303,-0.0303,1.0210,0.2441,0.0000,-0.3662,1,466,825,475
965908925,189562,-0.0303,-0.0288,1.0205,0.3052,0.0000,-0.3052,1,466,826,475
965913926,189563,-0.0293,-0.0283,1.0210,0.3662,0.1221,-0.3052,1,466,824,475
965918923,189564,-0.0283,-0.0288,1.0215,0.2441,0.1221,-0.2441,1,466,871,475
965923928,189565,-0.0278,-0.0298,1.0220,0.2441,0.1221,-0.3052,1,466,882,475
965928923,189566,-0.0293,-0.0298,1.0220,0.1831,0.1831,-0.3662,1,466,874,475
965933924,189567,-0.0303,-0.0298,1.0220,0.1831,0.0610,-0.3662,1,466,880,475
965938947,189568,-0.0298,-0.0308,1.0225,0.1831,0.3052,-0.3662,1,465,874,475
965943924,189569,-0.0288,-0.0312,1.0234,0.1831,0.1831,-0.3662,1,465,872,475
965948923,189570,-0.0278,-0.0308,1.0239,0.3662,-0.0610,-0.1831,1,510,912,475
965953927,189571,-0.0278,-0.0303,1.0225,0.1831,-0.0610,-0.3052,1,493,878,475
965958927,189572,-0.0298,-0.0303,1.0225,0.1221,0.0610,-0.3052,1,509,861,475
965963922,189573,-0.0303,-0.0308,1.0229,0.2441,0.1221,-0.2441,1,474,835,475
965968926,189574,-0.0293,-0.0308,1.0229,0.2441,0.0000,-0.3662,1,507,835,475
965973930,189575,-0.0278,-0.0303,1.0229,0.3052,0.1221,-0.4272,1,490,824,475
965978929,189576,-0.0269,-0.0298,1.0229,0.1221,0.2441,-0.3662,1,496,864,475
965983930,189577,-0.0278,-0.0298,1.0234,0.1221,0.2441,-0.3662,1,503,830,475
965988927,189578,-0.0293,-0.0303,1.0229,0.1831,0.1831,-0.4883,1,482,834,475
965993928,189579,-0.0298,-0.0303,1.0234,0.1831,0.1221,-0.3662,1,506,830,475
965998929,189580,-0.0298,-0.0298,1.0239,0.0000,0.1831,-0.3052,1,511,829,475
966003923,189581,-0.0288,-0.0293,1.0234,0.0000,0.1831,-0.4272,1,466,828,475
966008922,189582,-0.0278,-0.0288,1.0234,0.0610,0.3052,-0.4883,1,466,837,475
966013928,189583,-0.0283,-0.0293,1.0234,0.1221,0.3052,-0.2441,1,466,877,475
966018923,189584,-0.0288,-0.0298,1.0229,0.1221,0.3052,-0.3052,1,466,877,475
966023929,189585,-0.0288,-0.0312,1.0229,0.0610,0.2441,-0.3662,1,466,871,475
966028924,189586,-0.0288,-0.0322,1.0210,0.1221,0.2441,-0.3052,1,466,909,475
966033930,189587,-0.0288,-0.0327,1.0190,0.2441,0.2441,-0.3662,1,466,875,475
966038922,189588,-0.0298,-0.0317,1.0190,0.3052,0.2441,-0.3662,1,466,887,475
966043922,189589,-0.0317,-0.0308,1.0195,0.3662,0.1221,-0.4272,1,466,879,475
966048965,189590,-0.0312,-0.0308,1.0210,0.4272,0.0000,-0.3662,1,466,879,475
966053922,189591,-0.0293,-0.0312,1.0225,0.4272,0.0000,-0.4272,1,466,855,475
966058928,189592,-0.0288,-0.0303,1.0244,0.3662,0.1221,-0.4272,1,510,857,475
966063930,189593,-0.0303,-0.0288,1.0239,0.3662,0.1221,-0.3052,1,478,866,475
966068925,189594,-0.0303,-0.0298,1.0225,0.3662,0.0000,-0.3052,1,512,861,475
966073922,189595,-0.0293,-0.0298,1.0225,0.3052,0.0000,-0.3052,1,490,786,475
966078926,189596,-0.0293,-0.0293,1.0234,0.3662,0.0610,-0.3662,1,495,784,475
966083925,189597,-0.0293,-0.0288,1.0229,0.2441,0.1831,-0.3662,1,499,849,475
966088922,189598,-0.0293,-0.0288,1.0225,0.3662,0.0610,-0.3662,1,486,855,475
966093931,189599,-0.0298,-0.0288,1.0239,0.3052,0.1221,-0.4883,1,492,832,475
966098929,189600,-0.0303,-0.0283,1.0239,0.4272,-0.0610,-0.4272,1,507,826,475
966103928,189601,-0.0283,-0.0273,1.0239,0.3662,-0.1221,-0.3662,1,511,833,475
966108930,189602,-0.0273,-0.0273,1.0239,0.3052,0.1831,-0.3662,1,465,881,475
966113925,189603,-0.0288,-0.0283,1.0225,0.3052,0.1221,-0.3662,1,466,880,475
966118923,189604,-0.0298,-0.0293,1.0220,0.3052,0.0610,-0.5493,1,466,876,475
966123925,189605,-0.0298,-0.0298,1.0215,0.3662,0.0610,-0.4272,1,466,873,475
966128926,189606,-0.0298,-0.0298,1.0215,0.4883,0.0000,-0.3662,1,466,876,475
966133930,189607,-0.0298,-0.0293,1.0215,0.4272,0.1831,-0.3662,1,466,830,475
966138922,189608,-0.0303,-0.0283,1.0220,0.3662,0.1221,-0.3052,1,466,879,475
966143925,189609,-0.0303,-0.0283,1.0215,0.3662,0.0610,-0.3662,1,466,872,475
966148929,189610,-0.0293,-0.0298,1.0215,0.3662,0.1221,-0.3052,1,466,877,475
966153926,189611,-0.0278,-0.0303,1.0225,0.3662,0.1831,-0.3662,1,466,872,475
966158938,189612,-0.0273,-0.0288,1.0229,0.3052,0.2441,-0.3052,1,466,880,475
966163928,189613,-0.0288,-0.0278,1.0229,0.2441,0.2441,-0.3052,1,465,877,475
966168930,189614,-0.0303,-0.0283,1.0229,0.1831,0.1831,-0.3662,1,510,883,475
966173923,189615,-0.0308,-0.0293,1.0234,0.4272,0.0610,-0.3052,1,494,871,475
966178927,189616,-0.0303,-0.0293,1.0225,0.3662,0.1831,-0.3052,1,467,842,475
966183930,189617,-0.0298,-0.0298,1.0225,0.1831,0.1831,-0.2441,1,493,805,475
966188924,189618,-0.0293,-0.0303,1.0234,0.2441,0.1831,-0.3052,1,501,841,475
966193929,189619,-0.0293,-0.0293,1.0249,0.3052,0.0610,-0.3052,1,486,859,475
966198925,189620,-0.0293,-0.0278,1.0244,0.1221,0.2441,-0.2441,1,486,822,475
966203928,189621,-0.0283,-0.0278,1.0234,0.0610,0.3052,-0.3662,1,494,835,475
966208927,189622,-0.0273,-0.0298,1.0234,0.1221,0.1831,-0.3662,1,494,831,475
966213923,189623,-0.0264,-0.0303,1.0234,0.1221,0.1221,-0.3052,1,511,833,475
966218928,189624,-0.0269,-0.0293,1.0229,0.1221,0.2441,-0.3052,1,466,865,475
966223926,189625,-0.0283,-0.0283,1.0229,0.1221,0.3662,-0.4272,1,466,871,475
966228923,189626,-0.0293,-0.0278,1.0234,0.1221,0.4272,-0.3662,1,466,882,475
966233925,189627,-0.0298,-0.0288,1.0234,0.1221,0.3662,-0.3052,1,466,881,475
966238929,189628,-0.0293,-0.0298,1.0234,0.2441,0.3052,-0.2441,1,466,876,475
966243929,189629,-0.0283,-0.0298,1.0229,0.1221,0.3662,-0.1831,1,466,877,475
966248922,189630,-0.0288,-0.0288,1.0229,0.1221,0.4272,-0.3052,1,466,881,475
966253926,189631,-0.0293,-0.0283,1.0229,0.0000,0.4272,-0.3052,1,466,879,475
966258924,189632,-0.0293,-0.0288,1.0229,0.0000,0.3662,-0.2441,1,466,833,475
966263933,189633,-0.0303,-0.0293,1.0229,0.0610,0.4883,-0.2441,1,466,838,475
966268974,189634,-0.0308,-0.0298,1.0234,0.1221,0.3662,-0.2441,1,466,875,475
966273926,189635,-0.0303,-0.0303,1.0234,0.1221,0.4272,-0.2441,1,466,874,475
966278928,189636,-0.0283,-0.0298,1.0239,-0.1221,0.4272,-0.3052,1,467,861,475
966283925,189637,-0.0273,-0.0298,1.0239,0.0000,0.4883,-0.3052,1,511,864,475
966288925,189638,-0.0283,-0.0298,1.0234,0.0610,0.3052,-0.2441,1,493,799,475
966293928,189639,-0.0303,-0.0288,1.0234,0.0000,0.3662,-0.2441,1,496,847,475
966298926,189640,-0.0317,-0.0273,1.0239,0.1221,0.3662,-0.3052,1,474,827,475
966303925,189641,-0.0303,-0.0278,1.0239,0.0000,0.4272,-0.3052,1,499,866,475
966308923,189642,-0.0283,-0.0293,1.0239,0.0000,0.3662,-0.3052,1,506,783,475
966313925,189643,-0.0273,-0.0293,1.0239,0.1221,0.3052,-0.2441,1,494,785,475
966318923,189644,-0.0288,-0.0298,1.0234,0.1831,0.2441,-0.1831,1,510,828,475
966323924,189645,-0.0298,-0.0303,1.0229,0.0000,0.2441,-0.2441,1,510,839,475
966328925,189646,-0.0303,-0.0308,1.0220,0.1221,0.1831,-0.2441,1,466,834,475
966333930,189647,-0.0293,-0.0303,1.0225,0.1831,0.1221,-0.2441,1,466,871,475
966338923,189648,-0.0293,-0.0293,1.0229,0.0610,0.1831,-0.1831,1,466,874,475
966343927,189649,-0.0298,-0.0293,1.0234,0.1221,0.0610,-0.1831,1,466,879,475
966348922,189650,-0.0303,-0.0298,1.0244,0.2441,0.0610,-0.3052,1,466,876,475
966353923,189651,-0.0293,-0.0293,1.0239,0.1831,0.0610,-0.2441,1,466,872,475
966358922,189652,-0.0288,-0.0288,1.0229,0.1221,0.3052,-0.1831,1,466,880,475
966363922,189653,-0.0293,-0.0298,1.0225,0.0000,0.2441,-0.1831,1,466,878,475
966368929,189654,-0.0288,-0.0308,1.0225,0.0000,0.0610,-0.2441,1,466,831,475
966373950,189655,-0.0283,-0.0308,1.0225,0.0000,0.1221,-0.2441,1,466,828,475
966378928,189656,-0.0298,-0.0303,1.0220,0.0610,0.1831,-0.2441,1,466,828,475
966383925,189657,-0.0308,-0.0303,1.0215,0.1221,0.2441,-0.2441,1,510,875,475
966388922,189658,-0.0298,-0.0303,1.0220,0.0000,0.1831,-0.1831,1,495,860,475
966393922,189659,-0.0278,-0.0303,1.0234,0.0000,0.1221,-0.3052,1,512,827,475
966398924,189660,-0.0278,-0.0298,1.0234,0.1221,0.1831,-0.2441,1,469,796,475
966403924,189661,-0.0293,-0.0283,1.0220,0.0610,0.2441,-0.2441,1,494,841,475
966408923,189662,-0.0303,-0.0288,1.0205,0.0000,0.2441,-0.1831,1,499,841,475
966413922,189663,-0.0293,-0.0303,1.0205,0.1221,0.1221,-0.1831,1,510,786,475
966418929,189664,-0.0278,-0.0298,1.0220,0.0610,0.1831,-0.2441,1,496,821,475
966423922,189665,-0.0278,-0.0293,1.0225,0.0610,0.2441,-0.3052,1,501,832,475
966428930,189666,-0.0278,-0.0293,1.0225,0.1221,0.2441,-0.1221,1,510,827,475
966433927,189667,-0.0283,-0.0293,1.0220,0.1831,0.1221,-0.1221,1,466,826,475
966438930,189668,-0.0288,-0.0288,1.0205,0.0610,0.1831,-0.2441,1,466,872,475
966443925,189669,-0.0288,-0.0283,1.0210,-0.0610,0.1221,-0.2441,1,466,882,475
966448926,189670,-0.0293,-0.0283,1.0225,0.0000,0.1221,-0.2441,1,466,876,475
966453926,189671,-0.0298,-0.0288,1.0229,0.0000,0.1831,-0.2441,1,466,832,475
966458931,189672,-0.0293,-0.0288,1.0225,-0.0610,0.1831,-0.2441,1,466,838,475
966463928,189673,-0.0283,-0.0293,1.0234,-0.1831,0.1221,-0.3052,1,466,880,475
966468927,189674,-0.0293,-0.0288,1.0229,-0.0610,0.2441,-0.2441,1,466,876,475
966473929,189675,-0.0303,-0.0293,1.0215,-0.0610,0.1831,-0.1831,1,466,883,475
966478930,189676,-0.0308,-0.0293,1.0210,0.0000,0.1831,-0.2441,1,466,875,475
966483961,189677,-0.0303,-0.0288,1.0215,-0.1221,0.3052,-0.1831,1,466,828,475
966488929,189678,-0.0283,-0.0283,1.0215,-0.1831,0.1831,-0.2441,1,466,871,475
966493927,189679,-0.0278,-0.0288,1.0220,-0.1221,0.2441,-0.1831,1,483,886,475
966498929,189680,-0.0278,-0.0288,1.0234,-0.1221,0.3052,-0.1831,1,484,870,475
966503926,189681,-0.0283,-0.0288,1.0244,-0.2441,0.1221,-0.2441,1,512,868,475
966508927,189682,-0.0298,-0.0293,1.0229,-0.1221,0.1221,-0.2441,1,472,855,475
966513926,189683,-0.0308,-0.0293,1.0220,0.0000,0.0000,-0.1831,1,497,836,475
966518930,189684,-0.0308,-0.0288,1.0215,-0.0610,0.0000,-0.3052,1,506,736,475
966523926,189685,-0.0303,-0.0293,1.0215,-0.0610,0.0610,-0.2441,1,501,779,475
966528929,189686,-0.0293,-0.0298,1.0229,-0.0610,-0.0610,-0.1831,1,484,824,475
966533929,189687,-0.0283,-0.0293,1.0234,0.0610,0.0000,-0.3052,1,479,830,475
966538927,189688,-0.0298,-0.0298,1.0225,0.0000,0.0000,-0.2441,1,510,783,475
966543925,189689,-0.0312,-0.0303,1.0210,0.0610,-0.1221,-0.3052,1,466,782,475
966548930,189690,-0.0298,-0.0298,1.0205,0.0000,-0.1221,-0.3052,1,466,888,475
966553922,189691,-0.0288,-0.0293,1.0215,0.0610,-0.0610,-0.3052,1,466,824,475
966558926,189692,-0.0293,-0.0308,1.0210,0.1221,-0.1831,-0.3052,1,466,872,475
966563926,189693,-0.0303,-0.0312,1.0190,0.0610,-0.2441,-0.2441,1,466,867,475
966568924,189694,-0.0283,-0.0308,1.0190,0.1831,-0.1831,-0.2441,1,466,903,475
966573926,189695,-0.0269,-0.0308,1.0195,0.3052,-0.2441,-0.1831,1,466,883,475
966578922,189696,-0.0273,-0.0303,1.0195,0.4272,-0.2441,-0.1831,1,465,877,475
966583928,189697,-0.0293,-0.0298,1.0205,0.3662,-0.1831,-0.2441,1,466,884,475
966588938,189698,-0.0308,-0.0298,1.0210,0.3052,-0.1831,-0.3052,1,466,882,475
966593944,189699,-0.0303,-0.0303,1.0210,0.3662,-0.1831,-0.3662,1,466,867,475
966598922,189700,-0.0293,-0.0317,1.0210,0.4272,-0.0610,-0.3662,1,483,873,475
966603924,189701,-0.0298,-0.0327,1.0205,0.4883,-0.1221,-0.2441,1,472,866,475
966608925,189702,-0.0293,-0.0312,1.0200,0.3662,-0.2441,-0.3052,1,512,865,475
966613925,189703,-0.0264,-0.0269,1.0239,0.4272,-0.3052,-0.2441,1,479,899,475
966618929,189704,-0.0264,-0.0264,1.0244,0.3052,-0.1221,-0.2441,1,508,819,475
966623922,189705,-0.0273,-0.0278,1.0239,0.3662,-0.1831,-0.1831,1,486,835,475
966628927,189706,-0.0283,-0.0293,1.0229,0.3662,-0.1831,-0.3052,1,492,857,475
966633929,189707,-0.0278,-0.0293,1.0220,0.3052,0.0000,-0.3662,1,490,833,475
966638930,189708,-0.0273,-0.0288,1.0220,0.2441,-0.1221,-0.3052,1,488,783,475
966643930,189709,-0.0278,-0.0278,1.0229,0.2441,-0.1221,-0.3052,1,505,829,475
966648924,189710,-0.0283,-0.0273,1.0234,0.3052,-0.1221,-0.3052,1,511,832,475
966653929,189711,-0.0278,-0.0288,1.0234,0.2441,-0.1831,-0.1831,1,466,870,475
966658931,189712,-0.0273,-0.0298,1.0234,0.2441,-0.1831,-0.2441,1,466,890,475
966663925,189713,-0.0283,-0.0293,1.0234,0.2441,0.0000,-0.3052,1,466,886,475
966668929,189714,-0.0298,-0.0293,1.0225,0.1831,-0.1831,-0.3662,1,466,834,475
966673930,189715,-0.0293,-0.0298,1.0229,0.3052,-0.2441,-0.2441,1,466,881,475
966678925,189716,-0.0269,-0.0303,1.0239,0.2441,-0.1831,-0.2441,1,466,879,475
966683924,189717,-0.0259,-0.0303,1.0244,0.1831,-0.1831,-0.2441,1,465,882,475
966688925,189718,-0.0259,-0.0293,1.0239,0.3052,-0.1221,-0.3052,1,466,882,475
966693929,189719,-0.0259,-0.0283,1.0249,0.2441,-0.1221,-0.3052,1,466,870,475
966698932,189720,-0.0259,-0.0269,1.0249,0.1221,-0.0610,-0.2441,1,466,877,475
966703926,189721,-0.0264,-0.0254,1.0249,0.0000,0.0000,-0.2441,1,466,874,475
966708927,189722,-0.0264,-0.0259,1.0244,0.0000,-0.0610,-0.2441,1,510,720,475
966713929,189723,-0.0264,-0.0269,1.0244,-0.0610,0.0610,-0.3052,1,487,773,475
966718927,189724,-0.0269,-0.0278,1.0244,0.0000,0.0610,-0.2441,1,511,812,475
966723930,189725,-0.0273,-0.0278,1.0234,-0.0610,0.2441,-0.1831,1,476,803,475
966728927,189726,-0.0283,-0.0269,1.0225,-0.1831,0.1831,-0.3052,1,498,855,475
966733925,189727,-0.0288,-0.0273,1.0215,-0.3052,0.1221,-0.2441,1,501,840,475
966738924,189728,-0.0283,-0.0293,1.0220,-0.2441,0.3052,-0.2441,1,483,828,475
966743927,189729,-0.0273,-0.0303,1.0234,-0.2441,0.2441,-0.3662,1,486,832,475
966748923,189730,-0.0273,-0.0288,1.0244,-0.1831,0.1831,-0.1831,1,506,836,475
966753924,189731,-0.0278,-0.0278,1.0239,-0.2441,0.2441,-0.1831,1,510,840,475
966758930,189732,-0.0278,-0.0273,1.0229,-0.1221,0.1831,-0.1221,1,493,860,475
966763930,189733,-0.0264,-0.0288,1.0229,-0.2441,0.3052,-0.1831,1,466,878,475
966768927,189734,-0.0264,-0.0298,1.0239,-0.1831,0.2441,-0.1831,1,466,882,475
966773924,189735,-0.0273,-0.0288,1.0229,-0.1831,0.2441,-0.1831,1,466,885,475
966778924,189736,-0.0293,-0.0278,1.0220,-0.1831,0.2441,-0.3052,1,466,888,475
966783928,189737,-0.0298,-0.0283,1.0220,-0.2441,0.3052,-0.2441,1,466,879,475
966788928,189738,-0.0293,-0.0293,1.0215,-0.1221,0.3052,-0.2441,1,466,880,475
966793929,189739,-0.0288,-0.0288,1.0215,-0.1831,0.0000,-0.1221,1,466,872,475
966798930,189740,-0.0269,-0.0278,1.0229,-0.1831,0.0000,-0.1831,1,466,834,475
966803922,189741,-0.0269,-0.0283,1.0239,-0.1831,0.2441,-0.2441,1,466,839,475
966808938,189742,-0.0273,-0.0298,1.0225,-0.0610,0.3052,-0.1831,1,465,887,475
966813929,189743,-0.0278,-0.0303,1.0200,-0.1221,0.1831,-0.2441,1,466,872,475
966818927,189744,-0.0278,-0.0298,1.0210,-0.1221,0.1221,-0.1831,1,510,875,475
966823925,189745,-0.0273,-0.0298,1.0239,-0.0610,0.1831,-0.2441,1,491,861,475
966828926,189746,-0.0278,-0.0293,1.0239,-0.1221,0.2441,-0.1221,1,510,870,475
966833923,189747,-0.0278,-0.0283,1.0225,0.0000,0.1831,-0.1221,1,468,837,475
966838928,189748,-0.0269,-0.0288,1.0210,-0.0610,0.1831,-0.1221,1,494,795,475
966843922,189749,-0.0259,-0.0308,1.0210,0.0000,0.1831,-0.1831,1,486,834,475
966848928,189750,-0.0259,-0.0312,1.0225,0.0000,0.1831,-0.1831,1,474,781,475
966853922,189751,-0.0273,-0.0303,1.0229,0.0000,0.2441,-0.1831,1,492,812,475
966858926,189752,-0.0288,-0.0293,1.0239,-0.0610,0.2441,-0.1831,1,478,788,475
966863930,189753,-0.0293,-0.0283,1.0234,0.0610,0.1831,-0.1221,1,493,835,475
966868927,189754,-0.0283,-0.0283,1.0234,-0.0610,0.2441,-0.1831,1,493,830,475
966873925,189755,-0.0278,-0.0298,1.0229,0.0000,0.2441,-0.2441,1,465,885,475
966878925,189756,-0.0278,-0.0308,1.0220,0.1221,0.3052,-0.1831,1,466,839,475
966883925,189757,-0.0278,-0.0303,1.0210,0.1221,0.1831,-0.0610,1,466,871,475
966888926,189758,-0.0293,-0.0298,1.0205,0.0610,0.2441,-0.1831,1,466,873,475
966893924,189759,-0.0298,-0.0303,1.0210,0.1221,0.2441,-0.2441,1,466,879,475
966898923,189760,-0.0293,-0.0298,1.0210,0.2441,0.1221,-0.1221,1,466,872,475
966903923,189761,-0.0283,-0.0293,1.0210,0.1831,0.0610,-0.1831,1,466,871,475
966908922,189762,-0.0278,-0.0293,1.0215,0.2441,0.1831,-0.2441,1,465,879,475
966913923,189763,-0.0278,-0.0293,1.0220,0.3052,0.0610,-0.2441,1,466,885,475
966918965,189764,-0.0278,-0.0298,1.0234,0.1831,0.1221,-0.3052,1,465,876,475
966923924,189765,-0.0269,-0.0298,1.0244,0.3052,0.3052,-0.2441,1,466,877,475
966928922,189766,-0.0269,-0.0283,1.0249,0.2441,0.3052,-0.2441,1,510,873,475
966933926,189767,-0.0278,-0.0283,1.0244,0.1831,0.2441,-0.2441,1,484,868,475
966938926,189768,-0.0273,-0.0283,1.0229,0.1221,0.1831,-0.1221,1,511,877,475
966943925,189769,-0.0264,-0.0288,1.0225,0.1831,0.2441,-0.1221,1,478,848,475
966948923,189770,-0.0269,-0.0298,1.0229,0.0000,0.1831,-0.2441,1,480,848,475
966953928,189771,-0.0278,-0.0298,1.0239,0.0000,0.1831,-0.1831,1,486,788,475
966958929,189772,-0.0283,-0.0293,1.0244,0.1831,0.1831,-0.2441,1,483,790,475
966963923,189773,-0.0288,-0.0288,1.0239,0.1831,0.1831,-0.2441,1,487,839,475
966968923,189774,-0.0288,-0.0293,1.0229,0.1221,0.3052,-0.3662,1,485,841,475
966973928,189775,-0.0278,-0.0288,1.0229,0.1221,0.3662,-0.2441,1,510,829,475
966978928,189776,-0.0264,-0.0273,1.0229,0.0610,0.3662,-0.2441,1,466,853,475
966983927,189777,-0.0269,-0.0273,1.0225,0.0610,0.3052,-0.2441,1,466,879,475
966988929,189778,-0.0278,-0.0273,1.0220,0.0610,0.4883,-0.1831,1,466,874,475
966993929,189779,-0.0283,-0.0273,1.0225,0.0000,0.4272,-0.2441,1,466,879,475
966998922,189780,-0.0288,-0.0273,1.0229,0.0000,0.4272,-0.1831,1,466,838,475
967003923,189781,-0.0298,-0.0293,1.0220,0.1221,0.3662,-0.3662,1,466,841,475
967008925,189782,-0.0298,-0.0303,1.0220,0.0000,0.3052,-0.3052,1,465,876,475
967013925,189783,-0.0283,-0.0293,1.0225,0.0610,0.2441,-0.3052,1,466,822,475
967018928,189784,-0.0269,-0.0288,1.0229,0.0000,0.2441,-0.3662,1,466,875,475
967023929,189785,-0.0273,-0.0293,1.0225,0.0000,0.3052,-0.1831,1,466,838,475
967028922,189786,-0.0283,-0.0298,1.0220,0.0610,0.3662,-0.1831,1,466,829,475
967033922,189787,-0.0283,-0.0288,1.0225,-0.0610,0.3662,-0.1831,1,483,880,475
967038928,189788,-0.0283,-0.0278,1.0225,-0.0610,0.2441,-0.1221,1,510,882,475
967043930,189789,-0.0278,-0.0283,1.0239,0.0000,0.3052,-0.2441,1,484,866,475
967048925,189790,-0.0273,-0.0288,1.0244,0.0610,0.3052,-0.3052,1,512,831,475
967053925,189791,-0.0273,-0.0298,1.0239,0.0000,0.3052,-0.1831,1,479,806,475
967058927,189792,-0.0269,-0.0298,1.0225,0.0610,0.3052,-0.1221,1,479,756,475
967063923,189793,-0.0264,-0.0288,1.0220,0.0000,0.4272,-0.2441,1,483,790,475
967068924,189794,-0.0273,-0.0288,1.0229,-0.0610,0.3052,-0.2441,1,491,787,475
967073930,189795,-0.0278,-0.0298,1.0244,-0.1831,0.3052,-0.1831,1,489,832,475
967078926,189796,-0.0269,-0.0293,1.0259,0.0610,0.4272,-0.2441,1,481,833,475
967083928,189797,-0.0264,-0.0293,1.0269,0.0000,0.4883,-0.1831,1,511,829,475
967088922,189798,-0.0278,-0.0298,1.0249,-0.1221,0.4272,-0.3052,1,466,827,475
967093926,189799,-0.0293,-0.0303,1.0225,-0.1831,0.5493,-0.2441,1,466,876,475
967098924,189800,-0.0293,-0.0298,1.0215,-0.1221,0.4883,-0.2441,1,466,880,475
967103930,189801,-0.0283,-0.0293,1.0215,-0.2441,0.4272,-0.2441,1,465,876,475
967108922,189802,-0.0283,-0.0293,1.0229,-0.0610,0.5493,-0.0610,1,466,884,475
967113929,189803,-0.0288,-0.0293,1.0244,-0.1221,0.5493,-0.1221,1,465,880,475
967118924,189804,-0.0288,-0.0303,1.0239,-0.1831,0.5493,-0.2441,1,465,877,475
967123929,189805,-0.0283,-0.0308,1.0239,-0.2441,0.6714,-0.2441,1,466,885,475
967128929,189806,-0.0283,-0.0293,1.0249,-0.1831,0.6104,-0.1221,1,466,883,475
967133925,189807,-0.0273,-0.0283,1.0244,-0.3052,0.7324,-0.2441,1,466,877,475
967138936,189808,-0.0264,-0.0283,1.0234,-0.3052,0.7935,-0.2441,1,465,884,475
967143928,189809,-0.0269,-0.0288,1.0220,-0.3052,0.7935,-0.2441,1,483,878,475
967148923,189810,-0.0283,-0.0288,1.0210,-0.2441,0.9155,-0.1831,1,510,876,475
967153922,189811,-0.0283,-0.0293,1.0220,-0.2441,0.9766,-0.2441,1,493,873,475
967158925,189812,-0.0273,-0.0303,1.0225,-0.3052,0.8545,-0.1831,1,492,831,475
967163923,189813,-0.0269,-0.0308,1.0220,-0.1831,0.9155,-0.1831,1,466,843,475
967168923,189814,-0.0288,-0.0298,1.0220,-0.1831,1.0376,-0.1221,1,509,849,475
967173931,189815,-0.0312,-0.0293,1.0215,-0.2441,1.0986,-0.1831,1,489,801,475
967178926,189816,-0.0312,-0.0293,1.0210,-0.3052,0.9155,-0.2441,1,486,876,475
967183923,189817,-0.0308,-0.0298,1.0205,-0.1831,0.9766,-0.1831,1,496,874,475
967188929,189818,-0.0308,-0.0308,1.0190,-0.1831,0.7935,-0.3662,1,492,829,475
967193924,189819,-0.0303,-0.0308,1.0200,-0.1221,0.7324,-0.3052,1,505,828,475
967198930,189820,-0.0303,-0.0293,1.0215,-0.1221,0.5493,-0.2441,1,465,837,475
967203923,189821,-0.0303,-0.0303,1.0229,-0.1831,0.4883,-0.2441,1,466,874,475
967208930,189822,-0.0298,-0.0317,1.0215,-0.1831,0.6104,-0.3052,1,466,877,475
967213922,189823,-0.0288,-0.0308,1.0200,-0.1831,0.6714,-0.2441,1,466,874,475
967218928,189824,-0.0288,-0.0293,1.0210,-0.2441,0.6104,-0.2441,1,466,878,475
967223924,189825,-0.0293,-0.0298,1.0220,-0.3052,0.5493,-0.2441,1,466,878,475
967228927,189826,-0.0288,-0.0308,1.0229,-0.1831,0.4883,-0.3052,1,466,877,475
967233922,189827,-0.0283,-0.0308,1.0234,-0.0610,0.5493,-0.3052,1,465,878,475
967238923,189828,-0.0273,-0.0303,1.0239,-0.1221,0.5493,-0.2441,1,466,876,475
967243937,189829,-0.0278,-0.0293,1.0225,-0.1831,0.6714,-0.2441,1,466,878,475
967248957,189830,-0.0293,-0.0288,1.0205,-0.1831,0.5493,-0.3052,1,466,881,475
967253930,189831,-0.0303,-0.0308,1.0215,-0.1831,0.6104,-0.3662,1,466,880,475
967258922,189832,-0.0312,-0.0308,1.0234,-0.1221,0.6714,-0.3052,1,467,860,475
967263925,189833,-0.0312,-0.0303,1.0244,-0.2441,0.7324,-0.3052,1,488,882,475
967268925,189834,-0.0308,-0.0322,1.0234,-0.1831,0.6714,-0.3052,1,494,835,475
967273928,189835,-0.0298,-0.0332,1.0225,-0.1221,0.6104,-0.1831,1,486,847,475
967278925,189836,-0.0303,-0.0312,1.0220,-0.0610,0.7324,-0.3662,1,502,844,475
967283927,189837,-0.0308,-0.0303,1.0205,-0.0610,0.6104,-0.3662,1,486,871,475
967288928,189838,-0.0308,-0.0303,1.0200,-0.0610,0.6104,-0.2441,1,491,821,475
967293925,189839,-0.0303,-0.0298,1.0220,0.0000,0.5493,-0.2441,1,494,821,475
967298925,189840,-0.0298,-0.0293,1.0239,-0.0610,0.4272,-0.2441,1,488,784,475
967303925,189841,-0.0288,-0.0278,1.0249,-0.1221,0.6104,-0.2441,1,493,832,475
967308926,189842,-0.0288,-0.0283,1.0234,-0.1221,0.5493,-0.3662,1,466,879,475
967313929,189843,-0.0293,-0.0298,1.0225,-0.1831,0.5493,-0.2441,1,466,884,475
967318929,189844,-0.0303,-0.0303,1.0225,-0.2441,0.5493,-0.1831,1,466,881,475
967323924,189845,-0.0298,-0.0303,1.0234,-0.0610,0.5493,-0.1831,1,466,877,475
967328930,189846,-0.0293,-0.0288,1.0239,-0.1221,0.6104,-0.1221,1,466,879,475
967333923,189847,-0.0288,-0.0278,1.0229,-0.3052,0.6714,-0.3052,1,466,873,475
967338926,189848,-0.0283,-0.0298,1.0225,-0.2441,0.7935,-0.3052,1,466,877,475
967343929,189849,-0.0278,-0.0308,1.0215,-0.1831,0.7324,-0.2441,1,466,877,475
967348927,189850,-0.0288,-0.0312,1.0205,-0.2441,0.7935,-0.1831,1,466,882,475
967353954,189851,-0.0303,-0.0332,1.0205,-0.1221,0.7324,-0.2441,1,466,909,475
967358930,189852,-0.0312,-0.0327,1.0200,-0.1221,0.6104,-0.1831,1,465,878,475
967363927,189853,-0.0317,-0.0303,1.0181,-0.1221,0.5493,-0.2441,1,491,899,475
967368926,189854,-0.0312,-0.0298,1.0186,-0.1221,0.4272,-0.2441,1,484,815,475
967373930,189855,-0.0298,-0.0308,1.0220,-0.1221,0.4883,-0.2441,1,493,815,475
967378925,189856,-0.0283,-0.0312,1.0239,-0.0610,0.4883,-0.1831,1,493,842,475
967383930,189857,-0.0278,-0.0303,1.0234,-0.0610,0.4272,-0.2441,1,501,866,475
967388931,189858,-0.0293,-0.0303,1.0229,-0.1221,0.3662,-0.1831,1,479,849,475
967393927,189859,-0.0303,-0.0317,1.0210,-0.0610,0.3052,-0.1831,1,484,857,475
967398924,189860,-0.0298,-0.0322,1.0200,-0.0610,0.3052,-0.2441,1,491,824,475
967403923,189861,-0.0293,-0.0317,1.0205,-0.0610,0.4883,-0.3052,1,490,827,475
967408931,189862,-0.0293,-0.0303,1.0225,-0.0610,0.3662,-0.2441,1,493,844,475
967413926,189863,-0.0288,-0.0293,1.0244,-0.1831,0.4272,-0.1221,1,466,877,475
967418927,189864,-0.0298,-0.0293,1.0220,-0.2441,0.4272,-0.1221,1,465,882,475
967423924,189865,-0.0303,-0.0298,1.0215,-0.3052,0.3662,-0.1221,1,466,877,475
967428929,189866,-0.0298,-0.0317,1.0234,-0.3052,0.3052,-0.1221,1,466,869,475
967433928,189867,-0.0288,-0.0322,1.0239,-0.3662,0.4883,-0.2441,1,465,872,475
967438923,189868,-0.0288,-0.0312,1.0234,-0.3052,0.4883,-0.2441,1,466,889,475
967443930,189869,-0.0303,-0.0308,1.0239,-0.3052,0.4272,-0.2441,1,466,905,475
967448931,189870,-0.0308,-0.0308,1.0234,-0.2441,0.5493,-0.1831,1,466,875,475
967453928,189871,-0.0308,-0.0303,1.0229,-0.4272,0.5493,-0.3052,1,466,880,475
967458929,189872,-0.0312,-0.0317,1.0225,-0.3662,0.6104,-0.1831,1,466,875,475
967463944,189873,-0.0312,-0.0332,1.0220,-0.3052,0.6104,-0.1221,1,466,904,475
967468923,189874,-0.0308,-0.0337,1.0210,-0.2441,0.5493,-0.1221,1,484,895,475
967473922,189875,-0.0303,-0.0327,1.0205,-0.1831,0.5493,-0.1221,1,492,861,475
967478931,189876,-0.0308,-0.0317,1.0210,-0.2441,0.4883,-0.2441,1,506,818,475
967483929,189877,-0.0308,-0.0312,1.0220,-0.1831,0.4883,-0.2441,1,492,875,475
967488928,189878,-0.0293,-0.0317,1.0229,-0.1831,0.5493,-0.1831,1,485,816,475
967493926,189879,-0.0288,-0.0312,1.0229,-0.1221,0.5493,-0.3052,1,506,857,475
967498928,189880,-0.0312,-0.0317,1.0205,-0.1831,0.4883,-0.3052,1,492,873,475
967503930,189881,-0.0327,-0.0332,1.0190,-0.1221,0.2441,-0.3052,1,492,855,475
967508924,189882,-0.0322,-0.0337,1.0205,-0.0610,0.3052,-0.3052,1,472,830,475
967513930,189883,-0.0317,-0.0312,1.0225,0.0000,0.3662,-0.1831,1,502,823,475
967518930,189884,-0.0308,-0.0303,1.0234,-0.0610,0.3662,-0.2441,1,493,814,475
967523924,189885,-0.0308,-0.0308,1.0234,0.0000,0.3662,-0.1831,1,466,875,475
967528930,189886,-0.0303,-0.0308,1.0234,-0.0610,0.3662,-0.1831,1,466,831,475
967533925,189887,-0.0303,-0.0308,1.0234,0.0610,0.4272,-0.3052,1,466,877,475
967538925,189888,-0.0308,-0.0303,1.0234,0.0000,0.3662,-0.2441,1,466,873,475
967543924,189889,-0.0308,-0.0312,1.0234,0.0000,0.3052,-0.2441,1,466,832,475
967548925,189890,-0.0312,-0.0327,1.0234,0.0000,0.4272,-0.2441,1,466,856,475
967553925,189891,-0.0312,-0.0317,1.0225,0.0000,0.3662,-0.2441,1,466,864,475
967558922,189892,-0.0308,-0.0303,1.0205,0.0610,0.3052,-0.1831,1,466,862,475
967563926,189893,-0.0303,-0.0303,1.0205,0.0610,0.4883,-0.1831,1,466,868,475
967568925,189894,-0.0293,-0.0317,1.0229,0.0000,0.3052,-0.1831,1,466,870,475
967573924,189895,-0.0293,-0.0332,1.0239,0.1221,0.3052,-0.1831,1,483,833,475
967578926,189896,-0.0293,-0.0322,1.0229,0.0000,0.5493,-0.1831,1,511,904,475
967583926,189897,-0.0298,-0.0322,1.0220,0.0000,0.4272,-0.1221,1,484,833,475
967588924,189898,-0.0312,-0.0322,1.0210,0.0610,0.3662,-0.2441,1,511,853,475
967593930,189899,-0.0317,-0.0322,1.0205,0.0610,0.2441,-0.2441,1,486,931,475
967598926,189900,-0.0317,-0.0327,1.0220,0.0000,0.2441,-0.2441,1,501,852,475
967603925,189901,-0.0312,-0.0327,1.0229,-0.0610,0.2441,-0.2441,1,484,791,475
967608923,189902,-0.0298,-0.0317,1.0229,-0.0610,0.2441,-0.1221,1,487,879,475
967613922,189903,-0.0293,-0.0303,1.0229,0.0000,0.1831,-0.1831,1,492,830,475
967618924,189904,-0.0298,-0.0293,1.0239,0.0000,0.2441,-0.1221,1,488,786,475
967623927,189905,-0.0293,-0.0298,1.0234,0.0610,0.1221,-0.2441,1,511,783,475
967628928,189906,-0.0293,-0.0303,1.0229,0.1221,0.1831,-0.2441,1,493,846,475
967633925,189907,-0.0293,-0.0317,1.0220,0.0000,0.1221,-0.1831,1,466,875,475
967638930,189908,-0.0298,-0.0322,1.0210,0.0610,0.1831,-0.1831,1,466,830,475
967643926,189909,-0.0312,-0.0312,1.0215,0.1831,0.0610,-0.1831,1,466,879,475
967648927,189910,-0.0317,-0.0308,1.0210,0.1831,0.1221,-0.1831,1,466,930,475
967653923,189911,-0.0312,-0.0308,1.0215,0.1831,0.1221,-0.2441,1,466,876,475
967658923,189912,-0.0308,-0.0308,1.0225,0.1221,0.2441,-0.3052,1,466,901,475
967663926,189913,-0.0308,-0.0308,1.0234,0.1221,0.1221,-0.3052,1,466,867,475
967668927,189914,-0.0303,-0.0312,1.0239,0.1831,0.1221,-0.2441,1,466,866,475
967673929,189915,-0.0303,-0.0308,1.0229,0.2441,0.0610,-0.3052,1,466,904,475
967678929,189916,-0.0298,-0.0308,1.0225,0.2441,0.0000,-0.2441,1,466,870,475
967683928,189917,-0.0298,-0.0317,1.0229,0.1831,0.0000,-0.3052,1,466,831,475
967688923,189918,-0.0303,-0.0327,1.0229,0.3052,0.1831,-0.3662,1,483,832,475
967693926,189919,-0.0317,-0.0317,1.0225,0.2441,0.1831,-0.2441,1,483,868,475
967698928,189920,-0.0327,-0.0308,1.0215,0.3052,0.2441,-0.2441,1,471,875,475
967703924,189921,-0.0322,-0.0298,1.0200,0.1831,0.1221,-0.3052,1,494,904,475
967708929,189922,-0.0308,-0.0308,1.0210,0.2441,0.0610,-0.2441,1,493,843,475
967713924,189923,-0.0298,-0.0317,1.0229,0.3052,0.1221,-0.2441,1,487,833,475
967718922,189924,-0.0312,-0.0312,1.0229,0.2441,0.2441,-0.3662,1,492,846,475
967723926,189925,-0.0322,-0.0303,1.0215,0.1831,0.2441,-0.3052,1,500,860,475
967728926,189926,-0.0308,-0.0293,1.0220,0.1831,0.4272,-0.4272,1,496,829,475
967733924,189927,-0.0293,-0.0308,1.0234,0.1831,0.3052,-0.3052,1,502,830,475
967738923,189928,-0.0288,-0.0327,1.0244,0.1221,0.2441,-0.1221,1,492,823,475
967743929,189929,-0.0293,-0.0322,1.0249,0.2441,0.4272,-0.2441,1,466,878,475
967748927,189930,-0.0308,-0.0312,1.0239,0.3052,0.3662,-0.3052,1,466,886,475
967753924,189931,-0.0317,-0.0308,1.0220,0.3052,0.3052,-0.3052,1,466,897,475
967758922,189932,-0.0312,-0.0308,1.0205,0.3052,0.2441,-0.2441,1,466,867,475
967763930,189933,-0.0303,-0.0312,1.0215,0.2441,0.2441,-0.3662,1,466,900,475
967768924,189934,-0.0303,-0.0312,1.0225,0.3052,0.2441,-0.2441,1,466,905,475
967773922,189935,-0.0308,-0.0308,1.0225,0.3052,0.1831,-0.1831,1,466,900,475
967778930,189936,-0.0303,-0.0312,1.0220,0.3052,0.1221,-0.3052,1,466,873,475
967783931,189937,-0.0298,-0.0317,1.0215,0.3052,0.1831,-0.3052,1,466,890,475
967788931,189938,-0.0308,-0.0312,1.0205,0.2441,0.1831,-0.2441,1,466,873,475
967793956,189939,-0.0327,-0.0317,1.0205,0.3052,0.1221,-0.3052,1,483,906,475
967798925,189940,-0.0327,-0.0317,1.0220,0.3052,0.0610,-0.2441,1,484,870,475
967803926,189941,-0.0312,-0.0303,1.0220,0.3052,0.0000,-0.2441,1,484,865,475
967808930,189942,-0.0298,-0.0293,1.0225,0.3662,0.1221,-0.3052,1,494,765,475
967813926,189943,-0.0293,-0.0308,1.0234,0.3052,0.0610,-0.2441,1,467,831,475
967818928,189944,-0.0298,-0.0322,1.0229,0.3052,0.1221,-0.3052,1,476,834,475
967823929,189945,-0.0293,-0.0312,1.0220,0.3052,0.1831,-0.3052,1,500,796,475
967828925,189946,-0.0283,-0.0312,1.0215,0.4272,0.0610,-0.3052,1,482,849,475
967833925,189947,-0.0293,-0.0317,1.0210,0.4272,0.0610,-0.3052,1,488,853,475
967838929,189948,-0.0312,-0.0317,1.0215,0.3662,0.1221,-0.3662,1,497,825,475
967843925,189949,-0.0312,-0.0312,1.0220,0.3662,0.0610,-0.4272,1,510,857,475
967848926,189950,-0.0298,-0.0312,1.0220,0.3662,0.0000,-0.3052,1,466,929,475
967853926,189951,-0.0303,-0.0322,1.0215,0.4883,0.0610,-0.2441,1,466,854,475
967858929,189952,-0.0312,-0.0317,1.0225,0.5493,0.1831,-0.2441,1,466,875,475
967863929,189953,-0.0312,-0.0308,1.0234,0.4883,0.0610,-0.3662,1,466,910,475
967868929,189954,-0.0303,-0.0293,1.0234,0.4272,0.0610,-0.3662,1,466,901,475
967873924,189955,-0.0303,-0.0278,1.0234,0.3662,0.1221,-0.3662,1,466,878,475
967878922,189956,-0.0317,-0.0283,1.0239,0.4883,0.0000,-0.3662,1,466,881,475
967883923,189957,-0.0317,-0.0298,1.0234,0.4272,0.1831,-0.3052,1,466,838,475
967888923,189958,-0.0312,-0.0303,1.0225,0.4272,0.2441,-0.3662,1,466,880,475
967893926,189959,-0.0298,-0.0298,1.0225,0.4272,0.1831,-0.3662,1,466,904,475
967898944,189960,-0.0288,-0.0298,1.0220,0.4272,0.1221,-0.3662,1,483,880,475
967903929,189961,-0.0288,-0.0293,1.0220,0.4272,0.0610,-0.2441,1,484,877,475
967908924,189962,-0.0293,-0.0293,1.0225,0.3662,0.2441,-0.3662,1,492,868,475
967913922,189963,-0.0298,-0.0298,1.0239,0.3052,0.0610,-0.3052,1,506,821,475
967918922,189964,-0.0303,-0.0298,1.0234,0.3052,0.0610,-0.3052,1,478,839,475
967923930,189965,-0.0312,-0.0283,1.0215,0.3052,0.0610,-0.3052,1,484,845,475
967928922,189966,-0.0308,-0.0283,1.0210,0.3052,0.1831,-0.4272,1,478,856,475
967933923,189967,-0.0298,-0.0298,1.0220,0.3052,0.1831,-0.3662,1,506,844,475
967938925,189968,-0.0303,-0.0308,1.0234,0.4272,0.2441,-0.3662,1,489,829,475
967943922,189969,-0.0312,-0.0303,1.0225,0.2441,0.1831,-0.3662,1,483,831,475
967948927,189970,-0.0317,-0.0298,1.0210,0.2441,0.0610,-0.3052,1,504,857,475
967953926,189971,-0.0308,-0.0303,1.0215,0.2441,0.0610,-0.3052,1,493,844,475
967958931,189972,-0.0293,-0.0303,1.0229,0.3052,0.1221,-0.3052,1,466,867,475
967963923,189973,-0.0298,-0.0293,1.0229,0.2441,0.0610,-0.3052,1,466,865,475
967968926,189974,-0.0312,-0.0303,1.0225,0.1831,0.0610,-0.3662,1,466,876,475
967973926,189975,-0.0322,-0.0312,1.0220,0.1831,0.1831,-0.3662,1,466,901,475
967978923,189976,-0.0308,-0.0312,1.0210,0.2441,0.1221,-0.3662,1,466,908,475
967983925,189977,-0.0283,-0.0308,1.0215,0.3662,0.0000,-0.3662,1,466,900,475
967988925,189978,-0.0273,-0.0308,1.0229,0.1831,0.0610,-0.3052,1,466,833,475
967993925,189979,-0.0293,-0.0298,1.0229,0.1221,0.1221,-0.3052,1,466,874,475
967998929,189980,-0.0317,-0.0283,1.0229,0.0000,0.3052,-0.4272,1,466,869,475
968003925,189981,-0.0312,-0.0278,1.0234,0.1221,0.1221,-0.1831,1,466,836,475
968008927,189982,-0.0288,-0.0283,1.0229,0.2441,0.1221,-0.1221,1,483,904,475
968013931,189983,-0.0278,-0.0298,1.0220,0.0610,0.1221,-0.1831,1,484,878,475
968018929,189984,-0.0283,-0.0293,1.0225,0.0610,0.1221,-0.2441,1,484,863,475
968023929,189985,-0.0293,-0.0278,1.0225,0.0610,0.1221,-0.3052,1,512,816,475
968028927,189986,-0.0303,-0.0283,1.0220,0.1221,0.1831,-0.3052,1,484,783,475
968033925,189987,-0.0312,-0.0303,1.0220,0.2441,0.2441,-0.2441,1,491,841,475
968038925,189988,-0.0308,-0.0312,1.0225,0.1831,0.1831,-0.2441,1,494,867,475
968043930,189989,-0.0308,-0.0308,1.0225,0.0610,0.1831,-0.2441,1,497,874,475
968048930,189990,-0.0308,-0.0312,1.0220,0.0610,0.2441,-0.3052,1,499,825,475
968053931,189991,-0.0303,-0.0322,1.0220,0.0610,0.2441,-0.3662,1,492,849,475
968058925,189992,-0.0303,-0.0312,1.0215,0.1221,0.2441,-0.3052,1,510,831,475
968063922,189993,-0.0312,-0.0308,1.0210,0.1831,0.3052,-0.2441,1,493,870,475
968068929,189994,-0.0317,-0.0298,1.0210,0.1831,0.1221,-0.3052,1,466,898,475
968073926,189995,-0.0308,-0.0283,1.0229,0.0610,0.3052,-0.2441,1,466,872,475
968078929,189996,-0.0293,-0.0298,1.0244,0.0610,0.3052,-0.2441,1,466,876,475
968083922,189997,-0.0283,-0.0308,1.0244,0.1221,0.2441,-0.3052,1,465,876,475
968088925,189998,-0.0278,-0.0293,1.0229,0.0610,0.3052,-0.2441,1,466,876,475
968093923,189999,-0.0278,-0.0283,1.0225,0.0000,0.4272,-0.2441,1,466,878,475
968098925,190000,-0.0278,-0.0283,1.0234,0.1221,0.3662,-0.2441,1,466,839,475
968103925,190001,-0.0278,-0.0293,1.0229,0.1221,0.3662,-0.3052,1,466,884,475
968108927,190002,-0.0288,-0.0312,1.0225,0.0610,0.2441,-0.2441,1,466,876,475
968113950,190003,-0.0303,-0.0312,1.0210,0.0610,0.1831,-0.2441,1,466,906,475
968118929,190004,-0.0308,-0.0293,1.0205,0.1831,0.2441,-0.3052,1,483,899,475
968123922,190005,-0.0308,-0.0288,1.0205,0.1221,0.1831,-0.1831,1,492,863,475
968128923,190006,-0.0298,-0.0298,1.0220,0.0000,0.1831,-0.2441,1,511,810,475
968133922,190007,-0.0288,-0.0303,1.0229,0.0610,0.3052,-0.2441,1,499,774,475
968138927,190008,-0.0283,-0.0288,1.0220,-0.0610,0.2441,-0.2441,1,482,853,475
968143928,190009,-0.0278,-0.0278,1.0220,0.0000,0.2441,-0.2441,1,497,845,475
968148925,190010,-0.0283,-0.0283,1.0229,0.0610,0.3662,-0.1221,1,496,818,475
968153922,190011,-0.0298,-0.0293,1.0229,0.0000,0.3052,-0.2441,1,479,853,475
968158930,190012,-0.0303,-0.0308,1.0210,-0.1221,0.3662,-0.2441,1,484,783,475
968163927,190013,-0.0303,-0.0317,1.0200,-0.0610,0.3052,-0.2441,1,489,824,475
968168928,190014,-0.0303,-0.0308,1.0205,0.1221,0.2441,-0.1831,1,493,825,475
968173926,190015,-0.0308,-0.0293,1.0215,0.1831,0.1831,-0.1221,1,466,870,475
968178926,190016,-0.0317,-0.0298,1.0229,0.0610,0.1831,-0.3052,1,466,872,475
968183923,190017,-0.0317,-0.0308,1.0239,0.1831,0.2441,-0.2441,1,466,877,475
968188925,190018,-0.0303,-0.0298,1.0239,0.1831,0.2441,-0.2441,1,466,885,475
968193925,190019,-0.0288,-0.0293,1.0239,0.0610,0.1831,-0.3052,1,466,883,475
968198922,190020,-0.0293,-0.0298,1.0239,0.1831,0.2441,-0.3662,1,466,877,475
968203923,190021,-0.0308,-0.0293,1.0220,0.2441,0.3662,-0.3052,1,466,884,475
968208923,190022,-0.0312,-0.0283,1.0200,0.1831,0.3052,-0.2441,1,466,874,475
968213926,190023,-0.0303,-0.0278,1.0200,0.1831,0.1831,-0.3052,1,466,905,475
968218928,190024,-0.0293,-0.0273,1.0229,0.1221,0.1831,-0.1831,1,466,875,475
968223952,190025,-0.0293,-0.0273,1.0220,0.1831,0.3052,-0.3052,1,466,880,475
968228925,190026,-0.0298,-0.0273,1.0205,0.1831,0.3662,-0.3052,1,484,871,475
968233926,190027,-0.0298,-0.0283,1.0200,0.1831,0.3662,-0.2441,1,492,867,475
968238928,190028,-0.0303,-0.0293,1.0200,0.2441,0.2441,-0.0610,1,466,880,475
968243926,190029,-0.0308,-0.0293,1.0210,0.0610,0.1831,-0.1831,1,493,789,475
968248926,190030,-0.0308,-0.0283,1.0220,0.0610,0.2441,-0.1831,1,492,843,475
968253926,190031,-0.0308,-0.0288,1.0225,0.1221,0.1831,-0.1831,1,498,839,475
968258926,190032,-0.0298,-0.0312,1.0215,0.2441,0.0610,-0.2441,1,478,829,475
968263924,190033,-0.0298,-0.0303,1.0215,0.2441,0.1831,-0.3662,1,501,857,475
968268928,190034,-0.0293,-0.0283,1.0225,0.1831,0.2441,-0.3662,1,482,832,475
968273930,190035,-0.0288,-0.0278,1.0239,0.1831,0.3052,-0.2441,1,504,836,475
968278930,190036,-0.0293,-0.0288,1.0234,0.1831,0.0610,-0.1831,1,493,854,475
968283927,190037,-0.0298,-0.0288,1.0220,0.1831,0.3662,-0.3052,1,466,881,475
968288923,190038,-0.0293,-0.0293,1.0220,0.1831,0.3662,-0.3052,1,466,878,475
968293926,190039,-0.0283,-0.0298,1.0239,0.0610,0.3052,-0.3052,1,466,875,475
968298925,190040,-0.0293,-0.0288,1.0244,0.1831,0.3052,-0.3052,1,466,873,475
968303922,190041,-0.0298,-0.0283,1.0229,0.0000,0.3052,-0.3052,1,466,876,475
968308924,190042,-0.0303,-0.0288,1.0225,0.0000,0.2441,-0.1831,1,466,829,475
968313922,190043,-0.0303,-0.0288,1.0229,-0.0610,0.3662,-0.2441,1,466,834,475
968318929,190044,-0.0303,-0.0288,1.0225,0.0000,0.3662,-0.1221,1,466,881,475
968323923,190045,-0.0303,-0.0298,1.0225,0.0000,0.3662,-0.1221,1,466,829,475
968328923,190046,-0.0303,-0.0303,1.0225,-0.0610,0.3052,-0.1831,1,466,827,475
968333954,190047,-0.0317,-0.0303,1.0225,-0.1831,0.3662,-0.2441,1,483,869,475
968338924,190048,-0.0322,-0.0308,1.0220,0.0000,0.2441,-0.2441,1,466,880,475
968343926,190049,-0.0322,-0.0312,1.0220,0.0000,0.1831,-0.1831,1,484,848,475
968348922,190050,-0.0317,-0.0308,1.0225,0.1831,0.0610,-0.1221,1,493,889,475
968353927,190051,-0.0303,-0.0298,1.0229,0.1831,0.0610,-0.3052,1,484,842,475
968358927,190052,-0.0298,-0.0303,1.0225,0.1831,0.2441,-0.3662,1,485,833,475
968363926,190053,-0.0303,-0.0308,1.0215,0.1831,0.1831,-0.3662,1,487,848,475
968368925,190054,-0.0308,-0.0278,1.0220,0.2441,0.1831,-0.2441,1,494,850,475
968373926,190055,-0.0308,-0.0269,1.0225,0.1831,0.1221,-0.3052,1,476,835,475
968378928,190056,-0.0298,-0.0288,1.0234,0.1221,0.1831,-0.3052,1,501,820,475
968383929,190057,-0.0288,-0.0303,1.0234,0.1831,0.3052,-0.2441,1,493,828,475
968388926,190058,-0.0293,-0.0298,1.0225,0.1831,0.3662,-0.1831,1,465,879,475
968393924,190059,-0.0293,-0.0293,1.0225,0.1221,0.3052,-0.1831,1,465,880,475
968398923,190060,-0.0298,-0.0293,1.0239,0.1221,0.1831,-0.2441,1,465,872,475
968403930,190061,-0.0303,-0.0288,1.0244,0.1221,0.1831,-0.3662,1,466,879,475
968408931,190062,-0.0298,-0.0293,1.0234,0.0610,0.1221,-0.3052,1,466,880,475
968413929,190063,-0.0288,-0.0288,1.0234,0.0000,0.2441,-0.1831,1,466,871,475
968418923,190064,-0.0288,-0.0288,1.0239,0.1221,0.3662,-0.2441,1,466,840,475
968423923,190065,-0.0303,-0.0273,1.0234,0.1221,0.3052,-0.2441,1,466,884,475
968428922,190066,-0.0312,-0.0264,1.0234,0.0610,0.1221,-0.1221,1,466,874,475
968433930,190067,-0.0308,-0.0269,1.0244,0.0000,0.2441,-0.1831,1,466,897,475
968438936,190068,-0.0308,-0.0283,1.0239,0.0000,0.3052,-0.3052,1,466,833,475
968443925,190069,-0.0312,-0.0288,1.0234,0.0000,0.1831,-0.2441,1,465,814,475
968448924,190070,-0.0317,-0.0278,1.0220,0.0000,0.2441,-0.1831,1,494,853,475
968453930,190071,-0.0312,-0.0273,1.0195,-0.0610,0.2441,-0.1831,1,488,752,475
968458930,190072,-0.0312,-0.0288,1.0205,-0.0610,0.1221,-0.0610,1,479,934,475
968463928,190073,-0.0308,-0.0293,1.0225,-0.1221,0.0610,-0.1831,1,479,821,475
968468926,190074,-0.0308,-0.0288,1.0229,-0.1221,0.4272,-0.3662,1,484,795,475
968473929,190075,-0.0308,-0.0288,1.0229,-0.0610,0.3052,-0.2441,1,488,832,475
968478924,190076,-0.0308,-0.0283,1.0234,-0.0610,0.0610,-0.2441,1,487,828,475
968483923,190077,-0.0308,-0.0283,1.0234,-0.1221,0.1831,-0.1831,1,489,829,475
968488925,190078,-0.0312,-0.0293,1.0220,-0.1831,0.3052,-0.1831,1,499,831,475
968493925,190079,-0.0312,-0.0298,1.0210,-0.0610,0.2441,-0.3052,1,494,872,475
968498924,190080,-0.0317,-0.0298,1.0220,-0.0610,0.1831,-0.2441,1,466,896,475
968503922,190081,-0.0312,-0.0288,1.0234,-0.1221,0.2441,-0.2441,1,466,879,475
968508923,190082,-0.0298,-0.0288,1.0229,-0.1831,0.3662,-0.1831,1,466,908,475
968513927,190083,-0.0288,-0.0283,1.0234,-0.1221,0.1831,-0.1221,1,466,886,475
968518924,190084,-0.0288,-0.0264,1.0244,-0.1221,0.1831,-0.1221,1,466,880,475
968523931,190085,-0.0288,-0.0259,1.0234,-0.0610,0.1221,-0.1221,1,466,878,475
968528930,190086,-0.0288,-0.0273,1.0220,-0.1221,0.3052,-0.3052,1,466,873,475
968533927,190087,-0.0288,-0.0283,1.0220,-0.2441,0.4272,-0.3052,1,466,871,475
968538934,190088,-0.0288,-0.0298,1.0229,-0.1831,0.3662,-0.2441,1,466,882,475
968543923,190089,-0.0288,-0.0298,1.0239,-0.2441,0.4272,-0.1831,1,466,887,475
968548926,190090,-0.0288,-0.0293,1.0239,-0.2441,0.4883,-0.1831,1,484,885,475
968553925,190091,-0.0288,-0.0288,1.0244,-0.2441,0.5493,-0.1831,1,465,883,475
968558930,190092,-0.0298,-0.0288,1.0244,-0.2441,0.4883,-0.1831,1,484,879,475
968563930,190093,-0.0308,-0.0293,1.0229,-0.3662,0.5493,-0.1831,1,493,826,475
968568928,190094,-0.0303,-0.0283,1.0229,-0.2441,0.6104,-0.2441,1,507,905,475
968573922,190095,-0.0298,-0.0278,1.0234,-0.3662,0.5493,-0.1831,1,485,858,475
968578930,190096,-0.0293,-0.0288,1.0229,-0.4272,0.6104,-0.1221,1,493,856,475
968583927,190097,-0.0293,-0.0288,1.0220,-0.4272,0.6714,-0.1221,1,504,846,475
968588922,190098,-0.0293,-0.0288,1.0225,-0.4883,0.6104,-0.1831,1,487,829,475
968593930,190099,-0.0288,-0.0283,1.0229,-0.4272,0.6714,-0.2441,1,489,828,475
968598929,190100,-0.0298,-0.0278,1.0229,-0.6104,0.7324,-0.0610,1,489,838,475
968603923,190101,-0.0308,-0.0288,1.0220,-0.6104,0.8545,-0.1221,1,493,849,475
968608928,190102,-0.0327,-0.0308,1.0200,-0.4883,0.8545,-0.1831,1,465,868,475
968613927,190103,-0.0342,-0.0317,1.0190,-0.4272,0.7324,-0.1221,1,466,874,475
968618923,190104,-0.0332,-0.0312,1.0205,-0.4272,0.7324,-0.1831,1,466,879,475
968623923,190105,-0.0308,-0.0298,1.0229,-0.5493,0.7324,-0.1831,1,465,910,475
968628922,190106,-0.0303,-0.0293,1.0234,-0.5493,0.7324,-0.1831,1,466,883,475
968633930,190107,-0.0303,-0.0303,1.0220,-0.5493,0.6714,-0.2441,1,466,881,475
968638930,190108,-0.0322,-0.0317,1.0186,-0.4272,0.6104,-0.2441,1,466,874,475
968643928,190109,-0.0347,-0.0332,1.0181,-0.3662,0.5493,-0.2441,1,466,882,475
968648927,190110,-0.0342,-0.0327,1.0195,-0.3052,0.4272,-0.2441,1,466,882,475
968653928,190111,-0.0322,-0.0308,1.0210,-0.2441,0.3052,-0.3052,1,466,880,475
968658924,190112,-0.0303,-0.0298,1.0215,-0.3662,0.3662,-0.3052,1,483,870,475
968663922,190113,-0.0298,-0.0303,1.0215,-0.3662,0.3662,-0.2441,1,484,873,475
968668925,190114,-0.0308,-0.0303,1.0220,-0.1221,0.3052,-0.2441,1,502,868,475
968673922,190115,-0.0317,-0.0298,1.0220,-0.2441,0.3662,-0.3052,1,469,782,475
968678927,190116,-0.0327,-0.0288,1.0210,-0.1831,0.2441,-0.2441,1,509,789,475
968683925,190117,-0.0327,-0.0293,1.0205,-0.2441,0.2441,-0.1831,1,490,855,475
968688928,190118,-0.0322,-0.0312,1.0215,-0.1831,0.1831,-0.3052,1,494,854,475
968693930,190119,-0.0317,-0.0337,1.0210,-0.1221,0.1221,-0.3662,1,496,874,475
968698930,190120,-0.0312,-0.0337,1.0215,0.0000,0.1831,-0.3662,1,499,853,475
968703929,190121,-0.0317,-0.0317,1.0225,0.0610,0.1221,-0.1831,1,498,812,475
968708922,190122,-0.0322,-0.0298,1.0229,-0.0610,0.1221,-0.1221,1,474,831,475
968713931,190123,-0.0322,-0.0293,1.0220,0.0610,0.1831,-0.2441,1,493,845,475
968718928,190124,-0.0317,-0.0298,1.0195,0.0000,0.1221,-0.2441,1,466,880,475
968723929,190125,-0.0312,-0.0308,1.0195,0.0000,0.0610,-0.3052,1,466,833,475
968728928,190126,-0.0308,-0.0312,1.0215,0.0610,0.0000,-0.1831,1,466,850,475
968733927,190127,-0.0312,-0.0303,1.0225,0.0000,0.1221,-0.1831,1,466,853,475
968738925,190128,-0.0312,-0.0298,1.0225,0.0610,0.1831,-0.1831,1,466,853,475
968743927,190129,-0.0312,-0.0298,1.0229,0.0000,0.2441,-0.3052,1,465,904,475
968748929,190130,-0.0312,-0.0308,1.0229,0.1831,0.0000,-0.2441,1,466,858,475
968753923,190131,-0.0308,-0.0327,1.0229,0.1831,0.0610,-0.2441,1,466,860,475
968758938,190132,-0.0312,-0.0327,1.0244,0.1831,0.1831,-0.1831,1,465,881,475
968763930,190133,-0.0317,-0.0317,1.0239,0.3052,0.1221,-0.1831,1,466,913,475
968768951,190134,-0.0308,-0.0317,1.0225,0.1221,0.0610,-0.2441,1,483,878,475
968773922,190135,-0.0303,-0.0312,1.0229,0.1221,0.1221,-0.3052,1,465,871,475
968778929,190136,-0.0308,-0.0312,1.0229,0.1221,0.1221,-0.1221,1,484,881,475
968783930,190137,-0.0308,-0.0312,1.0220,0.1831,0.1831,-0.1831,1,488,843,475
968788922,190138,-0.0308,-0.0303,1.0205,0.1221,0.2441,-0.2441,1,475,819,475
968793928,190139,-0.0312,-0.0288,1.0200,0.0610,0.2441,-0.1831,1,506,855,475
968798924,190140,-0.0327,-0.0298,1.0210,0.0610,0.1831,-0.1831,1,505,884,475
968803930,190141,-0.0332,-0.0312,1.0220,0.1831,0.1831,-0.1831,1,491,830,475
968808923,190142,-0.0317,-0.0317,1.0220,0.1831,0.3052,-0.1221,1,489,883,475
968813923,190143,-0.0298,-0.0317,1.0225,0.0610,0.3052,-0.1221,1,490,829,475
968818926,190144,-0.0293,-0.0308,1.0225,0.1221,0.2441,-0.1221,1,493,823,475
968823931,190145,-0.0293,-0.0298,1.0220,0.1221,0.2441,-0.1831,1,466,868,475
968828924,190146,-0.0293,-0.0298,1.0220,0.1221,0.3662,-0.1831,1,466,875,475
968833922,190147,-0.0298,-0.0308,1.0220,0.1831,0.3662,-0.1831,1,466,877,475
968838928,190148,-0.0312,-0.0308,1.0225,0.1831,0.3662,-0.3052,1,466,879,475
968843927,190149,-0.0317,-0.0303,1.0215,0.0610,0.3052,-0.3052,1,466,901,475
968848930,190150,-0.0317,-0.0298,1.0200,0.1221,0.3662,-0.1831,1,466,868,475
968853927,190151,-0.0312,-0.0298,1.0195,0.1221,0.4272,-0.2441,1,466,878,475
968858929,190152,-0.0317,-0.0293,1.0181,0.2441,0.3662,-0.3052,1,466,905,475
968863931,190153,-0.0322,-0.0283,1.0176,0.1831,0.1221,-0.1221,1,465,877,475
968868929,190154,-0.0322,-0.0298,1.0200,0.0610,0.1221,-0.3052,1,466,877,475
968873948,190155,-0.0317,-0.0308,1.0234,0.2441,0.2441,-0.3052,1,483,870,475
968878925,190156,-0.0308,-0.0303,1.0249,0.1831,0.3052,-0.3052,1,466,877,475
968883922,190157,-0.0293,-0.0308,1.0239,0.1221,0.3052,-0.2441,1,507,857,475
968888930,190158,-0.0293,-0.0322,1.0220,0.1221,0.1831,-0.1831,1,489,885,475
968893925,190159,-0.0317,-0.0317,1.0225,0.0610,0.2441,-0.2441,1,467,792,475
968898922,190160,-0.0327,-0.0298,1.0239,0.1831,0.1831,-0.2441,1,494,824,475
968903930,190161,-0.0312,-0.0288,1.0244,0.2441,0.2441,-0.2441,1,497,856,475
968908927,190162,-0.0298,-0.0293,1.0234,-0.0610,0.3662,-0.2441,1,492,837,475
968913924,190163,-0.0298,-0.0298,1.0229,-0.0610,0.3662,-0.1221,1,498,860,475
968918923,190164,-0.0312,-0.0298,1.0229,0.0610,0.3662,-0.1221,1,496,828,475
968923923,190165,-0.0317,-0.0298,1.0225,0.1221,0.4272,-0.1831,1,481,855,475
968928927,190166,-0.0312,-0.0298,1.0225,0.1221,0.3662,-0.1831,1,493,849,475
968933927,190167,-0.0303,-0.0303,1.0220,0.1221,0.3662,-0.3052,1,466,901,475
968938922,190168,-0.0308,-0.0308,1.0210,0.0610,0.3662,-0.2441,1,466,865,475
968943930,190169,-0.0317,-0.0312,1.0215,0.0610,0.3662,-0.1221,1,465,872,475
968948928,190170,-0.0322,-0.0308,1.0225,0.0610,0.3662,-0.1831,1,466,900,475
968953923,190171,-0.0312,-0.0308,1.0234,0.0610,0.3052,-0.1221,1,466,878,475
968958928,190172,-0.0308,-0.0312,1.0239,0.0000,0.3052,-0.3052,1,466,894,475
968963930,190173,-0.0308,-0.0322,1.0229,0.0000,0.3052,-0.1831,1,466,849,475
968968924,190174,-0.0312,-0.0308,1.0225,0.0610,0.5493,-0.0610,1,466,831,475
968973931,190175,-0.0317,-0.0298,1.0220,0.1221,0.4272,-0.1831,1,466,898,475
968978927,190176,-0.0312,-0.0312,1.0215,0.0610,0.3052,-0.1831,1,466,879,475
968983949,190177,-0.0312,-0.0312,1.0215,0.0610,0.2441,-0.1831,1,483,925,475
968988930,190178,-0.0322,-0.0303,1.0220,0.1221,0.3662,-0.1831,1,465,930,475
968993930,190179,-0.0322,-0.0308,1.0215,0.0000,0.3662,-0.2441,1,502,865,475
968998924,190180,-0.0317,-0.0312,1.0220,-0.0610,0.3052,-0.2441,1,488,751,475
969003926,190181,-0.0312,-0.0312,1.0239,0.0000,0.3052,-0.2441,1,497,929,475
969008927,190182,-0.0308,-0.0298,1.0244,0.0610,0.2441,-0.1831,1,496,826,475
969013930,190183,-0.0317,-0.0293,1.0229,0.0610,0.1831,-0.2441,1,498,846,475
969018927,190184,-0.0317,-0.0298,1.0220,0.0000,0.3052,-0.1831,1,494,836,475
969023923,190185,-0.0322,-0.0288,1.0239,0.0610,0.3052,-0.1221,1,476,783,475
969028929,190186,-0.0317,-0.0288,1.0234,0.0000,0.4272,-0.1831,1,494,827,475
969033928,190187,-0.0312,-0.0308,1.0229,-0.1221,0.5493,-0.2441,1,489,792,475
969038927,190188,-0.0298,-0.0312,1.0234,-0.1221,0.5493,-0.1831,1,493,875,475
969043930,190189,-0.0278,-0.0303,1.0234,-0.0610,0.6104,-0.3052,1,466,876,475
969048929,190190,-0.0273,-0.0298,1.0234,0.1221,0.7324,-0.2441,1,466,869,475
969053922,190191,-0.0283,-0.0303,1.0229,0.0000,0.7324,-0.1831,1,466,882,475
969058930,190192,-0.0308,-0.0293,1.0225,-0.1221,0.6714,-0.3052,1,466,836,475
969063925,190193,-0.0317,-0.0278,1.0225,-0.0610,0.6714,-0.1831,1,466,868,475
969068925,190194,-0.0317,-0.0288,1.0220,-0.1831,0.6714,-0.1831,1,466,880,475
969073925,190195,-0.0312,-0.0308,1.0225,-0.0610,0.6714,-0.2441,1,466,884,475
969078923,190196,-0.0308,-0.0312,1.0225,0.0000,0.7324,-0.1221,1,466,900,475
969083929,190197,-0.0298,-0.0308,1.0229,-0.0610,0.6104,-0.1221,1,466,853,475
969088925,190198,-0.0293,-0.0298,1.0229,-0.1831,0.8545,-0.3052,1,466,869,475
969093935,190199,-0.0298,-0.0298,1.0234,-0.1221,0.7935,-0.2441,1,466,876,475
969098947,190200,-0.0317,-0.0298,1.0234,-0.0610,0.6714,-0.1831,1,484,877,475
969103927,190201,-0.0337,-0.0303,1.0220,-0.1831,0.7324,-0.0610,1,466,869,475
969108927,190202,-0.0347,-0.0317,1.0205,-0.1831,0.7324,-0.1831,1,512,865,475
969113928,190203,-0.0332,-0.0312,1.0200,-0.0610,0.6714,-0.1831,1,482,883,475
969118930,190204,-0.0317,-0.0303,1.0190,0.0000,0.6714,-0.1831,1,477,817,475
969123927,190205,-0.0327,-0.0303,1.0190,-0.0610,0.6104,-0.2441,1,478,801,475
969128924,190206,-0.0342,-0.0312,1.0205,-0.1221,0.4272,-0.1831,1,482,844,475
969133930,190207,-0.0332,-0.0327,1.0210,-0.1831,0.3662,-0.3052,1,486,855,475
969138923,190208,-0.0317,-0.0322,1.0200,-0.1221,0.3052,-0.3052,1,483,832,475
969143925,190209,-0.0317,-0.0303,1.0195,-0.0610,0.3662,-0.3052,1,489,822,475
969148926,190210,-0.0327,-0.0298,1.0200,-0.0610,0.3052,-0.1831,1,476,845,475
969153931,190211,-0.0337,-0.0303,1.0205,-0.0610,0.2441,-0.2441,1,493,846,475
969158928,190212,-0.0327,-0.0312,1.0205,0.0000,0.1221,-0.1221,1,466,876,475
969163929,190213,-0.0317,-0.0317,1.0215,0.1221,0.3052,-0.2441,1,466,855,475
969168927,190214,-0.0317,-0.0312,1.0225,0.0610,0.4883,-0.3662,1,466,876,475
969173928,190215,-0.0327,-0.0303,1.0225,0.1221,0.3662,-0.3052,1,466,903,475
969178925,190216,-0.0327,-0.0293,1.0229,0.0610,0.2441,-0.2441,1,466,871,475
969183925,190217,-0.0317,-0.0288,1.0234,-0.0610,0.2441,-0.1831,1,466,883,475
969188931,190218,-0.0312,-0.0298,1.0234,-0.1221,0.2441,-0.2441,1,466,887,475
969193925,190219,-0.0312,-0.0303,1.0239,-0.0610,0.3662,-0.2441,1,466,906,475
969198939,190220,-0.0317,-0.0298,1.0239,-0.1221,0.4272,-0.2441,1,466,905,475
969203928,190221,-0.0337,-0.0293,1.0225,-0.0610,0.4272,-0.1831,1,466,882,475
969208946,190222,-0.0332,-0.0298,1.0210,0.0000,0.3052,-0.2441,1,483,878,475
969213929,190223,-0.0327,-0.0308,1.0215,0.0000,0.3052,-0.3052,1,466,771,475
969218926,190224,-0.0327,-0.0317,1.0215,0.0000,0.2441,-0.3052,1,511,764,475
969223923,190225,-0.0327,-0.0312,1.0205,0.0000,0.3052,-0.2441,1,484,746,475
969228929,190226,-0.0322,-0.0308,1.0195,0.0000,0.3052,-0.3052,1,472,780,475
969233925,190227,-0.0332,-0.0322,1.0205,0.0610,0.1831,-0.3662,1,510,794,475
969238926,190228,-0.0347,-0.0327,1.0215,0.0610,0.1831,-0.2441,1,495,852,475
969243930,190229,-0.0342,-0.0312,1.0210,0.1831,0.2441,-0.3052,1,476,833,475
969248926,190230,-0.0317,-0.0298,1.0210,0.1831,0.2441,-0.3052,1,489,853,475
969253927,190231,-0.0303,-0.0283,1.0215,0.1221,0.2441,-0.4272,1,490,829,475
969258925,190232,-0.0312,-0.0288,1.0215,0.1221,0.2441,-0.3662,1,508,829,475
969263922,190233,-0.0327,-0.0308,1.0210,0.1831,0.0610,-0.2441,1,492,876,475
969268923,190234,-0.0332,-0.0312,1.0210,0.1221,0.0000,-0.3052,1,493,847,475
969273928,190235,-0.0322,-0.0308,1.0215,0.1221,0.0000,-0.1831,1,466,849,475
969278931,190236,-0.0312,-0.0293,1.0239,0.1221,0.1221,-0.2441,1,466,829,475
969283930,190237,-0.0322,-0.0288,1.0254,0.1831,0.0610,-0.1831,1,466,900,475
969288931,190238,-0.0337,-0.0298,1.0239,0.1221,0.1221,-0.3052,1,466,884,475
969293926,190239,-0.0342,-0.0312,1.0225,0.0000,0.2441,-0.3662,1,466,870,475
969298924,190240,-0.0332,-0.0312,1.0220,0.1221,0.0610,-0.3662,1,466,860,475
969303923,190241,-0.0317,-0.0308,1.0225,0.0610,0.0610,-0.3052,1,465,902,475
969308930,190242,-0.0308,-0.0312,1.0234,0.1221,0.1221,-0.3052,1,466,869,475
969313922,190243,-0.0308,-0.0308,1.0229,0.2441,0.2441,-0.2441,1,466,894,475
969318927,190244,-0.0317,-0.0308,1.0225,0.0610,0.3052,-0.2441,1,466,879,475
969323925,190245,-0.0317,-0.0312,1.0225,0.1221,0.1221,-0.3052,1,465,872,475
969328929,190246,-0.0317,-0.0308,1.0220,0.0000,0.0610,-0.4272,1,492,895,475
969333928,190247,-0.0312,-0.0303,1.0220,0.1221,0.1831,-0.2441,1,466,739,475
969338927,190248,-0.0317,-0.0303,1.0220,0.2441,0.1221,-0.3052,1,491,899,475
969343926,190249,-0.0322,-0.0308,1.0225,0.1831,0.1831,-0.3662,1,470,850,475
969348927,190250,-0.0312,-0.0312,1.0229,0.2441,0.1221,-0.2441,1,496,861,475
969353926,190251,-0.0308,-0.0312,1.0239,0.0610,0.1831,-0.2441,1,496,910,475
969358923,190252,-0.0312,-0.0308,1.0239,0.1221,0.1831,-0.3662,1,499,857,475
969363930,190253,-0.0308,-0.0303,1.0220,0.3052,0.1831,-0.3052,1,480,876,475
969368930,190254,-0.0298,-0.0298,1.0200,0.1221,0.2441,-0.3662,1,510,819,475
969373928,190255,-0.0303,-0.0293,1.0200,0.1831,0.3052,-0.4272,1,471,846,475
969378927,190256,-0.0317,-0.0293,1.0210,0.1831,0.3052,-0.3662,1,493,845,475
969383930,190257,-0.0317,-0.0308,1.0229,0.0610,0.1831,-0.2441,1,466,876,475
969388927,190258,-0.0317,-0.0322,1.0239,0.0610,0.1831,-0.3662,1,466,880,475
969393928,190259,-0.0317,-0.0312,1.0220,0.1831,0.1831,-0.2441,1,466,885,475
969398927,190260,-0.0317,-0.0303,1.0200,0.3052,0.1221,-0.1831,1,466,911,475
969403923,190261,-0.0327,-0.0303,1.0210,0.1831,0.1831,-0.3662,1,466,871,475
969408929,190262,-0.0337,-0.0303,1.0215,0.1221,0.1221,-0.2441,1,466,880,475
969413924,190263,-0.0327,-0.0308,1.0210,0.3052,0.0000,-0.2441,1,466,871,475
969418922,190264,-0.0308,-0.0308,1.0215,0.1831,-0.0610,-0.3052,1,466,827,475
969423943,190265,-0.0298,-0.0308,1.0220,0.1831,-0.0610,-0.3662,1,466,868,475
969428927,190266,-0.0298,-0.0322,1.0220,0.1831,0.1831,-0.3662,1,466,876,475
969433942,190267,-0.0312,-0.0327,1.0215,0.2441,0.1831,-0.3052,1,484,884,475
969438927,190268,-0.0332,-0.0317,1.0210,0.2441,0.0000,-0.3052,1,466,905,475
969443924,190269,-0.0332,-0.0308,1.0220,0.3052,-0.2441,-0.2441,1,511,821,475
969448928,190270,-0.0312,-0.0293,1.0244,0.1831,-0.0610,-0.3052,1,478,904,475
969453923,190271,-0.0293,-0.0293,1.0259,0.2441,0.1221,-0.3662,1,499,929,475
969458926,190272,-0.0293,-0.0303,1.0239,0.2441,0.0610,-0.3052,1,482,837,475
969463926,190273,-0.0308,-0.0298,1.0220,0.1831,0.1831,-0.3052,1,480,842,475
969468924,190274,-0.0322,-0.0293,1.0220,0.1831,0.0610,-0.2441,1,483,827,475
969473930,190275,-0.0327,-0.0293,1.0229,0.1831,0.1221,-0.2441,1,484,832,475
969478922,190276,-0.0322,-0.0298,1.0229,0.1221,0.0610,-0.3052,1,496,834,475
969483930,190277,-0.0317,-0.0303,1.0239,0.1831,0.1831,-0.3662,1,469,843,475
969488929,190278,-0.0322,-0.0308,1.0239,0.1221,0.0610,-0.4272,1,493,854,475
969493930,190279,-0.0327,-0.0308,1.0225,0.0610,0.1831,-0.3662,1,465,875,475
969498925,190280,-0.0332,-0.0303,1.0210,0.0610,0.2441,-0.3052,1,466,877,475
969503924,190281,-0.0337,-0.0298,1.0210,0.1221,0.3662,-0.3052,1,466,872,475
969508930,190282,-0.0342,-0.0303,1.0225,0.0610,0.3052,-0.1831,1,466,871,475
969513926,190283,-0.0332,-0.0312,1.0234,0.0610,0.2441,-0.3052,1,466,870,475
969518928,190284,-0.0317,-0.0308,1.0225,0.1221,0.1831,-0.3052,1,466,905,475
969523925,190285,-0.0312,-0.0293,1.0215,0.0610,0.1831,-0.2441,1,465,872,475
969528927,190286,-0.0312,-0.0298,1.0205,0.1831,0.2441,-0.3662,1,466,904,475
969533933,190287,-0.0317,-0.0312,1.0200,0.1831,0.2441,-0.3052,1,466,909,475
969538926,190288,-0.0317,-0.0308,1.0200,0.0610,0.2441,-0.3052,1,466,904,475
969543929,190289,-0.0317,-0.0298,1.0215,0.0610,0.0610,-0.3052,1,484,872,475
969548923,190290,-0.0312,-0.0298,1.0229,0.0610,0.0000,-0.3052,1,466,858,475
969553928,190291,-0.0317,-0.0298,1.0220,0.0000,0.2441,-0.3662,1,507,842,475
969558929,190292,-0.0317,-0.0293,1.0200,-0.0610,0.1221,-0.3662,1,469,749,475
969563927,190293,-0.0322,-0.0288,1.0205,0.1221,0.0610,-0.3662,1,507,901,475
969568923,190294,-0.0322,-0.0293,1.0220,0.1831,0.1831,-0.2441,1,466,857,475
969573922,190295,-0.0312,-0.0298,1.0220,0.1221,0.1221,-0.2441,1,491,853,475
969578925,190296,-0.0312,-0.0312,1.0215,0.1221,0.1221,-0.1831,1,491,868,475
969583929,190297,-0.0332,-0.0322,1.0210,0.0610,0.1221,-0.3052,1,491,876,475
969588927,190298,-0.0337,-0.0317,1.0200,0.0000,0.0610,-0.2441,1,506,823,475
969593924,190299,-0.0322,-0.0308,1.0210,0.0610,0.0610,-0.3052,1,492,784,475
969598928,190300,-0.0308,-0.0298,1.0225,0.0610,0.0610,-0.3052,1,493,837,475
969603922,190301,-0.0303,-0.0288,1.0234,0.1831,0.1221,-0.3662,1,492,839,475
969608929,190302,-0.0303,-0.0283,1.0234,0.1221,0.1221,-0.2441,1,465,879,475
969613923,190303,-0.0298,-0.0288,1.0225,0.1221,0.1831,-0.3052,1,466,873,475
969618928,190304,-0.0303,-0.0303,1.0220,0.2441,0.1831,-0.1831,1,465,875,475
969623922,190305,-0.0317,-0.0308,1.0234,0.0000,0.3052,-0.2441,1,466,877,475
969628926,190306,-0.0322,-0.0298,1.0244,0.0610,0.3052,-0.3052,1,466,831,475
969633924,190307,-0.0317,-0.0293,1.0234,0.1831,0.2441,-0.3052,1,466,873,475
969638922,190308,-0.0312,-0.0303,1.0225,0.1221,0.2441,-0.3052,1,466,882,475
969643927,190309,-0.0312,-0.0308,1.0229,0.0610,0.1831,-0.2441,1,466,896,475
969648930,190310,-0.0322,-0.0308,1.0234,0.0610,0.1221,-0.1831,1,466,904,475
969653923,190311,-0.0322,-0.0312,1.0239,0.1221,0.2441,-0.2441,1,466,876,475
969658932,190312,-0.0317,-0.0308,1.0239,0.1221,0.2441,-0.3052,1,483,909,475
969663922,190313,-0.0312,-0.0303,1.0220,0.0000,0.2441,-0.3052,1,465,874,475
969668926,190314,-0.0312,-0.0308,1.0200,0.1221,0.2441,-0.2441,1,500,796,475
969673925,190315,-0.0317,-0.0308,1.0200,0.1221,0.1221,-0.2441,1,465,888,475
969678924,190316,-0.0317,-0.0298,1.0210,0.0610,0.1831,-0.3662,1,498,897,475
969683926,190317,-0.0312,-0.0298,1.0210,0.1831,0.2441,-0.2441,1,477,819,475
969688925,190318,-0.0322,-0.0298,1.0215,0.1221,0.3052,-0.2441,1,495,848,475
969693928,190319,-0.0322,-0.0303,1.0220,0.1221,0.1831,-0.2441,1,499,844,475
969698927,190320,-0.0298,-0.0303,1.0220,0.1221,0.0610,-0.2441,1,493,829,475
969703930,190321,-0.0288,-0.0293,1.0215,0.0610,0.2441,-0.1221,1,490,823,475
969708925,190322,-0.0298,-0.0298,1.0215,0.0610,0.1221,-0.1221,1,496,828,475
969713922,190323,-0.0322,-0.0298,1.0229,0.0000,0.1221,-0.3052,1,488,820,475
969718927,190324,-0.0327,-0.0293,1.0234,0.1221,0.1221,-0.3662,1,494,800,475
969723923,190325,-0.0312,-0.0298,1.0234,0.2441,0.0610,-0.2441,1,466,875,475
969728927,190326,-0.0312,-0.0293,1.0229,0.1221,0.1831,-0.2441,1,466,905,475
969733930,190327,-0.0322,-0.0283,1.0215,0.2441,0.1221,-0.2441,1,466,905,475
969738928,190328,-0.0332,-0.0293,1.0210,0.1831,0.2441,-0.2441,1,465,883,475
969743922,190329,-0.0322,-0.0308,1.0229,0.1831,0.1831,-0.3662,1,466,883,475
969748928,190330,-0.0308,-0.0317,1.0234,0.0610,0.1221,-0.3662,1,466,913,475
969753924,190331,-0.0308,-0.0308,1.0225,0.0610,0.1831,-0.2441,1,466,877,475
969758926,190332,-0.0312,-0.0293,1.0210,0.1221,0.1831,-0.2441,1,466,874,475
969763926,190333,-0.0312,-0.0278,1.0215,0.0610,0.1831,-0.1831,1,465,903,475
969768939,190334,-0.0312,-0.0278,1.0234,0.0610,0.0610,-0.2441,1,466,907,475
969773928,190335,-0.0312,-0.0317,1.0215,0.1831,0.0610,-0.2441,1,466,906,475
969778931,190336,-0.0308,-0.0317,1.0200,0.1221,-0.0610,-0.2441,1,483,906,475
969783927,190337,-0.0312,-0.0308,1.0210,0.0610,0.0000,-0.2441,1,465,861,475
969788930,190338,-0.0317,-0.0298,1.0229,0.1221,0.0610,-0.2441,1,499,796,475
969793925,190339,-0.0317,-0.0298,1.0239,0.0610,0.0610,-0.3052,1,465,874,475
969798924,190340,-0.0322,-0.0298,1.0225,0.0610,0.1831,-0.3052,1,501,899,475
969803922,190341,-0.0332,-0.0293,1.0205,0.1221,0.2441,-0.2441,1,503,789,475
969808929,190342,-0.0332,-0.0288,1.0200,0.1831,0.1221,-0.1831,1,503,859,475
969813924,190343,-0.0322,-0.0308,1.0210,0.0000,0.1221,-0.1831,1,494,850,475
969818926,190344,-0.0312,-0.0317,1.0215,0.0610,0.0610,-0.1831,1,476,780,475
969823923,190345,-0.0303,-0.0308,1.0225,0.0610,0.0610,-0.2441,1,492,876,475
969828929,190346,-0.0293,-0.0308,1.0234,0.0610,0.1831,-0.3662,1,500,822,475
969833926,190347,-0.0308,-0.0312,1.0220,0.1221,0.2441,-0.3662,1,474,849,475
969838923,190348,-0.0337,-0.0308,1.0210,0.1221,0.1831,-0.3662,1,493,870,475
969843930,190349,-0.0342,-0.0293,1.0210,0.3052,0.0000,-0.3052,1,466,871,475
969848924,190350,-0.0322,-0.0288,1.0220,0.1221,0.0610,-0.3052,1,466,820,475
969853924,190351,-0.0312,-0.0303,1.0239,0.2441,0.0000,-0.3052,1,466,874,475
969858927,190352,-0.0317,-0.0312,1.0229,0.1831,-0.0610,-0.3052,1,466,855,475
969863924,190353,-0.0317,-0.0308,1.0215,0.1831,0.0610,-0.2441,1,465,904,475
969868928,190354,-0.0322,-0.0298,1.0210,0.2441,0.0610,-0.3052,1,466,878,475
969873927,190355,-0.0327,-0.0293,1.0215,0.0610,0.1221,-0.2441,1,466,874,475
969878927,190356,-0.0322,-0.0298,1.0220,0.3052,-0.0610,-0.2441,1,466,876,475
969883929,190357,-0.0312,-0.0303,1.0220,0.3052,-0.1221,-0.3662,1,465,876,475
969888924,190358,-0.0303,-0.0303,1.0229,0.2441,0.0000,-0.3052,1,466,897,475
969893928,190359,-0.0308,-0.0312,1.0244,0.1831,-0.0610,-0.2441,1,483,824,475
969898948,190360,-0.0317,-0.0317,1.0229,0.1221,-0.0610,-0.2441,1,465,905,475
969903928,190361,-0.0327,-0.0303,1.0210,0.2441,-0.0610,-0.3052,1,469,868,475
969908924,190362,-0.0317,-0.0298,1.0210,0.0610,-0.0610,-0.3052,1,512,805,475
969913922,190363,-0.0312,-0.0293,1.0215,0.2441,-0.1221,-0.1831,1,497,897,475
969918922,190364,-0.0312,-0.0293,1.0220,0.2441,-0.0610,-0.3052,1,478,816,475
969923924,190365,-0.0312,-0.0283,1.0220,0.0610,0.1221,-0.2441,1,479,879,475
969928929,190366,-0.0298,-0.0273,1.0229,0.0610,0.0610,-0.3052,1,498,881,475
969933924,190367,-0.0288,-0.0288,1.0234,0.0610,0.0610,-0.3662,1,495,826,475
969938924,190368,-0.0288,-0.0308,1.0234,0.0610,0.0610,-0.2441,1,501,854,475
969943926,190369,-0.0288,-0.0308,1.0244,0.0000,0.1831,-0.1221,1,509,829,475
969948925,190370,-0.0293,-0.0298,1.0239,-0.1221,0.1831,-0.2441,1,471,802,475
969953923,190371,-0.0298,-0.0298,1.0234,-0.1221,0.2441,-0.2441,1,493,850,475
969958930,190372,-0.0298,-0.0303,1.0234,-0.1221,0.6104,-0.2441,1,466,880,475
969963929,190373,-0.0308,-0.0298,1.0234,-0.0610,0.4883,-0.1831,1,466,873,475
969968922,190374,-0.0322,-0.0288,1.0229,-0.1221,0.3052,-0.2441,1,466,876,475
969973929,190375,-0.0322,-0.0283,1.0220,-0.1221,0.3052,-0.1831,1,466,881,475
969978925,190376,-0.0312,-0.0288,1.0210,-0.1831,0.5493,-0.1831,1,466,877,475
969983923,190377,-0.0312,-0.0288,1.0210,-0.2441,0.5493,-0.1831,1,466,908,475
969988928,190378,-0.0317,-0.0283,1.0215,-0.1831,0.3662,-0.3052,1,466,909,475
969993925,190379,-0.0322,-0.0288,1.0220,-0.1831,0.4883,-0.3662,1,466,882,475
969998930,190380,-0.0317,-0.0298,1.0220,-0.1831,0.4272,-0.3662,1,466,884,475
970003928,190381,-0.0317,-0.0303,1.0215,-0.1831,0.4272,-0.2441,1,466,884,475
970008953,190382,-0.0317,-0.0293,1.0229,-0.3052,0.3052,-0.1831,1,465,881,475
970013924,190383,-0.0312,-0.0283,1.0244,-0.2441,0.4883,-0.2441,1,466,864,475
970018929,190384,-0.0308,-0.0288,1.0249,-0.2441,0.4883,-0.3052,1,511,899,475
970023927,190385,-0.0308,-0.0308,1.0239,-0.3052,0.6714,-0.3662,1,491,903,475
970028930,190386,-0.0312,-0.0312,1.0229,-0.3662,0.6104,-0.3052,1,473,749,475
970033927,190387,-0.0322,-0.0312,1.0215,-0.2441,0.5493,-0.2441,1,495,843,475
970038928,190388,-0.0322,-0.0303,1.0205,-0.3052,0.4883,-0.2441,1,479,835,475
970043924,190389,-0.0312,-0.0298,1.0205,-0.3662,0.5493,-0.2441,1,501,828,475
970048928,190390,-0.0317,-0.0298,1.0220,-0.3662,0.6714,-0.2441,1,480,889,475
970053927,190391,-0.0327,-0.0293,1.0239,-0.3662,0.7324,-0.2441,1,494,834,475
970058930,190392,-0.0322,-0.0288,1.0244,-0.3662,0.6714,-0.1831,1,481,857,475
970063930,190393,-0.0308,-0.0288,1.0239,-0.3662,0.5493,-0.3052,1,493,857,475
970068926,190394,-0.0303,-0.0298,1.0225,-0.3662,0.6104,-0.3662,1,466,850,475
970073925,190395,-0.0308,-0.0308,1.0210,-0.3662,0.5493,-0.1831,1,466,873,475
970078931,190396,-0.0327,-0.0308,1.0205,-0.4272,0.5493,-0.1221,1,466,877,475
970083926,190397,-0.0337,-0.0308,1.0215,-0.3662,0.4883,-0.2441,1,466,879,475
970088929,190398,-0.0337,-0.0308,1.0234,-0.4883,0.4883,-0.1831,1,465,878,475
970093923,190399,-0.0322,-0.0312,1.0259,-0.4272,0.6714,-0.1831,1,466,878,475
970098928,190400,-0.0317,-0.0312,1.0249,-0.3662,0.6104,-0.3052,1,466,908,475
970103928,190401,-0.0317,-0.0303,1.0225,-0.3052,0.5493,-0.2441,1,465,903,475
970108943,190402,-0.0317,-0.0298,1.0225,-0.3662,0.4272,-0.1831,1,466,877,475
970113925,190403,-0.0322,-0.0308,1.0234,-0.3662,0.4272,-0.1221,1,466,884,475
970118935,190404,-0.0327,-0.0322,1.0234,-0.3052,0.4272,-0.1831,1,483,880,475
970123925,190405,-0.0322,-0.0322,1.0234,-0.3052,0.5493,-0.1221,1,465,881,475
970128926,190406,-0.0312,-0.0317,1.0239,-0.2441,0.6104,-0.0610,1,509,868,475
970133930,190407,-0.0312,-0.0317,1.0244,-0.1221,0.5493,-0.1221,1,469,855,475
970138926,190408,-0.0312,-0.0322,1.0234,-0.3052,0.4883,-0.1831,1,486,930,475
970143929,190409,-0.0317,-0.0332,1.0215,-0.1221,0.4883,-0.0610,1,468,827,475
970148924,190410,-0.0327,-0.0337,1.0210,-0.1221,0.5493,-0.1221,1,491,844,475
970153923,190411,-0.0327,-0.0327,1.0215,-0.1831,0.4883,-0.1831,1,496,826,475
970158929,190412,-0.0322,-0.0312,1.0229,-0.1831,0.4272,-0.1221,1,475,864,475
970163928,190413,-0.0322,-0.0298,1.0234,-0.1831,0.5493,-0.0610,1,485,860,475
970168925,190414,-0.0322,-0.0308,1.0225,-0.2441,0.5493,-0.0610,1,509,836,475
970173928,190415,-0.0322,-0.0317,1.0215,-0.1831,0.4883,-0.0610,1,474,849,475
970178922,190416,-0.0312,-0.0312,1.0225,-0.1221,0.5493,-0.0610,1,493,850,475
970183929,190417,-0.0303,-0.0303,1.0254,-0.1831,0.7324,-0.1221,1,466,926,475
970188925,190418,-0.0312,-0.0298,1.0269,-0.1831,0.7324,0.0000,1,466,873,475
970193930,190419,-0.0312,-0.0308,1.0264,-0.1831,0.6714,-0.0610,1,466,861,475
970198927,190420,-0.0298,-0.0312,1.0249,-0.1831,0.7324,-0.0610,1,465,900,475
970203931,190421,-0.0288,-0.0312,1.0229,-0.1831,0.9155,-0.1831,1,466,906,475
970208930,190422,-0.0288,-0.0312,1.0229,-0.1831,0.7935,-0.0610,1,466,912,475
970213925,190423,-0.0303,-0.0322,1.0249,-0.1831,0.9766,-0.1221,1,466,907,475
970218930,190424,-0.0312,-0.0322,1.0264,-0.2441,1.0376,-0.1221,1,466,877,475
970223940,190425,-0.0322,-0.0312,1.0254,-0.3052,0.9155,-0.1221,1,466,905,475
970228930,190426,-0.0317,-0.0303,1.0249,-0.2441,1.1597,-0.0610,1,466,901,475
970233923,190427,-0.0317,-0.0303,1.0239,-0.3052,1.2207,0.0610,1,484,880,475
970238922,190428,-0.0317,-0.0298,1.0225,-0.3662,1.1597,0.0000,1,476,863,475
970243925,190429,-0.0327,-0.0298,1.0220,-0.4883,1.3428,-0.0610,1,510,785,475
970248925,190430,-0.0337,-0.0317,1.0220,-0.4272,1.1597,-0.1221,1,481,901,475
970253929,190431,-0.0342,-0.0332,1.0220,-0.1831,1.0376,0.0610,1,504,789,475
970258928,190432,-0.0347,-0.0317,1.0210,0.0000,1.0376,0.0610,1,478,847,475
970263930,190433,-0.0361,-0.0308,1.0181,-0.1831,0.9766,0.0610,1,484,780,475
970268930,190434,-0.0371,-0.0322,1.0156,-0.2441,0.7935,-0.1221,1,482,825,475
970273923,190435,-0.0371,-0.0332,1.0166,-0.0610,0.6104,-0.0610,1,484,855,475
970278927,190436,-0.0356,-0.0322,1.0190,0.0610,0.4272,-0.0610,1,495,829,475
970283927,190437,-0.0332,-0.0308,1.0210,0.0610,0.5493,-0.1221,1,479,850,475
970288924,190438,-0.0322,-0.0298,1.0229,0.0000,0.7324,-0.1221,1,492,842,475
970293923,190439,-0.0327,-0.0303,1.0244,-0.0610,0.6104,-0.0610,1,466,831,475
970298924,190440,-0.0332,-0.0317,1.0239,-0.1221,0.6714,-0.1831,1,466,873,475
970303923,190441,-0.0347,-0.0322,1.0229,-0.0610,0.7324,-0.1221,1,466,882,475
970308929,190442,-0.0332,-0.0317,1.0229,0.0610,0.6104,-0.1221,1,466,878,475
970313930,190443,-0.0317,-0.0312,1.0225,0.0610,0.7324,-0.1831,1,466,875,475
970318923,190444,-0.0322,-0.0317,1.0210,0.0000,0.6714,-0.1831,1,466,905,475
970323928,190445,-0.0337,-0.0332,1.0200,0.0000,0.6104,-0.1221,1,466,834,475
970328926,190446,-0.0347,-0.0342,1.0195,0.0000,0.6104,-0.1831,1,466,827,475
970333929,190447,-0.0347,-0.0332,1.0195,0.0000,0.5493,-0.1831,1,466,830,475
970338928,190448,-0.0332,-0.0303,1.0200,-0.0610,0.5493,-0.2441,1,466,838,475
970343940,190449,-0.0337,-0.0293,1.0195,-0.0610,0.6714,-0.0610,1,465,877,475
970348925,190450,-0.0361,-0.0312,1.0171,-0.0610,0.5493,-0.1221,1,471,863,475
970353928,190451,-0.0371,-0.0332,1.0161,-0.0610,0.4272,-0.1831,1,511,888,475
970358925,190452,-0.0356,-0.0347,1.0171,0.0610,0.2441,-0.1831,1,489,909,475
970363926,190453,-0.0342,-0.0342,1.0190,0.1221,0.2441,-0.2441,1,470,756,475
970368931,190454,-0.0337,-0.0327,1.0210,0.1221,0.2441,-0.3662,1,492,764,475
970373930,190455,-0.0332,-0.0308,1.0220,0.1221,0.3052,-0.2441,1,487,847,475
970378930,190456,-0.0337,-0.0312,1.0220,0.1831,0.2441,-0.2441,1,493,824,475
970383929,190457,-0.0352,-0.0317,1.0210,0.0610,0.3052,-0.2441,1,494,861,475
970388929,190458,-0.0356,-0.0312,1.0210,0.0610,0.1831,-0.2441,1,504,825,475
970393929,190459,-0.0337,-0.0308,1.0215,0.0610,0.0610,-0.2441,1,492,858,475
970398928,190460,-0.0322,-0.0322,1.0220,0.0610,0.1831,-0.3052,1,493,844,475
970403922,190461,-0.0322,-0.0322,1.0229,0.1221,0.2441,-0.1831,1,466,849,475
970408922,190462,-0.0337,-0.0317,1.0234,0.0610,0.3052,-0.2441,1,466,883,475
970413926,190463,-0.0332,-0.0317,1.0234,0.2441,0.3052,-0.3052,1,466,879,475
970418931,190464,-0.0327,-0.0327,1.0229,0.3052,0.1831,-0.3052,1,466,879,475
970423926,190465,-0.0332,-0.0322,1.0234,0.1831,0.1831,-0.3052,1,466,880,475
970428925,190466,-0.0327,-0.0308,1.0249,0.1221,0.2441,-0.2441,1,466,884,475
970433930,190467,-0.0327,-0.0303,1.0244,0.1831,0.3052,-0.1831,1,466,879,475
970438928,190468,-0.0342,-0.0312,1.0225,0.1221,0.2441,-0.3052,1,466,880,475
970443925,190469,-0.0337,-0.0317,1.0225,0.1221,0.3052,-0.3052,1,466,898,475
970448930,190470,-0.0322,-0.0308,1.0220,0.1221,0.3662,-0.4272,1,483,868,475
970453957,190471,-0.0322,-0.0293,1.0225,0.1221,0.2441,-0.3662,1,466,874,475
970458923,190472,-0.0327,-0.0293,1.0234,0.1831,0.4272,-0.1831,1,466,867,475
970463931,190473,-0.0332,-0.0312,1.0229,0.1221,0.4883,-0.2441,1,465,883,475
970468929,190474,-0.0322,-0.0337,1.0234,0.1221,0.3662,-0.2441,1,500,855,475
970473924,190475,-0.0317,-0.0337,1.0239,0.1831,0.4272,-0.1831,1,503,794,475
970478923,190476,-0.0327,-0.0317,1.0249,0.1831,0.5493,-0.3052,1,490,856,475
970483929,190477,-0.0337,-0.0308,1.0259,0.1221,0.4272,-0.2441,1,474,836,475
970488930,190478,-0.0342,-0.0317,1.0259,0.0610,0.5493,-0.1831,1,493,827,475
970493925,190479,-0.0337,-0.0322,1.0249,0.1221,0.6104,-0.2441,1,489,853,475
970498927,190480,-0.0322,-0.0317,1.0254,0.1221,0.6104,-0.3052,1,474,830,475
970503924,190481,-0.0312,-0.0308,1.0269,0.0610,0.7324,-0.3662,1,470,843,475
970508922,190482,-0.0308,-0.0298,1.0273,0.0610,0.8545,-0.3662,1,493,873,475
970513923,190483,-0.0312,-0.0308,1.0278,-0.0610,0.9766,-0.2441,1,466,875,475
970518926,190484,-0.0332,-0.0308,1.0269,0.0610,1.0986,-0.3052,1,466,902,475
970523927,190485,-0.0327,-0.0308,1.0254,0.0610,1.0986,-0.3052,1,465,873,475
970528929,190486,-0.0308,-0.0317,1.0244,-0.0610,1.1597,-0.1831,1,466,873,475
970533925,190487,-0.0308,-0.0337,1.0234,-0.1831,1.2817,-0.1831,1,466,880,475
970538924,190488,-0.0332,-0.0347,1.0205,0.0610,1.2817,-0.3052,1,466,883,475
970543926,190489,-0.0352,-0.0337,1.0200,0.1831,1.1597,-0.3052,1,466,878,475
970548924,190490,-0.0312,-0.0293,1.0264,0.0610,1.4648,-0.2441,1,466,873,475
970553926,190491,-0.0322,-0.0308,1.0244,0.0610,1.2207,-0.1221,1,466,906,475
970558922,190492,-0.0327,-0.0298,1.0234,0.1831,1.4038,-0.1831,1,465,875,475
970563924,190493,-0.0347,-0.0293,1.0225,0.0610,1.4648,-0.2441,1,467,874,475
970568925,190494,-0.0356,-0.0303,1.0200,0.1221,1.4038,-0.3052,1,465,876,475
970573923,190495,-0.0352,-0.0327,1.0190,0.2441,1.5869,-0.3052,1,479,812,475
970578923,190496,-0.0347,-0.0342,1.0210,0.1221,1.4648,-0.1831,1,507,786,475
970583927,190497,-0.0342,-0.0347,1.0229,0.2441,1.4648,-0.2441,1,487,855,475
970588926,190498,-0.0337,-0.0312,1.0225,0.3662,1.5869,-0.2441,1,504,855,475
970593924,190499,-0.0356,-0.0303,1.0200,0.4272,1.5869,-0.2441,1,490,861,475
970598926,190500,-0.0371,-0.0342,1.0176,0.3662,1.3428,-0.1221,1,490,854,475
970603924,190501,-0.0366,-0.0356,1.0171,0.6714,1.3428,-0.1221,1,504,829,475
970608924,190502,-0.0356,-0.0332,1.0190,0.6104,1.2817,-0.3052,1,491,846,475
970613925,190503,-0.0352,-0.0308,1.0215,0.4883,1.2817,-0.3052,1,493,848,475
970618922,190504,-0.0356,-0.0303,1.0210,0.6714,1.4648,-0.2441,1,466,870,475
970623928,190505,-0.0361,-0.0317,1.0200,0.5493,1.4038,-0.2441,1,466,880,475
970628922,190506,-0.0361,-0.0342,1.0190,0.7324,1.4648,-0.3052,1,466,887,475
970633930,190507,-0.0361,-0.0342,1.0200,0.8545,1.4648,-0.1831,1,466,881,475
970638927,190508,-0.0347,-0.0322,1.0225,0.6714,1.4648,-0.1831,1,466,881,475
970643925,190509,-0.0337,-0.0327,1.0234,0.7324,1.4038,-0.2441,1,466,883,475
970648927,190510,-0.0347,-0.0342,1.0229,1.0986,1.4038,-0.0610,1,466,887,475
970653931,190511,-0.0361,-0.0337,1.0220,1.0986,1.5259,-0.0610,1,466,879,475
970658930,190512,-0.0371,-0.0332,1.0210,1.2817,1.4648,0.0000,1,466,879,475
970663930,190513,-0.0366,-0.0337,1.0195,1.4648,1.5869,-0.0610,1,483,839,475
970668947,190514,-0.0371,-0.0332,1.0200,1.7090,1.5259,-0.0610,1,466,882,475
970673929,190515,-0.0381,-0.0317,1.0205,1.7090,1.5259,0.0610,1,484,866,475
970678931,190516,-0.0381,-0.0308,1.0205,1.7090,1.2817,0.0000,1,492,872,475
970683927,190517,-0.0376,-0.0308,1.0210,1.7700,1.2207,-0.0610,1,487,705,475
970688929,190518,-0.0376,-0.0312,1.0205,1.8311,1.4038,0.0610,1,468,841,475
970693928,190519,-0.0371,-0.0317,1.0200,1.7090,1.2817,0.0000,1,495,879,475
970698930,190520,-0.0371,-0.0317,1.0210,1.7700,1.1597,0.0000,1,495,787,475
970703928,190521,-0.0366,-0.0288,1.0220,1.7700,1.1597,0.0000,1,496,812,475
970708923,190522,-0.0366,-0.0269,1.0229,1.6479,1.5259,-0.0610,1,495,788,475
970713926,190523,-0.0381,-0.0264,1.0215,1.7090,1.3428,0.0610,1,481,834,475
970718923,190524,-0.0376,-0.0278,1.0205,1.5869,1.2817,0.0610,1,481,842,475
970723931,190525,-0.0361,-0.0308,1.0220,1.5259,1.3428,0.0000,1,493,854,475
970728926,190526,-0.0361,-0.0308,1.0239,1.7090,1.2817,0.0610,1,466,831,475
970733931,190527,-0.0347,-0.0264,1.0244,1.4648,1.4038,0.1831,1,466,879,475
970738923,190528,-0.0332,-0.0205,1.0244,1.1597,1.7090,0.1831,1,466,884,475
970743930,190529,-0.0352,-0.0195,1.0220,0.9766,1.8311,0.2441,1,466,882,475
970748930,190530,-0.0391,-0.0264,1.0186,0.7935,1.8311,0.2441,1,466,876,475
970753926,190531,-0.0405,-0.0327,1.0176,1.1597,1.7090,0.1831,1,466,872,475
970758927,190532,-0.0386,-0.0298,1.0195,1.2207,1.7090,0.1831,1,466,881,475
970763930,190533,-0.0366,-0.0234,1.0220,0.9766,1.7090,0.3052,1,466,879,475
970768927,190534,-0.0361,-0.0220,1.0244,0.6104,1.8311,0.2441,1,466,872,475
970773928,190535,-0.0366,-0.0264,1.0259,0.4272,1.8311,0.3052,1,483,877,475
970778957,190536,-0.0366,-0.0298,1.0254,0.5493,1.8311,0.4272,1,465,863,475
970783922,190537,-0.0366,-0.0288,1.0239,0.6714,1.7700,0.3662,1,475,867,475
970788924,190538,-0.0371,-0.0288,1.0220,0.4883,1.8311,0.4272,1,468,910,475
970793929,190539,-0.0391,-0.0298,1.0200,0.6104,1.7700,0.4272,1,493,918,475
970798922,190540,-0.0391,-0.0298,1.0205,0.7324,1.7090,0.4883,1,469,747,475
970803927,190541,-0.0391,-0.0298,1.0229,0.7324,1.7700,0.4272,1,501,851,475
970808927,190542,-0.0376,-0.0308,1.0244,0.6714,1.7700,0.4883,1,496,831,475
970813923,190543,-0.0356,-0.0332,1.0234,0.6714,2.0142,0.4272,1,498,826,475
970818923,190544,-0.0347,-0.0342,1.0220,0.9766,2.2583,0.5493,1,494,835,475
970823930,190545,-0.0366,-0.0332,1.0195,1.2207,2.4414,0.4272,1,501,831,475
970828929,190546,-0.0405,-0.0308,1.0161,1.2817,2.2583,0.6714,1,477,860,475
970833926,190547,-0.0430,-0.0288,1.0142,1.4648,2.2583,0.5493,1,493,853,475
970838926,190548,-0.0425,-0.0278,1.0151,1.4648,2.3193,0.5493,1,466,884,475
970843922,190549,-0.0410,-0.0269,1.0171,1.4648,2.4414,0.6714,1,466,888,475
970848927,190550,-0.0405,-0.0269,1.0171,1.5869,2.4414,0.6104,1,466,880,475
970853930,190551,-0.0410,-0.0273,1.0146,1.7090,2.4414,0.5493,1,466,877,475
970858929,190552,-0.0420,-0.0259,1.0142,1.7700,2.5635,0.6104,1,466,884,475
970863929,190553,-0.0405,-0.0239,1.0181,1.6479,2.5635,0.5493,1,466,873,475
970868925,190554,-0.0381,-0.0234,1.0220,1.6479,2.6245,0.6104,1,466,882,475
970873927,190555,-0.0371,-0.0239,1.0229,1.5259,2.9297,0.6714,1,466,878,475
970878925,190556,-0.0381,-0.0229,1.0210,1.3428,3.1128,0.7935,1,466,883,475
970883923,190557,-0.0386,-0.0200,1.0181,1.2207,3.1128,0.8545,1,483,875,475
970888947,190558,-0.0386,-0.0190,1.0190,1.1597,3.2959,0.8545,1,466,862,475
970893923,190559,-0.0366,-0.0220,1.0210,0.9155,3.6011,0.9155,1,479,865,475
970898925,190560,-0.0366,-0.0234,1.0195,0.9766,4.1504,0.9766,1,465,904,475
970903923,190561,-0.0396,-0.0225,1.0142,0.8545,4.3945,0.9766,1,507,901,475
970908928,190562,-0.0420,-0.0225,1.0107,0.7324,4.4556,0.9155,1,510,794,475
970913925,190563,-0.0415,-0.0229,1.0122,0.9155,4.6997,1.0376,1,484,848,475
970918924,190564,-0.0386,-0.0229,1.0161,0.8545,5.1880,0.9766,1,489,838,475
970923924,190565,-0.0366,-0.0215,1.0176,0.8545,5.6152,0.9766,1,493,832,475
970928924,190566,-0.0371,-0.0186,1.0161,0.7935,6.2866,0.9766,1,487,851,475
970933929,190567,-0.0410,-0.0171,1.0146,0.6104,6.7139,1.0376,1,499,833,475
970938928,190568,-0.0444,-0.0195,1.0156,0.5493,6.8970,1.0376,1,473,846,475
970943927,190569,-0.0444,-0.0244,1.0200,0.5493,6.8359,1.0376,1,493,853,475
970948926,190570,-0.0435,-0.0288,1.0254,0.6104,7.0801,1.0376,1,465,881,475
970953926,190571,-0.0435,-0.0308,1.0298,0.7324,7.0190,1.0986,1,466,867,475
970958928,190572,-0.0454,-0.0308,1.0312,0.9155,7.1411,1.0986,1,465,876,475
970963925,190573,-0.0493,-0.0288,1.0283,1.0376,7.0190,0.9766,1,466,913,475
970968931,190574,-0.0552,-0.0264,1.0225,1.2207,6.7139,0.9155,1,466,880,475
970973926,190575,-0.0571,-0.0264,1.0200,1.1597,6.1035,0.6714,1,466,879,475
970978927,190576,-0.0527,-0.0303,1.0244,1.2207,5.8594,0.5493,1,466,877,475
970983925,190577,-0.0488,-0.0293,1.0303,1.5259,5.9204,0.4883,1,466,883,475
970988927,190578,-0.0498,-0.0244,1.0322,1.5869,5.7373,0.4272,1,466,878,475
970993924,190579,-0.0518,-0.0220,1.0308,1.3428,5.6152,0.2441,1,484,890,475
970998957,190580,-0.0527,-0.0234,1.0278,1.4038,5.2490,0.1221,1,465,868,475
971003924,190581,-0.0537,-0.0220,1.0249,1.5259,4.8218,0.0000,1,465,870,475
971008929,190582,-0.0552,-0.0161,1.0229,1.4648,4.6387,-0.0610,1,511,862,475
971013930,190583,-0.0576,-0.0122,1.0229,1.0986,4.3945,-0.2441,1,479,922,475
971018923,190584,-0.0581,-0.0122,1.0254,0.7935,4.0894,-0.2441,1,503,878,475
971023928,190585,-0.0566,-0.0156,1.0283,0.5493,3.6621,-0.3662,1,491,860,475
971028923,190586,-0.0552,-0.0181,1.0293,0.3052,3.3569,-0.2441,1,489,843,475
971033929,190587,-0.0566,-0.0176,1.0259,0.1221,3.0518,-0.2441,1,496,829,475
971038926,190588,-0.0591,-0.0171,1.0210,-0.1831,2.8076,-0.3052,1,491,849,475
971043927,190589,-0.0605,-0.0190,1.0181,-0.3662,2.6245,-0.3052,1,498,823,475
971048923,190590,-0.0605,-0.0234,1.0161,-0.3662,2.5635,-0.3052,1,487,848,475
971053927,190591,-0.0610,-0.0293,1.0146,-0.1831,2.1362,-0.4272,1,493,850,475
971058925,190592,-0.0610,-0.0347,1.0142,0.1221,1.7700,-0.4272,1,466,887,475
971063925,190593,-0.0601,-0.0361,1.0127,0.4883,1.5869,-0.4272,1,466,875,475
971068922,190594,-0.0601,-0.0322,1.0073,0.7324,1.5869,-0.4883,1,466,877,475
971073927,190595,-0.0620,-0.0293,1.0024,1.0376,1.2817,-0.4272,1,466,880,475
971078923,190596,-0.0635,-0.0312,1.0015,1.5259,1.0986,-0.4272,1,466,880,475
971083923,190597,-0.0620,-0.0371,1.0049,2.0142,0.9766,-0.4272,1,466,903,475
971088928,190598,-0.0576,-0.0410,1.0098,2.6855,0.8545,-0.4883,1,466,878,475
971093931,190599,-0.0552,-0.0405,1.0122,3.2959,1.1597,-0.5493,1,466,878,475
971098929,190600,-0.0552,-0.0376,1.0107,3.8452,1.2817,-0.6104,1,466,882,475
971103924,190601,-0.0552,-0.0352,1.0098,4.4556,1.4038,-0.7324,1,483,881,475
971108925,190602,-0.0552,-0.0317,1.0117,4.9438,1.5259,-0.7935,1,466,875,475
971113922,190603,-0.0557,-0.0288,1.0117,5.3711,1.5259,-0.7935,1,484,872,475
971118925,190604,-0.0557,-0.0293,1.0107,5.7373,1.7700,-0.9155,1,510,822,475
971123926,190605,-0.0552,-0.0312,1.0103,6.1646,1.8921,-0.9155,1,473,920,475
971128924,190606,-0.0552,-0.0303,1.0103,6.7139,1.9531,-0.9766,1,495,940,475
971133925,190607,-0.0547,-0.0259,1.0122,7.0190,2.1362,-0.9155,1,479,770,475
971138925,190608,-0.0552,-0.0215,1.0151,7.1411,2.4414,-0.7935,1,474,836,475
971143924,190609,-0.0586,-0.0186,1.0156,7.2632,2.3193,-0.9155,1,494,837,475
971148930,190610,-0.0635,-0.0200,1.0112,7.4463,2.2583,-0.9155,1,494,837,475
971153925,190611,-0.0664,-0.0259,1.0059,7.7515,1.7090,-1.0376,1,497,837,475
971158929,190612,-0.0664,-0.0249,1.0034,8.0566,1.2207,-1.0376,1,488,827,475
971163927,190613,-0.0664,-0.0137,1.0029,8.4839,1.1597,-0.9155,1,484,853,475
971168925,190614,-0.0654,-0.0054,1.0059,8.1787,0.6104,-0.9766,1,494,853,475
971173929,190615,-0.0596,-0.0073,1.0103,7.9956,0.4272,-0.9155,1,466,869,475
971178924,190616,-0.0576,-0.0098,1.0122,8.1787,0.7324,-0.9155,1,466,879,475
971183924,190617,-0.0605,-0.0083,1.0122,7.9956,0.3052,-0.9766,1,465,885,475
971188927,190618,-0.0601,-0.0054,1.0137,7.7515,0.0610,-1.0376,1,466,877,475
971193923,190619,-0.0552,-0.0029,1.0181,7.6904,0.0610,-0.9155,1,466,868,475
971198929,190620,-0.0537,-0.0054,1.0200,7.5073,0.3052,-0.8545,1,466,872,475
971203925,190621,-0.0576,-0.0112,1.0195,7.6294,0.1221,-1.0986,1,466,872,475
971208923,190622,-0.0605,-0.0156,1.0186,8.0566,-0.3052,-1.2817,1,466,882,475
971213927,190623,-0.0625,-0.0122,1.0166,8.2397,-0.4883,-1.4648,1,466,879,475
971218922,190624,-0.0635,-0.0054,1.0166,8.1787,-0.9155,-1.5869,1,483,887,475
971223937,190625,-0.0635,-0.0024,1.0181,8.3008,-1.3428,-1.6479,1,465,881,475
971228927,190626,-0.0640,0.0000,1.0176,8.4229,-1.5869,-1.7700,1,475,861,475
971233924,190627,-0.0635,0.0000,1.0151,8.4229,-2.1973,-2.0752,1,510,788,475
971238924,190628,-0.0615,-0.0029,1.0142,8.5449,-2.6245,-2.3193,1,469,758,475
971243928,190629,-0.0625,-0.0039,1.0137,8.8501,-2.8687,-2.3804,1,489,875,475
971248927,190630,-0.0630,-0.0039,1.0132,9.0332,-3.3569,-2.5635,1,466,851,475
971253926,190631,-0.0601,-0.0020,1.0137,9.0942,-3.7231,-2.6855,1,489,851,475
971258927,190632,-0.0586,0.0020,1.0132,9.2163,-4.0283,-2.8076,1,494,832,475
971263927,190633,-0.0566,0.0020,1.0137,9.1553,-4.3945,-2.9907,1,474,832,475
971268922,190634,-0.0532,0.0068,1.0166,8.9722,-4.5166,-2.9297,1,499,862,475
971273925,190635,-0.0537,0.0186,1.0195,8.4229,-4.6387,-3.0518,1,483,856,475
