t_us, seq, ax, ay, az, gx, gy, gz, valid, t_imu_us, t_serial_us, missed
57727541,10,-0.0405,0.0381,1.0146,-0.5493,0.4883,-0.2441,1,494,845,0
57732536,11,-0.0415,0.0381,1.0156,-0.4272,0.4272,-0.2441,1,466,845,0
57737537,12,-0.0405,0.0386,1.0181,-0.4272,0.3052,-0.1831,1,466,876,0
57742536,13,-0.0386,0.0386,1.0186,-0.3052,0.2441,-0.1831,1,465,868,0
57747539,14,-0.0381,0.0376,1.0181,-0.1221,0.3052,-0.2441,1,466,900,0
57752559,15,-0.0376,0.0391,1.0205,-0.1831,0.1831,-0.1831,1,466,861,0
57757542,16,-0.0371,0.0415,1.0239,-0.2441,0.4883,-0.1221,1,466,874,0
57762540,17,-0.0376,0.0405,1.0234,-0.1831,0.5493,-0.1831,1,484,904,0
57767540,18,-0.0386,0.0386,1.0195,-0.1831,0.4272,-0.2441,1,480,868,0
57772543,19,-0.0391,0.0361,1.0151,0.0000,0.3052,-0.1831,1,466,876,0
57777569,20,-0.0386,0.0356,1.0146,0.2441,0.2441,-0.1221,1,474,812,0
57782534,21,-0.0381,0.0371,1.0171,0.3662,0.2441,-0.0610,1,479,865,0
57787542,22,-0.0386,0.0391,1.0181,0.4272,0.3052,-0.1831,1,501,859,0
57792535,23,-0.0405,0.0415,1.0181,0.5493,0.2441,-0.3052,1,477,786,0
57797540,24,-0.0415,0.0396,1.0171,0.4272,0.1831,-0.1221,1,465,833,0
57802540,25,-0.0405,0.0361,1.0161,0.6104,0.0610,-0.0610,1,496,821,0
57807535,26,-0.0396,0.0366,1.0156,0.7935,0.0610,0.0000,1,490,821,0
57812543,27,-0.0400,0.0400,1.0176,0.7324,0.0610,-0.1221,1,490,796,0
57817538,28,-0.0405,0.0435,1.0205,0.7324,0.0000,-0.2441,1,485,833,0
57822537,29,-0.0405,0.0435,1.0200,0.6104,0.0000,-0.1831,1,480,798,0
57827543,30,-0.0396,0.0415,1.0200,0.7324,0.0610,-0.1831,1,493,794,0
57832534,31,-0.0376,0.0415,1.0200,0.7324,0.0000,-0.3052,1,466,871,0
57837534,32,-0.0366,0.0425,1.0195,0.5493,-0.1221,-0.2441,1,466,824,0
57842537,33,-0.0381,0.0420,1.0176,0.7935,-0.0610,-0.1831,1,466,876,0
57847539,34,-0.0396,0.0405,1.0161,0.7324,0.1221,-0.2441,1,466,868,0
57852541,35,-0.0400,0.0400,1.0166,0.8545,-0.2441,-0.2441,1,466,872,0
57857534,36,-0.0396,0.0410,1.0186,0.7935,-0.2441,-0.2441,1,483,872,0
57862534,37,-0.0396,0.0420,1.0210,0.7324,-0.3052,-0.1221,1,466,861,0
57867542,38,-0.0400,0.0430,1.0220,0.7324,-0.1831,-0.1221,1,484,855,0
57872540,39,-0.0400,0.0439,1.0225,0.6104,-0.2441,-0.0610,1,466,897,0
57877535,40,-0.0386,0.0449,1.0220,0.4883,-0.1831,-0.0610,1,479,858,0
57882538,41,-0.0381,0.0459,1.0215,0.3662,-0.1831,-0.1831,1,492,868,0
57887540,42,-0.0381,0.0459,1.0225,0.1831,-0.1221,-0.1831,1,493,870,0
57892542,43,-0.0386,0.0454,1.0229,0.2441,0.0000,-0.1221,1,497,803,0
57897537,44,-0.0386,0.0454,1.0225,0.0000,0.0610,-0.2441,1,472,781,0
57902540,45,-0.0381,0.0464,1.0225,-0.2441,0.0610,-0.3662,1,507,781,0
57907539,46,-0.0366,0.0459,1.0210,-0.4272,0.2441,-0.3662,1,477,872,0
57912535,47,-0.0366,0.0444,1.0195,-0.4883,0.2441,-0.4272,1,490,847,0
57917534,48,-0.0371,0.0425,1.0186,-0.5493,0.3052,-0.4883,1,475,850,0
57922537,49,-0.0371,0.0420,1.0186,-0.7324,0.3662,-0.3662,1,486,841,0
57927541,50,-0.0386,0.0430,1.0200,-0.6714,0.4272,-0.3662,1,492,848,0
57932535,51,-0.0396,0.0430,1.0195,-0.8545,0.4272,-0.4272,1,466,870,0
57937541,52,-0.0386,0.0415,1.0176,-0.9155,0.4272,-0.3662,1,466,874,0
57942538,53,-0.0386,0.0396,1.0171,-0.7935,0.4272,-0.4272,1,466,876,0
57947538,54,-0.0396,0.0386,1.0171,-0.7935,0.3662,-0.4272,1,466,869,0
57952535,55,-0.0396,0.0391,1.0161,-0.6104,0.2441,-0.3052,1,465,870,0
57957534,56,-0.0391,0.0410,1.0161,-0.6104,0.3052,-0.3052,1,466,866,0
57962537,57,-0.0391,0.0420,1.0166,-0.7935,0.3052,-0.3052,1,465,850,0
57967537,58,-0.0381,0.0400,1.0176,-0.6104,0.3052,-0.3052,1,485,850,0
57972540,59,-0.0381,0.0376,1.0176,-0.4883,0.1221,-0.2441,1,465,885,0
57977562,60,-0.0391,0.0361,1.0176,-0.3662,0.1221,-0.3052,1,479,855,0
57982540,61,-0.0396,0.0371,1.0176,-0.3052,0.1221,-0.2441,1,482,855,0
57987534,62,-0.0405,0.0391,1.0181,-0.1221,0.1221,-0.1831,1,508,893,0
57992540,63,-0.0391,0.0415,1.0210,-0.2441,0.1221,-0.3052,1,481,826,0
57997539,64,-0.0371,0.0410,1.0234,-0.1831,0.1221,-0.3052,1,505,769,0
58002539,65,-0.0361,0.0400,1.0220,-0.1831,0.1831,-0.1831,1,502,833,0
58007536,66,-0.0366,0.0391,1.0186,-0.2441,0.2441,-0.3052,1,480,848,0
58012535,67,-0.0376,0.0386,1.0161,-0.1831,0.2441,-0.2441,1,471,841,0
58017538,68,-0.0391,0.0391,1.0161,-0.2441,0.2441,-0.1831,1,472,850,0
58022541,69,-0.0400,0.0410,1.0171,-0.3052,0.3052,-0.3052,1,483,873,0
58027540,70,-0.0410,0.0425,1.0181,-0.4272,0.5493,-0.4272,1,484,828,0
58032541,71,-0.0410,0.0415,1.0176,-0.7324,0.5493,-0.3662,1,493,844,0
58037541,72,-0.0400,0.0400,1.0171,-0.5493,0.4883,-0.3052,1,465,906,0
58042538,73,-0.0396,0.0400,1.0166,-0.6104,0.4883,-0.3662,1,465,864,0
58047534,74,-0.0391,0.0410,1.0181,-0.8545,0.5493,-0.3662,1,466,869,0
58052542,75,-0.0391,0.0415,1.0195,-0.7935,0.5493,-0.2441,1,465,868,0
58057540,76,-0.0396,0.0415,1.0210,-0.9766,0.6714,-0.3052,1,466,874,0
58062535,77,-0.0396,0.0410,1.0205,-0.8545,0.5493,-0.2441,1,484,865,0
58067539,78,-0.0396,0.0396,1.0190,-0.9766,0.6104,-0.3052,1,465,863,0
58072538,79,-0.0386,0.0386,1.0181,-0.9766,0.7324,-0.3662,1,484,806,0
58077539,80,-0.0376,0.0381,1.0176,-0.7935,0.6714,-0.2441,1,474,897,0
58082550,81,-0.0396,0.0400,1.0166,-0.6104,0.6714,-0.3662,1,479,856,0
58087538,82,-0.0400,0.0376,1.0146,-0.6104,0.5493,-0.2441,1,472,894,0
58092536,83,-0.0400,0.0347,1.0137,-0.3052,0.4272,-0.2441,1,493,870,0
58097541,84,-0.0400,0.0347,1.0161,-0.1221,0.4272,-0.2441,1,496,849,0
58102539,85,-0.0400,0.0376,1.0186,0.0000,0.6104,-0.2441,1,468,834,0
58107539,86,-0.0400,0.0410,1.0190,0.0000,0.5493,-0.2441,1,502,775,0
58112539,87,-0.0405,0.0425,1.0195,0.0610,0.3052,-0.3052,1,489,797,0
58117541,88,-0.0400,0.0410,1.0200,0.2441,0.3662,-0.3662,1,489,834,0
58122541,89,-0.0396,0.0396,1.0190,0.1831,0.2441,-0.3052,1,475,844,0
58127535,90,-0.0400,0.0396,1.0171,0.3662,0.2441,-0.3662,1,484,872,0
58132535,91,-0.0396,0.0381,1.0171,0.4272,0.1831,-0.3662,1,491,843,0
58137536,92,-0.0396,0.0391,1.0190,0.5493,0.2441,-0.2441,1,466,841,0
58142534,93,-0.0400,0.0425,1.0210,0.6104,0.1831,-0.1831,1,466,872,0
58147537,94,-0.0386,0.0435,1.0239,0.4272,0.0610,-0.2441,1,466,868,0
58152540,95,-0.0371,0.0430,1.0234,0.4883,0.3052,-0.3052,1,466,874,0
58157543,96,-0.0376,0.0439,1.0220,0.3662,0.3052,-0.2441,1,466,866,0
58162534,97,-0.0386,0.0439,1.0210,0.3052,0.0610,-0.1831,1,466,873,0
58167539,98,-0.0396,0.0439,1.0215,0.1221,0.1221,-0.3052,1,484,867,0
58172536,99,-0.0396,0.0439,1.0215,0.1221,0.1221,-0.3662,1,466,851,0
58177538,100,-0.0400,0.0425,1.0210,-0.1831,0.1221,-0.3052,1,484,810,0
58182537,101,-0.0405,0.0405,1.0210,-0.2441,0.0000,-0.1831,1,472,903,0
58187548,102,-0.0400,0.0400,1.0205,-0.1221,-0.0610,-0.1831,1,477,825,0
58192537,103,-0.0391,0.0405,1.0186,-0.1221,0.0610,-0.2441,1,468,891,0
58197538,104,-0.0381,0.0420,1.0181,-0.0610,0.0610,-0.3052,1,504,855,0
58202538,105,-0.0381,0.0420,1.0181,-0.1831,0.1221,-0.3052,1,485,785,0
58207539,106,-0.0391,0.0405,1.0176,-0.1831,0.0610,-0.3052,1,465,824,0
58212534,107,-0.0396,0.0400,1.0176,-0.1831,0.0610,-0.3662,1,492,827,0
58217539,108,-0.0386,0.0405,1.0190,-0.2441,0.2441,-0.4272,1,486,824,0
58222542,109,-0.0371,0.0430,1.0234,-0.1831,0.1221,-0.3662,1,482,848,0
58227534,110,-0.0356,0.0439,1.0264,-0.3052,0.1831,-0.4272,1,487,868,0
58232540,111,-0.0361,0.0415,1.0239,-0.4272,0.1831,-0.4272,1,486,876,0
58237536,112,-0.0381,0.0386,1.0190,-0.5493,0.1831,-0.3662,1,486,853,0
58242542,113,-0.0396,0.0366,1.0142,-0.5493,0.3052,-0.3052,1,465,847,0
58247541,114,-0.0405,0.0361,1.0117,-0.3662,0.3052,-0.4272,1,466,866,0
58252534,115,-0.0415,0.0361,1.0127,-0.3052,0.2441,-0.3052,1,466,876,0
58257535,116,-0.0415,0.0371,1.0142,-0.1831,0.1221,-0.3662,1,466,872,0
58262536,117,-0.0400,0.0391,1.0156,-0.2441,0.0610,-0.3052,1,466,875,0
58267536,118,-0.0386,0.0400,1.0176,-0.2441,0.1831,-0.4272,1,466,865,0
58272539,119,-0.0381,0.0400,1.0195,-0.2441,0.1831,-0.3662,1,484,873,0
58277542,120,-0.0386,0.0400,1.0195,-0.1831,0.3052,-0.3052,1,465,864,0
58282535,121,-0.0396,0.0400,1.0181,-0.3052,0.2441,-0.2441,1,484,809,0
58287540,122,-0.0410,0.0405,1.0176,-0.5493,0.1831,-0.1221,1,477,896,0
58292559,123,-0.0410,0.0400,1.0186,-0.3662,0.2441,-0.2441,1,479,861,0
58297542,124,-0.0400,0.0391,1.0186,0.0000,0.4272,-0.3662,1,466,871,0
58302534,125,-0.0400,0.0381,1.0190,-0.1221,0.4272,-0.4272,1,508,820,0
58307540,126,-0.0396,0.0376,1.0181,-0.3052,0.3662,-0.3662,1,496,787,0
58312534,127,-0.0391,0.0366,1.0171,-0.4883,0.4272,-0.3662,1,469,783,0
58317537,128,-0.0391,0.0356,1.0166,0.1221,0.2441,-0.3662,1,491,832,0
58322540,129,-0.0396,0.0361,1.0176,0.1221,0.1221,-0.3662,1,471,845,0
58327534,130,-0.0405,0.0386,1.0171,0.2441,0.0000,-0.2441,1,479,840,0
58332541,131,-0.0405,0.0420,1.0176,-0.3052,0.1221,-0.0610,1,473,797,0
58337542,132,-0.0391,0.0425,1.0210,-0.2441,0.1831,0.0000,1,474,834,0
58342542,133,-0.0366,0.0410,1.0239,-0.2441,0.1831,0.0000,1,493,795,0
58347536,134,-0.0352,0.0381,1.0239,-0.3662,0.3052,-0.0610,1,466,832,0
58352543,135,-0.0366,0.0371,1.0215,-0.3052,0.4883,0.0000,1,466,867,0
58357534,136,-0.0396,0.0386,1.0186,-0.3662,0.4883,-0.1221,1,466,827,0
58362536,137,-0.0410,0.0396,1.0156,-0.3052,0.5493,-0.1831,1,466,898,0
58367549,138,-0.0410,0.0391,1.0146,-0.2441,0.3662,-0.3052,1,466,874,0
58372535,139,-0.0410,0.0386,1.0161,-0.1831,0.3662,-0.1831,1,465,872,0
58377537,140,-0.0410,0.0391,1.0166,-0.0610,0.4272,-0.0610,1,484,879,0
58382536,141,-0.0405,0.0396,1.0176,-0.2441,0.3662,-0.1831,1,477,856,0
58387534,142,-0.0391,0.0400,1.0190,-0.3052,0.4883,-0.2441,1,465,818,0
58392538,143,-0.0381,0.0396,1.0190,-0.2441,0.4883,-0.2441,1,467,854,0
58397567,144,-0.0386,0.0381,1.0190,-0.0610,0.3052,-0.2441,1,465,861,0
58402542,145,-0.0391,0.0381,1.0200,0.0000,0.3052,-0.1831,1,466,891,0
58407535,146,-0.0386,0.0391,1.0200,0.0000,0.3052,-0.2441,1,471,722,0
58412536,147,-0.0381,0.0396,1.0210,-0.0610,0.3052,-0.2441,1,500,734,0
58417534,148,-0.0381,0.0396,1.0200,0.0000,0.2441,-0.1831,1,475,779,0
58422535,149,-0.0396,0.0391,1.0181,0.1831,0.1831,-0.2441,1,504,779,0
58427540,150,-0.0400,0.0386,1.0186,0.1831,0.3052,-0.1831,1,471,842,0
58432542,151,-0.0381,0.0381,1.0215,0.3052,0.1831,-0.1831,1,475,840,0
58437538,152,-0.0371,0.0376,1.0215,0.4883,0.1221,-0.2441,1,478,838,0
58442534,153,-0.0386,0.0381,1.0200,0.6104,0.1221,-0.3052,1,490,872,0
58447534,154,-0.0405,0.0376,1.0190,0.6104,0.0000,-0.4272,1,491,831,0
58452535,155,-0.0410,0.0381,1.0181,0.6714,0.0610,-0.3052,1,492,795,0
58457535,156,-0.0400,0.0415,1.0195,0.7935,-0.0610,-0.1831,1,466,859,0
58462539,157,-0.0381,0.0454,1.0229,0.5493,0.1221,-0.3052,1,466,873,0
58467534,158,-0.0376,0.0474,1.0249,0.2441,0.1221,-0.4272,1,465,870,0
58472542,159,-0.0381,0.0449,1.0239,0.1831,0.1831,-0.4272,1,466,873,0
58477542,160,-0.0391,0.0405,1.0229,0.1221,0.0610,-0.4272,1,466,878,0
58482543,161,-0.0391,0.0391,1.0229,0.2441,-0.0610,-0.4272,1,466,867,0
58487536,162,-0.0386,0.0410,1.0234,0.2441,0.0000,-0.3662,1,465,870,0
58492542,163,-0.0376,0.0444,1.0234,0.1221,0.1221,-0.4883,1,484,821,0
58497535,164,-0.0376,0.0464,1.0225,-0.1221,0.2441,-0.6104,1,465,867,0
58502535,165,-0.0386,0.0439,1.0210,-0.3052,0.2441,-0.5493,1,479,855,0
58507535,166,-0.0386,0.0405,1.0195,-0.2441,0.1221,-0.4883,1,482,861,0
58512538,167,-0.0386,0.0376,1.0176,-0.0610,0.1221,-0.3662,1,509,869,0
58517536,168,-0.0396,0.0381,1.0142,-0.5493,0.1221,-0.0610,1,467,848,0
58522538,169,-0.0400,0.0391,1.0146,-1.2207,0.1831,-0.1221,1,494,768,0
58527541,170,-0.0396,0.0391,1.0190,-0.1831,0.1831,-0.3662,1,484,803,0
58532534,171,-0.0386,0.0400,1.0220,-0.1831,0.3052,-0.6104,1,502,827,0
58537543,172,-0.0386,0.0410,1.0220,-0.3662,0.3052,-0.6714,1,480,837,0
58542534,173,-0.0391,0.0400,1.0205,-0.7324,0.2441,-0.4883,1,476,867,0
58547534,174,-0.0400,0.0386,1.0210,-0.4883,0.1831,-0.6104,1,473,870,0
58552535,175,-0.0400,0.0386,1.0215,-0.3662,0.2441,-0.5493,1,471,837,0
58557537,176,-0.0400,0.0391,1.0220,-0.3662,0.3052,-0.6714,1,491,847,0
58562541,177,-0.0396,0.0391,1.0195,-0.0610,0.0610,-0.6104,1,466,836,0
58567535,178,-0.0400,0.0381,1.0171,-0.4272,0.2441,-0.4883,1,466,862,0
58572543,179,-0.0410,0.0371,1.0151,-0.2441,0.1221,-0.4272,1,466,868,0
58577540,180,-0.0410,0.0352,1.0132,-0.7935,0.0610,-0.3052,1,466,878,0
58582552,181,-0.0410,0.0322,1.0137,-0.3052,0.1221,-0.3052,1,466,864,0
58587538,182,-0.0405,0.0327,1.0146,-0.1831,0.1831,-0.1221,1,466,863,0
58592534,183,-0.0400,0.0337,1.0151,-0.1221,0.1831,-0.1831,1,484,877,0
58597534,184,-0.0400,0.0361,1.0156,-0.1221,0.1221,-0.2441,1,477,862,0
58602541,185,-0.0396,0.0386,1.0166,-0.3052,0.2441,-0.3052,1,466,869,0
58607540,186,-0.0391,0.0386,1.0176,-0.1221,0.2441,-0.3052,1,483,896,0
58612536,187,-0.0381,0.0381,1.0190,0.0000,0.2441,-0.4272,1,466,853,0
58617535,188,-0.0381,0.0396,1.0210,-0.1221,0.2441,-0.3662,1,497,777,0
58622541,189,-0.0376,0.0410,1.0220,0.0000,0.1831,-0.3052,1,501,821,0
58627543,190,-0.0376,0.0410,1.0215,-0.0610,0.3052,-0.2441,1,482,738,0
58632538,191,-0.0381,0.0405,1.0200,-0.1831,0.4272,-0.2441,1,478,801,0
58637541,192,-0.0391,0.0400,1.0176,-0.2441,0.4272,-0.2441,1,502,826,0
58642538,193,-0.0396,0.0396,1.0166,-0.1831,0.2441,-0.2441,1,490,873,0
58647541,194,-0.0391,0.0381,1.0166,0.0000,0.3662,-0.1831,1,481,851,0
58652541,195,-0.0391,0.0391,1.0181,0.0000,0.4272,-0.1831,1,488,797,0
58657541,196,-0.0400,0.0405,1.0195,-0.2441,0.3662,-0.2441,1,490,790,0
58662538,197,-0.0400,0.0405,1.0205,-0.3662,0.4272,-0.1831,1,491,849,0
58667539,198,-0.0396,0.0386,1.0190,-0.2441,0.4272,-0.2441,1,466,875,0
58672542,199,-0.0396,0.0356,1.0176,-0.1221,0.4883,-0.3052,1,465,877,0
58677534,200,-0.0400,0.0337,1.0156,0.0610,0.4272,-0.2441,1,466,866,0
58682542,201,-0.0400,0.0337,1.0156,0.2441,0.3662,-0.1831,1,465,874,0
58687536,202,-0.0396,0.0356,1.0176,0.3052,0.3662,-0.2441,1,466,876,0
58692542,203,-0.0396,0.0371,1.0195,0.3052,0.3052,-0.1831,1,466,873,0
58697539,204,-0.0391,0.0386,1.0210,0.3052,0.4272,-0.0610,1,466,869,0
58702540,205,-0.0391,0.0400,1.0210,0.3662,0.3662,-0.2441,1,484,851,0
58707540,206,-0.0381,0.0396,1.0205,0.3052,0.2441,-0.3052,1,465,868,0
58712541,207,-0.0376,0.0396,1.0215,0.3052,0.1831,-0.1831,1,473,853,0
58717540,208,-0.0371,0.0410,1.0210,0.2441,0.3052,-0.1831,1,473,860,0
58722534,209,-0.0376,0.0425,1.0215,0.3052,0.3052,-0.1831,1,502,869,0
58727534,210,-0.0386,0.0430,1.0220,0.0610,0.4883,-0.2441,1,467,845,0
58732542,211,-0.0386,0.0405,1.0210,-0.1221,0.5493,-0.3662,1,492,838,0
58737537,212,-0.0386,0.0386,1.0205,0.0000,0.6714,-0.3662,1,480,803,0
58742536,213,-0.0400,0.0391,1.0200,-0.0610,0.5493,-0.4272,1,506,808,0
58747540,214,-0.0400,0.0400,1.0186,-0.0610,0.4272,-0.3662,1,477,840,0
58752535,215,-0.0396,0.0410,1.0166,-0.0610,0.6104,-0.4272,1,479,840,0
58757535,216,-0.0391,0.0415,1.0171,0.0000,0.4272,-0.3662,1,487,842,0
58762543,217,-0.0386,0.0410,1.0190,-0.0610,0.3662,-0.3052,1,472,795,0
58767535,218,-0.0386,0.0415,1.0210,-0.1831,0.4272,-0.3662,1,489,840,0
58772541,219,-0.0381,0.0425,1.0234,-0.2441,0.4272,-0.4272,1,466,874,0
58777541,220,-0.0376,0.0430,1.0244,-0.3662,0.6104,-0.3662,1,466,876,0
58782542,221,-0.0386,0.0430,1.0225,-0.4883,0.6714,-0.5493,1,466,875,0
58787536,222,-0.0391,0.0425,1.0195,-0.6104,0.6104,-0.5493,1,466,900,0
58792551,223,-0.0391,0.0405,1.0171,-0.6104,0.6104,-0.5493,1,466,866,0
58797535,224,-0.0391,0.0376,1.0171,-0.5493,0.6104,-0.5493,1,466,862,0
58802535,225,-0.0396,0.0371,1.0181,-0.6104,0.6104,-0.4883,1,484,896,0
58807538,226,-0.0396,0.0381,1.0200,-0.6104,0.4272,-0.4883,1,475,853,0
58812540,227,-0.0391,0.0400,1.0210,-0.6104,0.5493,-0.4883,1,484,856,0
58817535,228,-0.0391,0.0420,1.0210,-0.8545,0.4883,-0.4883,1,477,892,0
58822541,229,-0.0396,0.0430,1.0215,-0.9766,0.5493,-0.4883,1,465,853,0
58827535,230,-0.0391,0.0420,1.0234,-0.9155,0.6104,-0.4883,1,482,894,0
58832539,231,-0.0381,0.0410,1.0234,-1.0376,0.6104,-0.6104,1,492,866,0
58837535,232,-0.0386,0.0405,1.0220,-1.1597,0.7324,-0.4883,1,488,844,0
58842538,233,-0.0400,0.0396,1.0205,-1.0986,0.6714,-0.5493,1,495,778,0
58847534,234,-0.0400,0.0366,1.0186,-1.0376,0.6104,-0.6104,1,506,834,0
58852536,235,-0.0405,0.0332,1.0161,-0.9766,0.6714,-0.6104,1,478,865,0
58857540,236,-0.0405,0.0322,1.0146,-0.8545,0.7935,-0.4883,1,475,842,0
58862537,237,-0.0400,0.0332,1.0146,-0.7935,0.7935,-0.5493,1,478,871,0
58867541,238,-0.0410,0.0347,1.0146,-0.6104,0.6714,-0.4883,1,490,847,0
58872538,239,-0.0420,0.0361,1.0142,-0.4272,0.4883,-0.4272,1,491,840,0
58877542,240,-0.0430,0.0366,1.0151,-0.3662,0.3052,-0.2441,1,493,846,0
58882535,241,-0.0410,0.0352,1.0186,-0.3662,0.3052,-0.3662,1,466,903,0
58887542,242,-0.0396,0.0337,1.0200,-0.3662,0.5493,-0.4272,1,466,868,0
58892538,243,-0.0396,0.0356,1.0190,-0.1831,0.4883,-0.2441,1,465,875,0
58897538,244,-0.0405,0.0391,1.0166,-0.3052,0.3662,-0.3052,1,466,877,0
58902540,245,-0.0415,0.0400,1.0151,-0.3662,0.2441,-0.3052,1,466,866,0
58907541,246,-0.0415,0.0376,1.0161,-0.3052,0.3052,-0.3052,1,465,875,0
58912540,247,-0.0410,0.0347,1.0171,-0.2441,0.3662,-0.3662,1,466,863,0
58917543,248,-0.0410,0.0327,1.0166,-0.2441,0.3662,-0.3662,1,484,864,0
58922538,249,-0.0415,0.0317,1.0171,-0.0610,0.3052,-0.3052,1,465,881,0
58927537,250,-0.0415,0.0317,1.0171,0.2441,0.2441,-0.3052,1,477,854,0
58932539,251,-0.0420,0.0317,1.0151,0.3662,0.2441,-0.2441,1,482,863,0
58937542,252,-0.0420,0.0342,1.0146,0.5493,0.1831,-0.0610,1,481,868,0
58942540,253,-0.0410,0.0376,1.0186,0.4883,0.0610,-0.0610,1,466,854,0
58947537,254,-0.0391,0.0400,1.0229,0.4272,0.0610,-0.1221,1,495,771,0
58952535,255,-0.0391,0.0396,1.0229,0.4272,0.2441,-0.1831,1,493,771,0
58957536,256,-0.0400,0.0366,1.0205,0.4272,0.3052,-0.1221,1,478,827,0
58962542,257,-0.0396,0.0347,1.0181,0.4883,0.2441,-0.0610,1,484,838,0
58967534,258,-0.0391,0.0361,1.0186,0.6714,0.1221,-0.1221,1,489,838,0
58972535,259,-0.0386,0.0400,1.0210,0.6104,0.1221,-0.0610,1,482,865,0
58977537,260,-0.0381,0.0430,1.0225,0.4272,0.1221,-0.1221,1,490,831,0
58982539,261,-0.0386,0.0415,1.0220,0.1831,0.1831,-0.1221,1,493,834,0
58987537,262,-0.0391,0.0381,1.0215,0.1831,0.3052,-0.1221,1,466,873,0
58992537,263,-0.0400,0.0356,1.0200,0.3052,0.4272,-0.2441,1,466,859,0
58997537,264,-0.0410,0.0361,1.0190,0.2441,0.1221,-0.1831,1,466,871,0
59002536,265,-0.0405,0.0400,1.0190,0.1221,0.0000,0.0000,1,466,875,0
59007541,266,-0.0386,0.0444,1.0205,0.0000,0.2441,-0.1221,1,466,773,0
59012536,267,-0.0376,0.0444,1.0229,-0.1221,0.2441,-0.1831,1,466,856,0
59017537,268,-0.0366,0.0410,1.0234,-0.1831,0.3052,-0.1831,1,466,876,0
59022538,269,-0.0376,0.0381,1.0215,-0.1831,0.3662,-0.3052,1,484,865,0
59027536,270,-0.0391,0.0376,1.0186,-0.1831,0.1831,-0.3662,1,465,867,0
59032540,271,-0.0396,0.0391,1.0190,-0.1221,0.1831,-0.2441,1,474,930,0
59037535,272,-0.0391,0.0391,1.0200,-0.1831,0.3052,-0.2441,1,474,859,0
59042534,273,-0.0391,0.0381,1.0210,-0.1831,0.3052,-0.2441,1,480,890,0
59047537,274,-0.0386,0.0376,1.0229,0.0000,0.3052,-0.2441,1,468,844,0
59052539,275,-0.0386,0.0376,1.0234,0.1221,0.1831,-0.3052,1,494,732,0
59057541,276,-0.0381,0.0371,1.0225,0.1831,0.2441,-0.1831,1,493,774,0
59062534,277,-0.0391,0.0366,1.0190,0.0610,0.3052,-0.2441,1,508,837,0
59067535,278,-0.0405,0.0361,1.0171,0.0000,0.3662,-0.2441,1,484,841,0
59072535,279,-0.0415,0.0352,1.0166,0.1221,0.3662,-0.3052,1,491,799,0
59077538,280,-0.0420,0.0347,1.0156,0.3052,0.3662,-0.3052,1,482,841,0
59082538,281,-0.0420,0.0347,1.0142,0.3662,0.0610,-0.1831,1,487,838,0
59087535,282,-0.0410,0.0366,1.0146,0.4272,0.0610,-0.1221,1,492,842,0
59092534,283,-0.0400,0.0386,1.0171,0.3662,0.1221,-0.1831,1,466,872,0
59097536,284,-0.0396,0.0400,1.0190,0.3052,0.0610,-0.1831,1,466,866,0
59102534,285,-0.0405,0.0405,1.0186,0.1221,0.1831,-0.1831,1,466,867,0
59107536,286,-0.0405,0.0391,1.0161,0.1221,0.2441,-0.1221,1,466,871,0
59112541,287,-0.0405,0.0347,1.0137,0.1831,0.1831,-0.2441,1,466,866,0
59117537,288,-0.0415,0.0308,1.0127,0.2441,0.1221,-0.1221,1,466,876,0
59122537,289,-0.0420,0.0298,1.0117,0.4272,0.1221,0.0000,1,466,854,0
59127539,290,-0.0425,0.0332,1.0122,0.5493,-0.1221,-0.0610,1,484,825,0
59132541,291,-0.0420,0.0356,1.0156,0.6104,-0.1221,-0.1221,1,465,901,0
59137542,292,-0.0400,0.0371,1.0200,0.4883,0.0000,0.0000,1,482,928,0
59142539,293,-0.0381,0.0381,1.0215,0.6104,0.0610,0.0610,1,483,758,0
59147534,294,-0.0381,0.0376,1.0200,0.5493,0.0610,0.1221,1,494,848,0
59152540,295,-0.0386,0.0361,1.0186,0.6714,-0.0610,0.1831,1,483,844,0
59157542,296,-0.0391,0.0352,1.0181,0.7324,-0.0610,0.1831,1,505,851,0
59162540,297,-0.0391,0.0371,1.0181,0.7324,-0.1221,0.1221,1,484,791,0
59167537,298,-0.0396,0.0381,1.0181,0.8545,-0.0610,0.0610,1,487,817,0
59172535,299,-0.0391,0.0347,1.0210,0.8545,-0.1831,0.0000,1,475,832,0
59177541,300,-0.0371,0.0352,1.0244,1.0986,0.0000,0.1221,1,483,822,0
59182539,301,-0.0376,0.0405,1.0249,1.0376,0.1831,0.0000,1,487,798,0
59187542,302,-0.0391,0.0430,1.0229,0.7324,0.0000,0.0000,1,473,799,0
59192541,303,-0.0400,0.0396,1.0195,0.7324,0.0000,0.0610,1,492,750,0
59197536,304,-0.0410,0.0356,1.0161,0.9155,0.0610,-0.0610,1,466,822,0
59202536,305,-0.0410,0.0347,1.0161,0.9766,-0.0610,0.0610,1,466,872,0
59207539,306,-0.0400,0.0356,1.0186,0.9155,0.0000,0.0610,1,465,869,0
59212541,307,-0.0400,0.0396,1.0205,0.9155,0.1221,0.0610,1,466,825,0
59217538,308,-0.0400,0.0425,1.0205,0.7324,0.0610,0.1221,1,466,865,0
59222539,309,-0.0391,0.0425,1.0205,0.7324,0.0000,0.0610,1,484,865,0
59227541,310,-0.0381,0.0396,1.0205,0.7935,0.0610,-0.0610,1,465,764,0
59232540,311,-0.0386,0.0376,1.0200,0.7935,0.1221,0.0610,1,484,853,0
59237534,312,-0.0396,0.0371,1.0181,0.7324,0.0610,0.0610,1,466,891,0
59242537,313,-0.0400,0.0391,1.0186,0.7324,0.0000,0.1831,1,468,857,0
59247540,314,-0.0396,0.0410,1.0205,0.7935,-0.0610,0.0610,1,467,776,0
59252536,315,-0.0376,0.0430,1.0229,0.5493,0.0610,0.1221,1,492,855,0
59257534,316,-0.0371,0.0449,1.0244,0.4883,0.0610,0.0000,1,479,848,0
59262541,317,-0.0381,0.0444,1.0244,0.4272,0.1221,0.0000,1,507,734,0
59267535,318,-0.0396,0.0430,1.0225,0.4883,0.2441,0.0000,1,482,779,0
59272536,319,-0.0405,0.0415,1.0200,0.4272,0.3662,-0.1221,1,509,777,0
59277539,320,-0.0400,0.0396,1.0200,0.4272,0.1831,0.0000,1,476,843,0
59282538,321,-0.0391,0.0381,1.0210,0.4272,0.1221,0.0000,1,480,796,0
59287540,322,-0.0396,0.0396,1.0200,0.4272,0.1831,-0.1221,1,490,787,0
59292536,323,-0.0405,0.0420,1.0186,0.4272,0.0610,-0.1831,1,488,839,0
59297534,324,-0.0400,0.0435,1.0200,0.4272,0.0610,-0.0610,1,493,843,0
59302542,325,-0.0391,0.0439,1.0225,0.2441,0.1831,0.0000,1,466,866,0
59307541,326,-0.0396,0.0430,1.0234,0.1221,0.3052,-0.1221,1,466,826,0
59312540,327,-0.0396,0.0400,1.0220,-0.0610,0.3052,-0.1221,1,466,864,0
59317536,328,-0.0400,0.0400,1.0205,0.0000,0.1831,-0.1831,1,466,863,0
59322556,329,-0.0391,0.0430,1.0220,-0.0610,0.1831,-0.2441,1,466,825,0
59327541,330,-0.0371,0.0464,1.0254,-0.1831,0.2441,-0.2441,1,466,869,0
59332538,331,-0.0366,0.0474,1.0249,-0.4272,0.5493,-0.3662,1,465,877,0
59337536,332,-0.0386,0.0430,1.0210,-0.6714,0.6714,-0.4272,1,482,869,0
59342537,333,-0.0400,0.0371,1.0176,-0.5493,0.4272,-0.3052,1,465,866,0
59347537,334,-0.0405,0.0361,1.0166,-0.4883,0.5493,-0.3052,1,471,929,0
59352565,335,-0.0415,0.0391,1.0156,-0.4272,0.4272,-0.3052,1,472,863,0
59357534,336,-0.0425,0.0430,1.0156,-0.5493,0.3052,-0.2441,1,471,869,0
59362537,337,-0.0415,0.0459,1.0186,-0.6104,0.4272,-0.3052,1,504,871,0
59367535,338,-0.0391,0.0444,1.0215,-0.8545,0.3052,-0.3052,1,483,846,0
59372541,339,-0.0386,0.0405,1.0205,-0.8545,0.4272,-0.2441,1,508,777,0
59377540,340,-0.0391,0.0371,1.0171,-0.7324,0.4883,-0.1831,1,501,836,0
59382540,341,-0.0396,0.0356,1.0161,-0.7324,0.4883,-0.3052,1,473,842,0
59387535,342,-0.0396,0.0352,1.0166,-0.7324,0.3662,-0.3662,1,482,844,0
59392542,343,-0.0386,0.0352,1.0186,-0.4883,0.2441,-0.3052,1,483,869,0
59397543,344,-0.0391,0.0361,1.0210,-0.4272,0.3662,-0.3052,1,487,838,0
59402536,345,-0.0400,0.0376,1.0210,-0.3052,0.4272,-0.3662,1,469,840,0
59407542,346,-0.0410,0.0391,1.0200,-0.2441,0.3052,-0.2441,1,493,840,0
59412543,347,-0.0415,0.0396,1.0186,-0.3662,0.2441,-0.3052,1,465,868,0
59417537,348,-0.0405,0.0386,1.0186,-0.3662,0.3052,-0.3662,1,466,873,0
59422536,349,-0.0391,0.0381,1.0200,-0.3052,0.4883,-0.3052,1,465,874,0
59427550,350,-0.0386,0.0386,1.0210,-0.3052,0.3662,-0.3052,1,466,858,0
59432538,351,-0.0391,0.0400,1.0215,-0.3662,0.3662,-0.2441,1,466,863,0
59437538,352,-0.0391,0.0400,1.0210,-0.3662,0.4883,-0.1831,1,483,874,0
59442536,353,-0.0386,0.0405,1.0195,-0.3662,0.5493,-0.2441,1,465,857,0
59447537,354,-0.0386,0.0410,1.0176,-0.5493,0.5493,-0.3052,1,484,813,0
59452540,355,-0.0381,0.0391,1.0161,-0.5493,0.3662,-0.3052,1,475,899,0
59457541,356,-0.0386,0.0361,1.0161,-0.5493,0.4883,-0.3052,1,478,858,0
59462542,357,-0.0391,0.0352,1.0176,-0.3052,0.6104,-0.1831,1,477,872,0
59467542,358,-0.0400,0.0366,1.0171,-0.3052,0.5493,-0.3052,1,478,851,0
59472541,359,-0.0410,0.0376,1.0156,-0.3052,0.4883,-0.2441,1,465,846,0
59477536,360,-0.0410,0.0376,1.0161,-0.1831,0.4883,-0.3052,1,493,777,0
59482540,361,-0.0405,0.0376,1.0171,-0.1831,0.4883,-0.1831,1,499,833,0
59487538,362,-0.0396,0.0371,1.0176,-0.0610,0.3662,-0.3052,1,486,852,0
59492542,363,-0.0396,0.0376,1.0181,-0.0610,0.4883,-0.3052,1,474,841,0
59497536,364,-0.0400,0.0405,1.0176,0.0000,0.4272,-0.2441,1,490,854,0
59502535,365,-0.0396,0.0415,1.0181,-0.1831,0.5493,-0.3662,1,482,798,0
59507537,366,-0.0391,0.0400,1.0195,-0.1831,0.4883,-0.2441,1,488,847,0
59512537,367,-0.0391,0.0376,1.0200,-0.1831,0.3052,-0.3052,1,493,842,0
59517539,368,-0.0386,0.0376,1.0200,-0.0610,0.3662,-0.3662,1,466,861,0
59522541,369,-0.0386,0.0400,1.0210,-0.0610,0.3662,-0.2441,1,466,871,0
59527540,370,-0.0381,0.0405,1.0215,-0.1221,0.3662,-0.3662,1,466,871,0
59532542,371,-0.0391,0.0371,1.0195,-0.1831,0.4883,-0.4272,1,465,871,0
59537537,372,-0.0405,0.0356,1.0176,-0.0610,0.4883,-0.3662,1,466,875,0
59542534,373,-0.0400,0.0381,1.0190,-0.0610,0.3662,-0.3662,1,483,872,0
59547543,374,-0.0391,0.0420,1.0220,-0.1221,0.4883,-0.3052,1,466,859,0
59552542,375,-0.0381,0.0435,1.0234,-0.1221,0.4883,-0.3662,1,484,850,0
59557535,376,-0.0386,0.0420,1.0234,-0.2441,0.5493,-0.3662,1,465,898,0
59562539,377,-0.0396,0.0400,1.0210,-0.3052,0.4883,-0.2441,1,479,869,0
59567539,378,-0.0400,0.0376,1.0200,-0.1221,0.3052,-0.3052,1,480,891,0
59572538,379,-0.0386,0.0361,1.0195,-0.1221,0.4272,-0.4272,1,509,849,0
59577534,380,-0.0386,0.0386,1.0200,-0.0610,0.3662,-0.3662,1,472,855,0
59582537,381,-0.0391,0.0410,1.0215,-0.0610,0.3052,-0.3662,1,500,778,0
59587539,382,-0.0381,0.0420,1.0239,-0.1221,0.3662,-0.3662,1,501,770,0
59592542,383,-0.0381,0.0410,1.0239,-0.1221,0.3662,-0.4272,1,492,852,0
59597539,384,-0.0386,0.0376,1.0225,-0.0610,0.3662,-0.4883,1,488,843,0
59602540,385,-0.0396,0.0356,1.0200,-0.0610,0.4883,-0.4883,1,480,867,0
59607543,386,-0.0420,0.0376,1.0186,-0.0610,0.4272,-0.4272,1,488,870,0
59612541,387,-0.0420,0.0410,1.0200,-0.1831,0.2441,-0.4272,1,469,842,0
59617536,388,-0.0391,0.0420,1.0200,-0.3662,0.3052,-0.5493,1,493,847,0
59622542,389,-0.0400,0.0381,1.0171,-0.2441,0.5493,-0.5493,1,466,866,0
59627538,390,-0.0425,0.0337,1.0161,-0.2441,0.2441,-0.3662,1,466,869,0
59632541,391,-0.0415,0.0322,1.0181,0.0610,0.3662,-0.3662,1,466,881,0
59637553,392,-0.0400,0.0361,1.0190,0.0610,0.5493,-0.4883,1,466,875,0
59642537,393,-0.0405,0.0400,1.0195,-0.1221,0.4883,-0.4883,1,466,872,0
59647541,394,-0.0410,0.0381,1.0195,-0.2441,0.4272,-0.4883,1,484,897,0
59652535,395,-0.0400,0.0332,1.0166,0.0000,0.4272,-0.3662,1,476,864,0
59657540,396,-0.0396,0.0322,1.0132,0.1221,0.3052,-0.1831,1,466,887,0
59662534,397,-0.0400,0.0361,1.0151,0.1831,0.3052,-0.3052,1,466,928,0
59667546,398,-0.0400,0.0400,1.0195,0.3662,0.2441,-0.1831,1,472,858,0
59672536,399,-0.0405,0.0415,1.0210,0.1831,0.3052,-0.2441,1,466,864,0
59677536,400,-0.0400,0.0400,1.0205,0.0610,0.3052,-0.4272,1,501,824,0
59682541,401,-0.0391,0.0381,1.0205,0.1831,0.2441,-0.4272,1,488,782,0
59687534,402,-0.0391,0.0376,1.0210,0.3052,0.1831,-0.3662,1,482,777,0
59692536,403,-0.0400,0.0386,1.0220,0.0610,0.2441,-0.3662,1,503,827,0
59697537,404,-0.0415,0.0396,1.0215,0.1221,0.3052,-0.3662,1,485,841,0
59702536,405,-0.0420,0.0396,1.0210,0.1221,0.1831,-0.3662,1,492,839,0
59707539,406,-0.0405,0.0381,1.0210,0.0000,0.3052,-0.3662,1,481,841,0
59712540,407,-0.0391,0.0381,1.0225,0.0000,0.1831,-0.2441,1,488,791,0
59717542,408,-0.0391,0.0396,1.0234,0.0610,0.3052,-0.4272,1,488,795,0
59722534,409,-0.0386,0.0410,1.0225,-0.0610,0.3052,-0.4272,1,466,839,0
59727542,410,-0.0381,0.0435,1.0225,-0.2441,0.4272,-0.4883,1,466,867,0
59732543,411,-0.0381,0.0449,1.0229,-0.4883,0.4883,-0.4883,1,466,870,0
59737536,412,-0.0386,0.0415,1.0215,-0.5493,0.5493,-0.4883,1,466,900,0
59742534,413,-0.0400,0.0366,1.0176,-0.3662,0.6104,-0.4272,1,465,876,0
59747536,414,-0.0415,0.0347,1.0142,-0.3052,0.4883,-0.4272,1,466,871,0
59752541,415,-0.0420,0.0347,1.0137,-0.1831,0.4883,-0.3052,1,466,868,0
59757534,416,-0.0415,0.0342,1.0146,-0.1831,0.4272,-0.3662,1,479,856,0
59762535,417,-0.0400,0.0342,1.0161,0.0000,0.4272,-0.3052,1,465,879,0
59767537,418,-0.0405,0.0352,1.0176,0.1221,0.3662,-0.2441,1,473,812,0
59772547,419,-0.0420,0.0352,1.0176,0.1221,0.3052,-0.3052,1,475,860,0
59777535,420,-0.0415,0.0356,1.0181,0.2441,0.2441,-0.2441,1,472,850,0
59782535,421,-0.0405,0.0366,1.0190,0.1221,0.1831,-0.1831,1,507,877,0
59787538,422,-0.0400,0.0381,1.0195,0.2441,0.1831,-0.1831,1,495,855,0
59792535,423,-0.0396,0.0386,1.0190,0.3052,0.3052,-0.1221,1,482,780,0
59797536,424,-0.0405,0.0381,1.0190,0.4883,0.1831,-0.1831,1,481,824,0
59802534,425,-0.0410,0.0371,1.0200,0.4272,0.1831,-0.1221,1,474,843,0
59807538,426,-0.0405,0.0371,1.0200,0.3662,0.1831,-0.2441,1,488,842,0
59812542,427,-0.0400,0.0366,1.0200,0.3662,0.1221,-0.2441,1,475,878,0
59817539,428,-0.0396,0.0366,1.0195,0.3052,0.3052,-0.1831,1,480,842,0
59822539,429,-0.0391,0.0376,1.0186,0.3662,0.2441,-0.1831,1,493,842,0
59827540,430,-0.0400,0.0386,1.0176,0.3662,0.2441,-0.1831,1,493,844,0
59832538,431,-0.0405,0.0400,1.0181,0.4272,0.3052,-0.1831,1,466,873,0
59837537,432,-0.0396,0.0396,1.0205,0.4272,0.1831,-0.0610,1,466,868,0
59842539,433,-0.0376,0.0400,1.0225,0.1831,0.2441,0.0000,1,466,872,0
59847536,434,-0.0376,0.0449,1.0225,0.0000,0.4883,-0.0610,1,466,856,0
59852543,435,-0.0405,0.0474,1.0215,-0.2441,0.4272,-0.1831,1,484,811,0
59857534,436,-0.0415,0.0425,1.0205,-0.2441,0.1831,-0.1831,1,465,866,0
59862536,437,-0.0405,0.0361,1.0176,-0.1831,0.4272,-0.1831,1,466,800,0
59867540,438,-0.0410,0.0347,1.0151,-0.1831,0.3662,-0.1221,1,482,904,0
59872543,439,-0.0420,0.0352,1.0171,-0.0610,0.1831,-0.0610,1,465,863,0
59877534,440,-0.0410,0.0361,1.0205,0.0000,0.4272,-0.1221,1,467,855,0
59882537,441,-0.0420,0.0381,1.0186,0.0610,0.4883,-0.1221,1,504,807,0
59887537,442,-0.0420,0.0371,1.0156,0.0610,0.2441,-0.2441,1,484,781,0
59892540,443,-0.0405,0.0342,1.0156,0.1831,0.1221,-0.1221,1,509,885,0
59897537,444,-0.0391,0.0332,1.0171,0.3662,0.3052,-0.0610,1,464,831,0
59902536,445,-0.0400,0.0342,1.0166,0.5493,0.1831,-0.0610,1,476,835,0
59907534,446,-0.0410,0.0361,1.0166,0.4883,0.0000,-0.0610,1,488,845,0
59912537,447,-0.0410,0.0361,1.0166,0.6714,0.1221,0.0000,1,478,798,0
59917542,448,-0.0405,0.0371,1.0166,0.7935,0.3662,0.0000,1,487,797,0
59922543,449,-0.0400,0.0391,1.0176,0.6714,0.1831,0.0000,1,488,802,0
59927539,450,-0.0396,0.0400,1.0190,0.6104,0.1831,-0.1221,1,466,791,0
59932543,451,-0.0396,0.0410,1.0205,0.5493,0.1831,-0.1221,1,466,864,0
59937539,452,-0.0396,0.0405,1.0195,0.5493,0.1831,-0.0610,1,466,872,0
59942535,453,-0.0396,0.0391,1.0190,0.3662,0.2441,-0.1221,1,466,875,0
59947534,454,-0.0391,0.0381,1.0205,0.4883,0.2441,-0.0610,1,466,870,0
59952538,455,-0.0396,0.0391,1.0210,0.5493,0.2441,0.0000,1,483,865,0
59957542,456,-0.0405,0.0405,1.0210,0.4883,0.2441,-0.0610,1,466,813,0
59962537,457,-0.0410,0.0405,1.0200,0.3662,0.2441,-0.1221,1,484,857,0
59967535,458,-0.0410,0.0391,1.0190,0.3052,0.4883,-0.1221,1,465,898,0
59972540,459,-0.0405,0.0376,1.0186,0.2441,0.4272,-0.1831,1,471,850,0
59977534,460,-0.0400,0.0376,1.0181,0.3662,0.4272,-0.0610,1,471,873,0
59982534,461,-0.0396,0.0386,1.0176,0.4883,0.1831,-0.0610,1,478,856,0
59987540,462,-0.0396,0.0381,1.0176,0.4883,0.1831,-0.1221,1,467,775,0
59992536,463,-0.0415,0.0386,1.0176,0.4883,0.2441,-0.1831,1,509,846,0
59997543,464,-0.0420,0.0386,1.0176,0.5493,0.1221,-0.1221,1,491,780,0
60002539,465,-0.0405,0.0391,1.0195,0.4272,0.2441,-0.1221,1,505,828,0
60007537,466,-0.0400,0.0410,1.0210,0.5493,0.3052,-0.0610,1,480,842,0
60012542,467,-0.0400,0.0425,1.0220,0.4883,0.1831,-0.2441,1,492,855,0
60017537,468,-0.0396,0.0415,1.0210,0.3052,0.2441,-0.1831,1,478,872,0
60022541,469,-0.0400,0.0405,1.0181,0.3052,0.3662,-0.1831,1,491,842,0
60027538,470,-0.0400,0.0396,1.0171,0.3662,0.1831,-0.2441,1,493,839,0
60032535,471,-0.0391,0.0391,1.0186,0.3052,0.3052,-0.3052,1,466,844,0
60037535,472,-0.0391,0.0396,1.0210,0.3052,0.2441,-0.2441,1,466,853,0
60042538,473,-0.0391,0.0400,1.0220,0.2441,0.3052,-0.4272,1,466,868,0
60047537,474,-0.0396,0.0410,1.0220,0.3052,0.4272,-0.3052,1,466,866,0
60052539,475,-0.0400,0.0435,1.0220,0.3052,0.3662,-0.3662,1,466,864,0
60057540,476,-0.0396,0.0435,1.0210,0.0000,0.3662,-0.2441,1,483,869,0
60062535,477,-0.0391,0.0415,1.0186,0.0000,0.3662,-0.3052,1,465,815,0
60067540,478,-0.0400,0.0386,1.0161,0.0000,0.2441,-0.3662,1,484,847,0
60072535,479,-0.0410,0.0352,1.0156,0.0610,0.2441,-0.3052,1,465,819,0
60077539,480,-0.0415,0.0356,1.0171,0.2441,0.3052,-0.1831,1,471,859,0
60082569,481,-0.0415,0.0386,1.0190,0.3052,0.2441,-0.3052,1,471,871,0
60087534,482,-0.0410,0.0420,1.0195,0.1831,0.1831,-0.2441,1,465,857,0
60092536,483,-0.0391,0.0425,1.0186,0.0610,0.3662,-0.3052,1,482,859,0
60097534,484,-0.0396,0.0396,1.0171,0.0000,0.3052,-0.3052,1,509,844,0
60102542,485,-0.0400,0.0361,1.0176,0.0610,0.1831,-0.1831,1,507,777,0
60107536,486,-0.0391,0.0356,1.0195,0.1221,0.2441,-0.2441,1,505,835,0
60112534,487,-0.0391,0.0371,1.0200,0.0610,0.3052,-0.1831,1,482,844,0
60117539,488,-0.0391,0.0391,1.0205,0.1221,0.0610,-0.0610,1,491,857,0
60122542,489,-0.0381,0.0410,1.0225,0.0000,0.2441,-0.0610,1,478,830,0
60127538,490,-0.0381,0.0439,1.0239,-0.0610,0.3052,-0.1831,1,488,793,0
60132539,491,-0.0386,0.0444,1.0249,-0.2441,0.4883,-0.2441,1,487,842,0
60137538,492,-0.0381,0.0415,1.0244,-0.3662,0.4883,-0.3052,1,465,850,0
60142536,493,-0.0381,0.0381,1.0220,-0.4272,0.5493,-0.3662,1,465,870,0
60147539,494,-0.0410,0.0371,1.0181,-0.2441,0.6104,-0.4272,1,466,875,0
60152548,495,-0.0430,0.0391,1.0156,-0.1831,0.3662,-0.3662,1,466,872,0
60157536,496,-0.0420,0.0400,1.0166,-0.2441,0.2441,-0.3662,1,466,874,0
60162534,497,-0.0400,0.0396,1.0186,0.0000,0.2441,-0.3052,1,484,879,0
60167535,498,-0.0396,0.0391,1.0200,0.0000,0.3662,-0.3052,1,482,743,0
60172539,499,-0.0391,0.0396,1.0215,0.0000,0.1831,-0.3052,1,465,808,0
60177539,500,-0.0396,0.0415,1.0220,0.0000,0.3662,-0.3052,1,470,809,0
60182551,501,-0.0400,0.0420,1.0205,-0.1221,0.5493,-0.3662,1,473,814,0
60187540,502,-0.0410,0.0405,1.0195,-0.2441,0.4272,-0.2441,1,470,859,0
60192539,503,-0.0415,0.0381,1.0200,-0.1221,0.3662,-0.3052,1,508,876,0
60197534,504,-0.0415,0.0366,1.0190,0.0000,0.3052,-0.1831,1,492,847,0
60202538,505,-0.0415,0.0381,1.0166,0.0610,0.2441,-0.1831,1,496,753,0
60207538,506,-0.0410,0.0400,1.0161,0.1221,0.2441,-0.1831,1,478,837,0
60212542,507,-0.0405,0.0405,1.0190,0.0610,0.3052,-0.2441,1,488,844,0
60217534,508,-0.0410,0.0410,1.0205,0.0610,0.3052,-0.2441,1,491,840,0
60222541,509,-0.0420,0.0415,1.0190,-0.1221,0.3052,-0.1221,1,488,840,0
60227541,510,-0.0420,0.0391,1.0181,-0.0610,0.3052,-0.1831,1,489,836,0
60232541,511,-0.0410,0.0366,1.0186,0.1831,0.2441,-0.1221,1,492,833,0
60237540,512,-0.0400,0.0361,1.0176,0.2441,0.2441,-0.1831,1,493,845,0
60242534,513,-0.0405,0.0381,1.0166,0.3052,0.2441,-0.1221,1,466,877,0
60247541,514,-0.0410,0.0405,1.0166,0.2441,0.2441,-0.1831,1,466,868,0
60252538,515,-0.0405,0.0405,1.0181,0.1831,0.2441,-0.2441,1,466,880,0
60257534,516,-0.0405,0.0391,1.0200,0.2441,0.2441,-0.1221,1,466,874,0
60262540,517,-0.0400,0.0391,1.0215,0.1831,0.1831,-0.1831,1,483,868,0
60267535,518,-0.0400,0.0400,1.0220,0.1831,0.1221,-0.1221,1,465,860,0
60272536,519,-0.0400,0.0415,1.0215,0.1221,0.0610,-0.1221,1,484,809,0
60277541,520,-0.0391,0.0425,1.0215,0.1831,0.1831,-0.1831,1,477,903,0
60282543,521,-0.0391,0.0420,1.0220,0.1221,0.1831,-0.1831,1,479,862,0
60287542,522,-0.0400,0.0405,1.0220,0.0610,0.1831,-0.2441,1,482,894,0
60292541,523,-0.0400,0.0405,1.0215,-0.1221,0.2441,-0.1831,1,491,870,0
60297542,524,-0.0391,0.0410,1.0220,-0.0610,0.3052,-0.1831,1,476,851,0
60302534,525,-0.0386,0.0410,1.0220,0.0000,0.2441,-0.1831,1,501,845,0
60307543,526,-0.0396,0.0405,1.0200,-0.0610,0.3052,-0.3052,1,466,782,0
60312537,527,-0.0410,0.0400,1.0176,-0.2441,0.3052,-0.3052,1,491,863,0
60317541,528,-0.0410,0.0386,1.0166,-0.1831,0.2441,-0.2441,1,486,836,0
60322543,529,-0.0396,0.0391,1.0176,-0.1831,0.3052,-0.1831,1,471,851,0
60327539,530,-0.0386,0.0396,1.0186,-0.1221,0.2441,-0.3052,1,480,839,0
60332539,531,-0.0396,0.0391,1.0186,-0.2441,0.2441,-0.3052,1,481,837,0
60337537,532,-0.0410,0.0386,1.0181,-0.1831,0.3052,-0.1831,1,492,841,0
60342542,533,-0.0420,0.0396,1.0171,-0.1221,0.2441,-0.1831,1,466,868,0
60347536,534,-0.0415,0.0400,1.0166,-0.1831,0.2441,-0.2441,1,466,869,0
60352536,535,-0.0405,0.0405,1.0171,-0.1831,0.2441,-0.2441,1,465,909,0
60357560,536,-0.0400,0.0410,1.0190,-0.0610,0.1831,-0.2441,1,466,875,0
60362541,537,-0.0391,0.0410,1.0205,-0.1831,0.3052,-0.2441,1,466,873,0
60367540,538,-0.0396,0.0405,1.0195,-0.3052,0.3052,-0.3052,1,465,869,0
60372534,539,-0.0405,0.0405,1.0186,-0.2441,0.0610,-0.2441,1,484,852,0
60377538,540,-0.0405,0.0396,1.0195,-0.3052,0.1221,-0.2441,1,465,901,0
60382538,541,-0.0400,0.0396,1.0210,-0.3052,0.3052,-0.2441,1,480,930,0
60387555,542,-0.0396,0.0405,1.0205,-0.3052,0.3052,-0.3052,1,465,889,0
60392542,543,-0.0391,0.0400,1.0190,-0.3662,0.3052,-0.2441,1,474,850,0
60397534,544,-0.0396,0.0386,1.0195,-0.3052,0.3052,-0.3662,1,493,865,0
60402536,545,-0.0405,0.0376,1.0195,-0.1831,0.1831,-0.3662,1,479,793,0
60407538,546,-0.0405,0.0396,1.0195,-0.2441,0.2441,-0.3052,1,501,786,0
60412536,547,-0.0386,0.0430,1.0210,-0.3052,0.3662,-0.3052,1,480,835,0
60417540,548,-0.0381,0.0444,1.0215,-0.4272,0.5493,-0.3662,1,491,835,0
60422536,549,-0.0386,0.0430,1.0215,-0.4883,0.5493,-0.5493,1,477,847,0
60427543,550,-0.0396,0.0400,1.0205,-0.5493,0.5493,-0.3052,1,490,865,0
60432541,551,-0.0400,0.0381,1.0195,-0.4272,0.4272,-0.3052,1,491,842,0
60437543,552,-0.0420,0.0361,1.0176,-0.2441,0.3662,-0.3052,1,491,841,0
60442535,553,-0.0430,0.0342,1.0156,-0.1831,0.3052,-0.3052,1,493,847,0
60447535,554,-0.0430,0.0347,1.0142,-0.1221,0.3662,-0.2441,1,466,867,0
60452539,555,-0.0410,0.0376,1.0161,0.0000,0.2441,-0.1831,1,466,871,0
60457536,556,-0.0391,0.0405,1.0186,0.0000,0.1831,-0.2441,1,466,832,0
60462534,557,-0.0400,0.0405,1.0186,-0.1221,0.3052,-0.2441,1,466,825,0
60467536,558,-0.0420,0.0381,1.0186,-0.1831,0.3052,-0.3662,1,466,866,0
60472542,559,-0.0420,0.0371,1.0171,-0.1221,0.2441,-0.3662,1,465,868,0
60477541,560,-0.0420,0.0381,1.0171,0.0000,0.3052,-0.2441,1,478,861,0
60482540,561,-0.0420,0.0391,1.0186,-0.1221,0.1831,-0.1831,1,466,807,0
60487534,562,-0.0415,0.0391,1.0195,-0.1831,0.3052,-0.2441,1,474,929,0
60492561,563,-0.0410,0.0396,1.0200,-0.1831,0.1831,-0.3052,1,482,862,0
60497541,564,-0.0400,0.0396,1.0215,-0.2441,0.3052,-0.2441,1,482,896,0
60502542,565,-0.0381,0.0405,1.0229,-0.4272,0.4883,-0.3052,1,508,822,0
60507536,566,-0.0381,0.0425,1.0234,-0.4883,0.5493,-0.3662,1,468,878,0
60512541,567,-0.0386,0.0415,1.0239,-0.4883,0.5493,-0.2441,1,498,780,0
60517541,568,-0.0391,0.0400,1.0229,-0.5493,0.5493,-0.3052,1,497,853,0
60522538,569,-0.0420,0.0386,1.0176,-0.5493,0.6104,-0.2441,1,491,841,0
60527538,570,-0.0439,0.0371,1.0132,-0.4883,0.3662,-0.2441,1,483,842,0
60532542,571,-0.0420,0.0356,1.0156,-0.3662,0.2441,-0.2441,1,492,870,0
60537541,572,-0.0405,0.0356,1.0190,-0.1221,0.3662,-0.2441,1,492,851,0
60542542,573,-0.0415,0.0381,1.0190,-0.0610,0.3662,-0.4272,1,479,847,0
60547537,574,-0.0405,0.0396,1.0190,-0.0610,0.1221,-0.1831,1,494,872,0
60552539,575,-0.0391,0.0410,1.0210,-0.1221,0.3052,-0.1831,1,466,867,0
60557541,576,-0.0400,0.0405,1.0220,-0.1831,0.4883,-0.4883,1,466,864,0
60562540,577,-0.0410,0.0396,1.0210,-0.1831,0.4272,-0.3052,1,466,869,0
60567538,578,-0.0410,0.0376,1.0195,-0.1831,0.4272,-0.3052,1,466,870,0
60572534,579,-0.0405,0.0366,1.0190,-0.3662,0.4272,-0.3662,1,483,873,0
60577534,580,-0.0405,0.0366,1.0186,-0.1221,0.3662,-0.2441,1,467,868,0
60582541,581,-0.0405,0.0366,1.0176,-0.0610,0.3052,-0.2441,1,484,864,0
60587540,582,-0.0400,0.0361,1.0166,-0.1221,0.3052,-0.3052,1,475,899,0
60592543,583,-0.0396,0.0376,1.0186,-0.0610,0.3662,-0.3052,1,466,854,0
60597540,584,-0.0400,0.0391,1.0205,0.0000,0.3662,-0.1221,1,467,857,0
60602535,585,-0.0405,0.0396,1.0220,0.0000,0.2441,-0.1831,1,497,800,0
60607543,586,-0.0405,0.0396,1.0229,-0.0610,0.2441,-0.3662,1,465,734,0
60612540,587,-0.0400,0.0405,1.0229,-0.2441,0.3662,-0.3052,1,508,884,0
60617542,588,-0.0391,0.0405,1.0220,-0.1831,0.4272,-0.3052,1,468,835,0
60622541,589,-0.0386,0.0391,1.0215,-0.0610,0.3662,-0.3662,1,478,839,0
60627538,590,-0.0396,0.0386,1.0205,-0.1831,0.4272,-0.3052,1,488,841,0
60632535,591,-0.0405,0.0400,1.0205,-0.1221,0.3662,-0.3052,1,478,863,0
60637538,592,-0.0415,0.0410,1.0205,-0.1831,0.3662,-0.3052,1,479,838,0
60642535,593,-0.0420,0.0396,1.0195,-0.1831,0.2441,-0.3052,1,485,845,0
60647535,594,-0.0425,0.0376,1.0190,-0.1221,0.2441,-0.2441,1,493,845,0
60652542,595,-0.0420,0.0356,1.0181,0.0000,0.3052,-0.3052,1,465,872,0
60657537,596,-0.0415,0.0352,1.0176,-0.0610,0.3052,-0.3662,1,466,848,0
60662540,597,-0.0400,0.0376,1.0186,0.1831,0.3052,-0.2441,1,466,897,0
60667557,598,-0.0400,0.0396,1.0200,0.0610,0.3052,-0.3052,1,466,870,0
60672537,599,-0.0400,0.0400,1.0205,0.0610,0.3662,-0.1221,1,466,858,0
60677540,600,-0.0410,0.0391,1.0190,-0.0610,0.4272,-0.1221,1,465,864,0
60682541,601,-0.0425,0.0371,1.0166,0.0610,0.3052,-0.1221,1,477,854,0
60687534,602,-0.0430,0.0361,1.0166,0.1221,0.3052,-0.1221,1,466,865,0
60692537,603,-0.0430,0.0371,1.0171,0.2441,0.3052,-0.1221,1,474,929,0
60697543,604,-0.0420,0.0396,1.0166,0.3052,0.3052,0.0000,1,474,855,0
60702538,605,-0.0415,0.0400,1.0161,0.2441,0.3052,0.0000,1,472,818,0
60707538,606,-0.0405,0.0381,1.0161,0.0000,0.3662,-0.1221,1,475,807,0
60712540,607,-0.0405,0.0376,1.0171,0.0000,0.1831,-0.2441,1,465,729,0
60717540,608,-0.0410,0.0366,1.0181,0.1221,0.1831,-0.1221,1,508,732,0
60722542,609,-0.0410,0.0371,1.0190,0.0610,0.1831,-0.0610,1,464,830,0
60727535,610,-0.0410,0.0391,1.0205,0.0000,0.1831,-0.1831,1,473,843,0
60732536,611,-0.0400,0.0410,1.0205,-0.0610,0.2441,-0.3052,1,490,797,0
60737535,612,-0.0391,0.0400,1.0210,-0.0610,0.3052,-0.1831,1,489,839,0
60742538,613,-0.0396,0.0381,1.0200,-0.1831,0.3052,-0.2441,1,492,833,0
60747534,614,-0.0415,0.0381,1.0186,-0.2441,0.2441,-0.2441,1,475,839,0
60752540,615,-0.0420,0.0400,1.0181,-0.1221,0.0610,-0.1831,1,492,847,0
60757542,616,-0.0410,0.0410,1.0205,-0.2441,0.1831,-0.1221,1,466,863,0
60762535,617,-0.0400,0.0415,1.0229,-0.3662,0.4883,-0.2441,1,466,872,0
60767534,618,-0.0396,0.0410,1.0229,-0.3662,0.3662,-0.1831,1,466,879,0
60772550,619,-0.0400,0.0400,1.0210,-0.4272,0.3662,-0.1831,1,466,879,0
60777534,620,-0.0410,0.0391,1.0190,-0.3662,0.4272,-0.2441,1,466,871,0
60782540,621,-0.0415,0.0366,1.0186,-0.4883,0.4272,-0.2441,1,484,904,0
60787542,622,-0.0420,0.0347,1.0181,-0.4883,0.3662,-0.1221,1,471,865,0
60792536,623,-0.0415,0.0342,1.0186,-0.1831,0.4883,-0.1831,1,484,857,0
60797539,624,-0.0410,0.0352,1.0186,-0.1831,0.4272,-0.1831,1,466,917,0
60802541,625,-0.0410,0.0361,1.0176,-0.1831,0.3662,-0.1831,1,467,865,0
60807564,626,-0.0410,0.0347,1.0171,-0.0610,0.1831,-0.1221,1,470,897,0
60812536,627,-0.0415,0.0322,1.0171,-0.0610,0.2441,-0.2441,1,472,818,0
60817536,628,-0.0415,0.0312,1.0176,0.3052,0.1831,-0.1831,1,466,856,0
60822534,629,-0.0415,0.0332,1.0176,0.4272,0.1831,0.0000,1,510,944,0
60827542,630,-0.0420,0.0361,1.0176,0.3662,0.1221,0.0000,1,493,785,0
60832538,631,-0.0415,0.0366,1.0195,0.3662,0.1221,0.0610,1,482,796,0
60837537,632,-0.0405,0.0366,1.0200,0.3662,0.0000,0.0000,1,486,844,0
60842534,633,-0.0410,0.0371,1.0190,0.4272,0.1221,0.0610,1,477,752,0
60847542,634,-0.0415,0.0386,1.0176,0.5493,0.1221,0.1221,1,491,841,0
60852540,635,-0.0415,0.0396,1.0176,0.4272,0.1831,0.0000,1,469,839,0
60857540,636,-0.0410,0.0391,1.0186,0.5493,0.1221,0.0610,1,493,800,0
60862534,637,-0.0410,0.0381,1.0181,0.6104,0.0000,0.0610,1,466,865,0
60867540,638,-0.0415,0.0361,1.0171,0.6104,0.0610,0.1221,1,466,815,0
60872535,639,-0.0420,0.0337,1.0161,0.7935,0.1831,0.1221,1,466,865,0
60877541,640,-0.0425,0.0322,1.0156,0.9155,0.0610,0.0000,1,466,870,0
60882541,641,-0.0425,0.0327,1.0156,1.0986,-0.1831,0.1221,1,483,828,0
60887538,642,-0.0420,0.0347,1.0156,1.3428,-0.0610,0.2441,1,465,863,0
60892540,643,-0.0415,0.0371,1.0156,1.4038,-0.2441,0.2441,1,484,863,0
60897535,644,-0.0415,0.0386,1.0161,1.5869,-0.3052,0.1831,1,475,910,0
60902535,645,-0.0410,0.0400,1.0181,1.6479,-0.3052,0.1831,1,465,865,0
60907562,646,-0.0396,0.0420,1.0195,1.5259,-0.4272,0.1831,1,470,859,0
60912536,647,-0.0391,0.0430,1.0210,1.4648,-0.4272,0.2441,1,467,872,0
60917537,648,-0.0410,0.0439,1.0225,1.2207,-0.3662,0.1221,1,478,852,0
60922538,649,-0.0420,0.0449,1.0225,1.1597,-0.3052,0.1221,1,505,883,0
60927537,650,-0.0410,0.0449,1.0229,1.0986,-0.1831,0.1221,1,464,828,0
60932534,651,-0.0400,0.0439,1.0220,0.9766,-0.1831,0.1221,1,478,856,0
60937542,652,-0.0405,0.0425,1.0195,0.8545,-0.2441,0.1221,1,492,839,0
60942542,653,-0.0415,0.0420,1.0181,0.7935,-0.1831,0.0610,1,486,841,0
60947536,654,-0.0420,0.0415,1.0190,0.8545,-0.3052,-0.0610,1,474,840,0
60952536,655,-0.0420,0.0415,1.0210,0.9155,-0.4272,0.0000,1,490,837,0
60957535,656,-0.0410,0.0420,1.0215,0.7324,-0.3052,0.0610,1,493,799,0
60962536,657,-0.0410,0.0425,1.0210,0.6714,-0.1221,0.0000,1,466,867,0
60967538,658,-0.0420,0.0410,1.0186,0.6714,-0.2441,-0.1221,1,466,821,0
60972542,659,-0.0420,0.0410,1.0156,0.7935,-0.3662,0.0610,1,465,871,0
60977536,660,-0.0410,0.0415,1.0176,0.6714,-0.4272,0.0610,1,466,872,0
60982536,661,-0.0391,0.0425,1.0210,0.7324,-0.3662,0.0000,1,483,871,0
60987535,662,-0.0391,0.0439,1.0215,0.6104,-0.1831,-0.0610,1,466,812,0
60992536,663,-0.0405,0.0444,1.0215,0.5493,-0.1221,-0.1831,1,484,857,0
60997539,664,-0.0405,0.0454,1.0225,0.4883,-0.2441,-0.0610,1,474,902,0
61002538,665,-0.0381,0.0479,1.0254,0.2441,-0.1831,-0.0610,1,477,864,0
61007553,666,-0.0356,0.0503,1.0264,-0.1221,0.1221,-0.2441,1,483,867,0
61012538,667,-0.0361,0.0488,1.0244,-0.3662,0.1221,-0.3052,1,473,820,0
61017534,668,-0.0391,0.0439,1.0210,-0.5493,0.2441,-0.3052,1,494,856,0
61022543,669,-0.0410,0.0400,1.0176,-0.5493,0.1831,-0.2441,1,505,878,0
61027538,670,-0.0415,0.0396,1.0176,-0.5493,0.1831,-0.3662,1,484,790,0
61032541,671,-0.0405,0.0420,1.0205,-0.6104,0.1221,-0.3052,1,489,820,0
61037538,672,-0.0396,0.0439,1.0215,-0.6714,0.2441,-0.3662,1,476,834,0
61042535,673,-0.0400,0.0430,1.0210,-0.7324,0.2441,-0.3662,1,483,847,0
61047535,674,-0.0405,0.0415,1.0210,-0.8545,0.1831,-0.3052,1,473,845,0
61052537,675,-0.0400,0.0400,1.0215,-0.9766,0.2441,-0.3052,1,481,839,0
61057539,676,-0.0391,0.0400,1.0215,-1.0986,0.3662,-0.2441,1,493,837,0
61062542,677,-0.0396,0.0415,1.0186,-1.0986,0.4272,-0.3662,1,466,871,0
61067538,678,-0.0410,0.0430,1.0161,-1.2207,0.3662,-0.4272,1,466,877,0
61072539,679,-0.0415,0.0435,1.0166,-1.2207,0.2441,-0.4272,1,466,908,0
61077539,680,-0.0405,0.0420,1.0205,-1.2817,0.3052,-0.5493,1,466,880,0
61082534,681,-0.0381,0.0410,1.0244,-1.2817,0.3662,-0.4883,1,466,873,0
61087539,682,-0.0371,0.0410,1.0249,-1.4038,0.4272,-0.4272,1,466,874,0
61092538,683,-0.0381,0.0405,1.0225,-1.4648,0.5493,-0.4883,1,484,869,0
61097534,684,-0.0391,0.0396,1.0195,-1.4648,0.6714,-0.6104,1,465,871,0
61102539,685,-0.0391,0.0391,1.0181,-1.5869,0.6104,-0.6714,1,483,931,0
61107534,686,-0.0400,0.0376,1.0181,-1.5869,0.5493,-0.6714,1,465,888,0
61112539,687,-0.0400,0.0361,1.0186,-1.5259,0.6104,-0.6104,1,474,823,0
61117538,688,-0.0400,0.0352,1.0186,-1.3428,0.5493,-0.5493,1,497,864,0
61122542,689,-0.0396,0.0356,1.0181,-1.1597,0.5493,-0.3662,1,480,883,0
61127543,690,-0.0400,0.0371,1.0176,-1.2817,0.4883,-0.4883,1,500,777,0
61132539,691,-0.0410,0.0366,1.0171,-1.2207,0.4272,-0.3662,1,481,835,0
61137541,692,-0.0420,0.0352,1.0166,-1.0986,0.4883,-0.3052,1,472,847,0
61142535,693,-0.0425,0.0347,1.0171,-1.0376,0.6104,-0.3052,1,492,841,0
61147542,694,-0.0425,0.0352,1.0166,-1.0376,0.5493,-0.3662,1,488,861,0
61152535,695,-0.0405,0.0352,1.0171,-1.0376,0.6104,-0.3052,1,492,846,0
61157540,696,-0.0396,0.0342,1.0181,-0.9766,0.6714,-0.3052,1,485,833,0
61162534,697,-0.0391,0.0337,1.0171,-0.7324,0.7324,-0.2441,1,493,833,0
61167535,698,-0.0400,0.0337,1.0151,-0.6104,0.6104,-0.3052,1,466,869,0
61172539,699,-0.0420,0.0327,1.0132,-0.3662,0.4883,-0.3052,1,466,892,0
61177539,700,-0.0425,0.0322,1.0132,-0.2441,0.4883,-0.3052,1,466,870,0
61182538,701,-0.0410,0.0327,1.0146,-0.1831,0.3662,-0.3052,1,466,870,0
61187536,702,-0.0396,0.0337,1.0156,0.0000,0.3052,-0.2441,1,484,876,0
61192542,703,-0.0405,0.0342,1.0156,0.1831,0.3662,-0.2441,1,469,816,0
61197542,704,-0.0405,0.0342,1.0156,0.2441,0.4272,-0.3052,1,484,813,0
61202539,705,-0.0400,0.0347,1.0171,0.3662,0.5493,-0.2441,1,482,900,0
61207534,706,-0.0410,0.0347,1.0171,0.4883,0.5493,-0.2441,1,469,862,0
61212566,707,-0.0425,0.0347,1.0161,0.4883,0.3052,-0.3052,1,479,861,0
61217540,708,-0.0430,0.0347,1.0161,0.5493,0.3052,-0.2441,1,474,816,0
61222539,709,-0.0420,0.0352,1.0176,0.7935,0.4272,-0.3052,1,503,855,0
61227539,710,-0.0415,0.0356,1.0176,0.7935,0.3662,-0.2441,1,508,793,0
61232542,711,-0.0415,0.0361,1.0176,0.7935,0.2441,-0.2441,1,484,802,0
61237542,712,-0.0420,0.0376,1.0176,0.9766,0.3662,-0.3052,1,490,820,0
61242540,713,-0.0410,0.0386,1.0190,0.7935,0.3662,-0.3052,1,490,837,0
61247541,714,-0.0400,0.0376,1.0200,0.7324,0.3662,-0.1831,1,485,840,0
61252536,715,-0.0396,0.0371,1.0195,0.8545,0.4272,-0.1221,1,492,844,0
61257539,716,-0.0400,0.0381,1.0190,0.7935,0.3662,-0.2441,1,486,844,0
61262543,717,-0.0400,0.0400,1.0195,0.7935,0.3052,-0.1221,1,493,844,0
61267534,718,-0.0400,0.0430,1.0210,0.7324,0.2441,-0.2441,1,466,862,0
61272539,719,-0.0405,0.0439,1.0225,0.5493,0.3052,-0.3052,1,466,871,0
61277537,720,-0.0400,0.0405,1.0234,0.5493,0.3662,-0.3052,1,466,868,0
61282541,721,-0.0400,0.0371,1.0225,0.4272,0.4883,-0.3052,1,466,873,0
61287536,722,-0.0400,0.0366,1.0210,0.3052,0.3662,-0.1221,1,483,868,0
61292539,723,-0.0400,0.0391,1.0200,0.4272,0.2441,-0.1221,1,465,855,0
61297537,724,-0.0400,0.0425,1.0215,0.3052,0.3662,-0.2441,1,484,802,0
61302541,725,-0.0405,0.0439,1.0229,0.1831,0.3662,-0.3052,1,471,895,0
61307534,726,-0.0400,0.0430,1.0215,0.0000,0.5493,-0.3662,1,472,865,0
61312553,727,-0.0396,0.0396,1.0200,-0.1831,0.4883,-0.3052,1,465,823,0
61317538,728,-0.0400,0.0352,1.0181,-0.0610,0.4883,-0.3052,1,474,819,0
61322536,729,-0.0415,0.0327,1.0171,0.0610,0.4272,-0.2441,1,496,842,0
61327536,730,-0.0425,0.0342,1.0176,0.1831,0.3052,-0.3052,1,505,883,0
61332541,731,-0.0430,0.0361,1.0181,0.1221,0.3052,-0.3052,1,464,826,0
61337541,732,-0.0430,0.0396,1.0181,0.3052,0.1831,-0.2441,1,487,841,0
61342536,733,-0.0415,0.0415,1.0186,0.1221,0.3052,-0.2441,1,491,839,0
61347539,734,-0.0405,0.0400,1.0190,0.1221,0.2441,-0.2441,1,486,841,0
61352538,735,-0.0405,0.0366,1.0190,0.1221,0.4272,-0.3662,1,473,841,0
61357534,736,-0.0420,0.0347,1.0190,0.1221,0.3662,-0.3052,1,484,846,0
61362541,737,-0.0415,0.0366,1.0190,0.3052,0.2441,-0.1221,1,493,866,0
61367541,738,-0.0400,0.0396,1.0186,0.2441,0.2441,-0.1831,1,466,870,0
61372537,739,-0.0400,0.0410,1.0186,0.1221,0.3052,-0.3052,1,466,875,0
61377539,740,-0.0415,0.0405,1.0186,0.0610,0.2441,-0.1221,1,466,859,0
61382542,741,-0.0420,0.0396,1.0195,0.1221,0.1221,-0.1831,1,466,869,0
61387538,742,-0.0410,0.0405,1.0200,0.1831,0.2441,-0.1831,1,465,869,0
61392542,743,-0.0415,0.0405,1.0181,0.1221,0.3052,-0.2441,1,465,874,0
61397538,744,-0.0415,0.0386,1.0181,0.1221,0.0000,-0.3052,1,484,855,0
61402540,745,-0.0400,0.0376,1.0190,0.3052,0.1221,-0.1831,1,465,807,0
61407540,746,-0.0381,0.0405,1.0220,0.1831,0.1221,-0.2441,1,483,927,0
61412538,747,-0.0376,0.0425,1.0234,0.0610,0.3662,-0.3052,1,465,868,0
61417540,748,-0.0396,0.0420,1.0210,-0.1221,0.4272,-0.3662,1,470,821,0
61422535,749,-0.0425,0.0396,1.0166,0.0000,0.3662,-0.1831,1,497,867,0
61427535,750,-0.0435,0.0366,1.0146,-0.0610,0.3662,-0.3052,1,465,735,0
61432540,751,-0.0415,0.0356,1.0166,0.0000,0.1831,-0.3052,1,507,775,0
61437537,752,-0.0396,0.0386,1.0195,0.1221,0.2441,-0.2441,1,481,792,0
61442536,753,-0.0391,0.0420,1.0210,0.0610,0.2441,-0.2441,1,471,844,0
61447534,754,-0.0391,0.0415,1.0200,-0.0610,0.3052,-0.3052,1,473,839,0
61452537,755,-0.0405,0.0386,1.0186,0.0000,0.3662,-0.1831,1,485,831,0
61457543,756,-0.0425,0.0361,1.0186,0.0610,0.1831,-0.1831,1,492,799,0
61462536,757,-0.0444,0.0371,1.0190,0.1831,0.1831,-0.3052,1,469,845,0
61467541,758,-0.0435,0.0391,1.0190,0.2441,0.2441,-0.2441,1,493,876,0
61472541,759,-0.0410,0.0396,1.0181,0.1831,0.1221,-0.1831,1,466,873,0
61477539,760,-0.0396,0.0386,1.0171,0.3052,0.2441,-0.2441,1,465,868,0
61482539,761,-0.0396,0.0376,1.0166,0.4272,0.1831,-0.3052,1,466,870,0
61487542,762,-0.0400,0.0391,1.0181,0.3662,0.0610,-0.2441,1,466,873,0
61492537,763,-0.0400,0.0410,1.0200,0.2441,0.1831,-0.3052,1,483,865,0
61497539,764,-0.0396,0.0400,1.0205,0.2441,0.3052,-0.2441,1,466,857,0
61502534,765,-0.0405,0.0371,1.0200,0.3052,0.2441,-0.2441,1,484,860,0
61507541,766,-0.0410,0.0352,1.0190,0.4883,0.1221,-0.1221,1,465,899,0
61512535,767,-0.0410,0.0381,1.0195,0.6104,0.0610,-0.1221,1,477,855,0
61517535,768,-0.0400,0.0430,1.0225,0.4883,0.0610,-0.1831,1,483,853,0
61522537,769,-0.0386,0.0454,1.0254,0.3662,0.0000,0.0000,1,465,820,0
61527540,770,-0.0386,0.0449,1.0259,0.1831,-0.0610,0.0000,1,480,792,0
61532536,771,-0.0400,0.0415,1.0234,0.1221,0.0000,-0.1221,1,465,732,0
61537543,772,-0.0415,0.0376,1.0210,0.1831,0.0000,-0.1831,1,493,736,0
61542534,773,-0.0420,0.0352,1.0190,0.1221,0.0000,-0.0610,1,482,790,0
61547537,774,-0.0420,0.0381,1.0195,0.2441,-0.1221,-0.1221,1,490,791,0
61552542,775,-0.0400,0.0405,1.0210,0.1831,-0.1221,-0.1221,1,489,838,0
61557538,776,-0.0396,0.0410,1.0215,0.0000,-0.0610,-0.1221,1,475,856,0
61562538,777,-0.0405,0.0415,1.0205,-0.1831,0.0610,0.0000,1,485,791,0
61567537,778,-0.0410,0.0410,1.0186,-0.2441,0.0610,0.0000,1,489,799,0
61572534,779,-0.0400,0.0396,1.0181,-0.1831,0.0000,-0.1221,1,493,796,0
61577536,780,-0.0400,0.0381,1.0186,-0.2441,0.0610,-0.0610,1,493,791,0
61582540,781,-0.0410,0.0381,1.0186,-0.2441,0.0610,0.0000,1,466,865,0
61587539,782,-0.0410,0.0386,1.0190,-0.2441,0.1831,-0.0610,1,466,823,0
61592542,783,-0.0410,0.0391,1.0181,-0.3052,0.1831,0.0000,1,466,873,0
61597543,784,-0.0405,0.0396,1.0166,-0.4272,0.1831,0.0610,1,466,848,0
61602540,785,-0.0405,0.0400,1.0171,-0.4272,0.3052,0.0610,1,483,872,0
61607540,786,-0.0400,0.0400,1.0186,-0.6104,0.3662,0.0000,1,466,851,0
61612540,787,-0.0400,0.0391,1.0200,-0.7935,0.3662,-0.1221,1,484,847,0
61617538,788,-0.0415,0.0381,1.0190,-0.7935,0.4883,-0.1221,1,468,903,0
61622536,789,-0.0420,0.0381,1.0171,-0.7935,0.6104,-0.1221,1,476,858,0
61627549,790,-0.0420,0.0381,1.0166,-0.8545,0.4883,-0.0610,1,480,886,0
61632538,791,-0.0405,0.0386,1.0181,-0.9155,0.7935,-0.1221,1,474,819,0
61637534,792,-0.0396,0.0410,1.0195,-1.0376,0.7935,-0.3662,1,510,864,0
61642542,793,-0.0396,0.0425,1.0200,-1.2817,0.9766,-0.3662,1,494,883,0
61647537,794,-0.0396,0.0400,1.0205,-1.0986,0.9766,-0.3662,1,506,851,0
61652537,795,-0.0405,0.0371,1.0200,-1.0376,1.0376,-0.3662,1,470,853,0
61657534,796,-0.0420,0.0366,1.0200,-0.9766,1.0376,-0.3662,1,479,842,0
61662535,797,-0.0420,0.0376,1.0195,-0.8545,0.9155,-0.4883,1,491,843,0
61667537,798,-0.0410,0.0386,1.0195,-0.9155,1.0376,-0.4883,1,478,844,0
61672536,799,-0.0405,0.0376,1.0186,-0.7324,0.9766,-0.3662,1,486,843,0
61677540,800,-0.0415,0.0361,1.0181,-0.4272,0.7935,-0.4272,1,487,843,0
61682534,801,-0.0420,0.0366,1.0171,-0.4272,0.6714,-0.4272,1,493,845,0
61687535,802,-0.0420,0.0381,1.0176,-0.4272,0.6104,-0.4272,1,466,873,0
61692534,803,-0.0420,0.0386,1.0186,-0.3052,0.4272,-0.1831,1,466,897,0
61697547,804,-0.0425,0.0366,1.0190,-0.1831,0.4272,-0.1831,1,466,871,0
61702534,805,-0.0425,0.0356,1.0190,-0.0610,0.3662,-0.1221,1,466,879,0
61707537,806,-0.0420,0.0361,1.0195,0.0000,0.3052,0.0000,1,484,901,0
61712539,807,-0.0410,0.0376,1.0205,0.0610,0.1831,-0.0610,1,476,807,0
61717540,808,-0.0405,0.0396,1.0215,0.0000,0.1831,-0.1831,1,465,868,0
61722543,809,-0.0410,0.0405,1.0220,0.0610,0.4272,-0.1831,1,469,817,0
61727538,810,-0.0410,0.0386,1.0210,0.0610,0.1831,-0.2441,1,473,862,0
61732538,811,-0.0391,0.0366,1.0205,0.0000,0.1831,-0.1831,1,466,868,0
61737536,812,-0.0376,0.0376,1.0215,0.1831,0.3052,-0.1831,1,494,808,0
61742534,813,-0.0391,0.0371,1.0181,0.1831,0.4883,-0.3662,1,481,880,0
61747538,814,-0.0420,0.0361,1.0132,0.1221,0.3052,-0.3662,1,505,850,0
61752538,815,-0.0430,0.0356,1.0132,0.1831,0.0000,-0.3052,1,464,849,0
61757538,816,-0.0410,0.0366,1.0181,0.2441,0.0610,-0.2441,1,488,798,0
61762536,817,-0.0400,0.0386,1.0215,0.1831,0.4272,-0.3052,1,478,844,0
61767542,818,-0.0410,0.0405,1.0210,0.1221,0.3052,-0.2441,1,488,869,0
61772535,819,-0.0420,0.0410,1.0190,-0.0610,0.4272,-0.3052,1,492,836,0
61777536,820,-0.0430,0.0376,1.0166,-0.0610,0.5493,-0.3662,1,478,840,0
61782536,821,-0.0439,0.0337,1.0142,0.0610,0.4272,-0.3662,1,493,845,0
61787536,822,-0.0439,0.0327,1.0137,0.1831,0.3662,-0.1221,1,466,872,0
61792540,823,-0.0430,0.0347,1.0151,0.1831,0.3662,-0.0610,1,466,876,0
61797539,824,-0.0415,0.0376,1.0171,0.3052,0.4272,-0.1221,1,466,874,0
61802536,825,-0.0415,0.0386,1.0176,0.1221,0.5493,-0.2441,1,466,867,0
61807534,826,-0.0415,0.0376,1.0176,0.2441,0.5493,-0.1221,1,483,872,0
61812540,827,-0.0415,0.0356,1.0176,0.2441,0.4272,-0.1221,1,465,862,0
61817538,828,-0.0415,0.0347,1.0166,0.3052,0.3662,-0.1831,1,484,864,0
61822539,829,-0.0425,0.0356,1.0156,0.5493,0.3662,-0.1221,1,468,903,0
61827534,830,-0.0425,0.0376,1.0171,0.6714,0.1831,-0.0610,1,474,865,0
61832546,831,-0.0415,0.0405,1.0215,0.7324,0.1831,-0.1221,1,483,892,0
61837539,832,-0.0410,0.0420,1.0239,0.4883,0.2441,-0.1831,1,472,871,0
61842534,833,-0.0405,0.0410,1.0234,0.3662,0.2441,-0.1221,1,506,873,0
61847540,834,-0.0405,0.0405,1.0215,0.3662,0.2441,-0.1831,1,467,854,0
61852538,835,-0.0405,0.0405,1.0200,0.4272,0.1221,-0.3662,1,506,857,0
61857537,836,-0.0396,0.0410,1.0190,0.2441,0.1221,-0.3662,1,466,851,0
61862536,837,-0.0396,0.0420,1.0205,0.3052,0.1831,-0.3662,1,473,843,0
61867536,838,-0.0415,0.0415,1.0220,0.1221,0.2441,-0.3052,1,482,841,0
61872540,839,-0.0435,0.0396,1.0205,0.0610,0.1831,-0.2441,1,489,870,0
61877537,840,-0.0435,0.0366,1.0195,0.1221,0.0000,-0.1221,1,473,843,0
61882539,841,-0.0420,0.0361,1.0195,0.3662,-0.1221,-0.1221,1,474,795,0
61887540,842,-0.0410,0.0376,1.0190,0.2441,-0.0610,-0.1221,1,493,874,0
61892537,843,-0.0410,0.0396,1.0195,0.3662,-0.1221,0.0000,1,466,868,0
61897539,844,-0.0410,0.0410,1.0210,0.0000,-0.0610,-0.0610,1,466,826,0
61902535,845,-0.0405,0.0410,1.0215,-0.1221,-0.0610,0.0000,1,466,820,0
61907539,846,-0.0410,0.0400,1.0210,-0.1221,0.0000,0.0000,1,466,852,0
61912542,847,-0.0420,0.0400,1.0195,-0.1831,0.1221,0.1221,1,483,762,0
61917542,848,-0.0439,0.0405,1.0186,-0.2441,-0.0610,0.0610,1,465,857,0
61922537,849,-0.0435,0.0391,1.0186,-0.3662,-0.0610,-0.0610,1,484,860,0
61927539,850,-0.0415,0.0366,1.0205,-0.4272,-0.0610,-0.0610,1,466,893,0
61932535,851,-0.0400,0.0376,1.0229,-0.2441,0.1221,0.0000,1,467,865,0
61937546,852,-0.0400,0.0405,1.0225,-0.3662,0.0000,-0.1221,1,476,778,0
61942541,853,-0.0405,0.0400,1.0190,-0.4883,0.0000,-0.1831,1,470,804,0
61947542,854,-0.0415,0.0366,1.0161,-0.4272,0.1221,-0.1831,1,502,808,0
61952536,855,-0.0420,0.0332,1.0142,-0.3052,0.1831,0.0000,1,465,858,0
61957540,856,-0.0420,0.0332,1.0142,-0.3052,0.1221,0.0000,1,512,732,0
61962536,857,-0.0420,0.0356,1.0161,-0.2441,0.1831,0.0000,1,469,791,0
61967541,858,-0.0415,0.0386,1.0176,-0.2441,0.2441,0.0000,1,483,804,0
61972534,859,-0.0415,0.0396,1.0186,-0.1831,0.2441,-0.0610,1,488,824,0
61977537,860,-0.0410,0.0376,1.0190,-0.1831,0.3052,-0.1221,1,482,865,0
61982541,861,-0.0410,0.0356,1.0195,-0.1831,0.1831,0.0610,1,480,839,0
61987539,862,-0.0410,0.0366,1.0200,-0.1831,0.2441,0.0000,1,485,849,0
61992536,863,-0.0400,0.0381,1.0200,-0.1831,0.3052,0.0000,1,492,802,0
61997540,864,-0.0400,0.0396,1.0200,0.0000,0.2441,-0.0610,1,466,819,0
62002537,865,-0.0405,0.0405,1.0200,-0.1221,0.2441,-0.0610,1,466,821,0
62007542,866,-0.0410,0.0386,1.0205,-0.1831,0.4272,-0.0610,1,466,868,0
62012536,867,-0.0420,0.0361,1.0200,0.0000,0.3662,0.0000,1,466,874,0
62017538,868,-0.0420,0.0342,1.0181,0.0000,0.3662,-0.0610,1,484,718,0
62022540,869,-0.0420,0.0347,1.0171,0.1221,0.3052,-0.0610,1,469,743,0
62027539,870,-0.0415,0.0371,1.0181,0.1221,0.2441,-0.0610,1,484,774,0
62032542,871,-0.0405,0.0400,1.0200,0.0610,0.1221,0.0000,1,483,896,0
62037535,872,-0.0396,0.0410,1.0200,0.1221,0.4272,-0.0610,1,465,807,0
62042537,873,-0.0400,0.0376,1.0171,0.0610,0.4883,-0.2441,1,477,855,0
62047540,874,-0.0410,0.0327,1.0151,0.0610,0.2441,-0.2441,1,474,819,0
62052536,875,-0.0410,0.0312,1.0156,0.4272,0.1831,-0.0610,1,505,859,0
62057538,876,-0.0415,0.0347,1.0200,0.4272,0.2441,-0.1221,1,488,909,0
62062539,877,-0.0405,0.0396,1.0225,0.4272,0.3662,-0.1831,1,510,750,0
62067537,878,-0.0396,0.0415,1.0205,0.3662,0.3662,-0.1221,1,492,856,0
62072541,879,-0.0410,0.0391,1.0171,0.3662,0.2441,-0.0610,1,483,845,0
62077540,880,-0.0439,0.0352,1.0161,0.5493,0.3662,0.0000,1,492,838,0
62082535,881,-0.0444,0.0342,1.0176,0.6714,0.3662,-0.1221,1,473,803,0
62087542,882,-0.0420,0.0356,1.0190,0.7935,0.3052,-0.1831,1,490,840,0
62092538,883,-0.0405,0.0376,1.0195,0.8545,0.2441,0.0000,1,488,872,0
62097538,884,-0.0415,0.0386,1.0176,0.8545,0.3052,0.0000,1,466,800,0
62102534,885,-0.0425,0.0371,1.0171,0.7935,0.3052,-0.0610,1,465,820,0
62107537,886,-0.0420,0.0356,1.0181,0.9155,0.3662,0.0610,1,466,863,0
62112536,887,-0.0415,0.0366,1.0186,0.8545,0.3052,0.0000,1,466,871,0
62117541,888,-0.0425,0.0381,1.0176,0.7935,0.3052,-0.1221,1,484,824,0
62122535,889,-0.0435,0.0376,1.0156,0.7324,0.3662,-0.1831,1,465,850,0
62127540,890,-0.0444,0.0356,1.0146,0.7935,0.2441,-0.0610,1,484,866,0
62132541,891,-0.0430,0.0356,1.0166,0.7935,0.2441,-0.1221,1,465,904,0
62137540,892,-0.0410,0.0381,1.0200,0.8545,0.2441,-0.0610,1,470,864,0
62142548,893,-0.0396,0.0410,1.0239,0.7935,0.1831,-0.1221,1,475,894,0
62147568,894,-0.0371,0.0435,1.0283,0.5493,0.3662,-0.3052,1,474,869,0
62152536,895,-0.0361,0.0444,1.0293,0.4883,0.7324,-0.3052,1,481,872,0
62157539,896,-0.0396,0.0415,1.0244,0.4272,0.7935,-0.3662,1,473,852,0
62162537,897,-0.0430,0.0381,1.0186,0.3052,0.5493,-0.4272,1,512,856,0
62167543,898,-0.0439,0.0381,1.0181,0.3052,0.5493,-0.4272,1,482,848,0
62172535,899,-0.0430,0.0410,1.0200,0.3052,0.6104,-0.4883,1,486,839,0
62177535,900,-0.0415,0.0425,1.0215,0.2441,0.6104,-0.4883,1,485,834,0
62182541,901,-0.0415,0.0410,1.0205,0.2441,0.6104,-0.3662,1,485,868,0
62187534,902,-0.0420,0.0391,1.0200,0.1831,0.6104,-0.3052,1,490,845,0
62192537,903,-0.0415,0.0391,1.0205,0.2441,0.4883,-0.3662,1,481,832,0
62197534,904,-0.0410,0.0400,1.0210,0.2441,0.6104,-0.4272,1,493,845,0
62202540,905,-0.0405,0.0420,1.0220,0.1831,0.5493,-0.5493,1,466,867,0
62207539,906,-0.0400,0.0435,1.0220,0.0000,0.4272,-0.4883,1,466,907,0
62212540,907,-0.0400,0.0425,1.0195,0.0000,0.4883,-0.3662,1,465,824,0
62217541,908,-0.0405,0.0410,1.0181,0.0000,0.5493,-0.3662,1,466,826,0
62222540,909,-0.0420,0.0405,1.0195,0.0610,0.4272,-0.4272,1,465,760,0
62227537,910,-0.0420,0.0400,1.0220,0.0610,0.4883,-0.4883,1,484,863,0
62232538,911,-0.0410,0.0405,1.0234,-0.0610,0.4883,-0.4883,1,465,893,0
62237540,912,-0.0400,0.0420,1.0234,-0.1831,0.4272,-0.4272,1,483,930,0
62242539,913,-0.0415,0.0425,1.0225,-0.3052,0.4883,-0.4272,1,482,866,0
62247552,914,-0.0425,0.0410,1.0215,-0.3662,0.4883,-0.4272,1,466,822,0
62252537,915,-0.0415,0.0400,1.0220,-0.4883,0.5493,-0.6104,1,478,869,0
62257537,916,-0.0410,0.0420,1.0229,-0.6104,0.4272,-0.4272,1,498,851,0
62262542,917,-0.0405,0.0444,1.0244,-0.7324,0.4272,-0.3052,1,497,854,0
62267538,918,-0.0405,0.0444,1.0244,-0.8545,0.6104,-0.3052,1,466,753,0
62272534,919,-0.0415,0.0430,1.0234,-0.9766,0.7324,-0.4883,1,480,840,0
62277540,920,-0.0430,0.0405,1.0215,-0.9766,0.6714,-0.3662,1,490,846,0
62282540,921,-0.0435,0.0396,1.0186,-1.0376,0.4883,-0.3662,1,485,842,0
62287534,922,-0.0430,0.0381,1.0161,-1.0986,0.4883,-0.4272,1,490,868,0
62292534,923,-0.0435,0.0361,1.0146,-1.0376,0.3662,-0.4272,1,483,843,0
62297535,924,-0.0415,0.0386,1.0181,-0.9155,0.1831,-0.1831,1,488,849,0
62302538,925,-0.0391,0.0415,1.0229,-1.0376,0.3662,-0.4272,1,465,847,0
62307540,926,-0.0410,0.0405,1.0234,-1.0376,0.3662,-0.2441,1,466,872,0
62312540,927,-0.0435,0.0386,1.0205,-0.9155,0.2441,-0.1831,1,466,907,0
62317555,928,-0.0435,0.0371,1.0181,-0.9155,0.2441,-0.3662,1,466,876,0
62322539,929,-0.0420,0.0366,1.0181,-0.9155,0.3052,-0.3052,1,466,876,0
62327538,930,-0.0410,0.0371,1.0186,-0.9155,0.3052,-0.1831,1,465,866,0
62332537,931,-0.0410,0.0391,1.0186,-0.9766,0.3662,-0.2441,1,484,862,0
62337539,932,-0.0420,0.0386,1.0195,-0.9155,0.2441,-0.1831,1,466,867,0
62342534,933,-0.0415,0.0361,1.0195,-1.0376,0.1831,-0.2441,1,470,919,0
62347535,934,-0.0410,0.0332,1.0186,-0.8545,0.2441,-0.2441,1,479,870,0
62352549,935,-0.0420,0.0332,1.0181,-0.6104,0.3052,-0.2441,1,483,865,0
62357537,936,-0.0420,0.0361,1.0190,-0.7935,0.2441,-0.2441,1,473,863,0
62362543,937,-0.0420,0.0386,1.0205,-0.9766,0.3662,-0.3662,1,492,858,0
62367543,938,-0.0415,0.0386,1.0215,-0.9766,0.3662,-0.3662,1,484,852,0
62372540,939,-0.0415,0.0366,1.0205,-0.8545,0.4883,-0.4272,1,511,775,0
62377541,940,-0.0420,0.0352,1.0190,-0.9766,0.4883,-0.2441,1,491,780,0
62382538,941,-0.0415,0.0332,1.0176,-0.7935,0.5493,-0.3662,1,479,842,0
62387534,942,-0.0420,0.0327,1.0151,-0.6714,0.4883,-0.3662,1,482,849,0
62392541,943,-0.0430,0.0337,1.0151,-0.4883,0.3052,-0.1831,1,471,847,0
62397536,944,-0.0420,0.0352,1.0176,-0.5493,0.2441,-0.2441,1,475,841,0
62402541,945,-0.0410,0.0361,1.0195,-0.4883,0.3052,-0.1831,1,483,849,0
62407541,946,-0.0410,0.0366,1.0200,-0.3662,0.4883,-0.1221,1,493,844,0
62412541,947,-0.0415,0.0371,1.0205,-0.3662,0.3052,-0.0610,1,465,870,0
62417543,948,-0.0415,0.0347,1.0176,-0.1221,0.3662,-0.0610,1,466,903,0
62422538,949,-0.0435,0.0347,1.0166,-0.1831,0.3052,-0.1221,1,466,870,0
62427539,950,-0.0444,0.0347,1.0166,-0.0610,0.1831,-0.1831,1,466,869,0
62432536,951,-0.0439,0.0352,1.0171,0.0000,0.4272,-0.0610,1,465,877,0
62437538,952,-0.0435,0.0361,1.0171,0.1831,0.3052,-0.1221,1,485,759,0
62442535,953,-0.0430,0.0371,1.0186,0.1831,0.3662,-0.1831,1,465,863,0
62447536,954,-0.0425,0.0381,1.0205,0.1831,0.1831,-0.0610,1,471,918,0
62452541,955,-0.0425,0.0391,1.0210,0.2441,0.2441,-0.1831,1,471,860,0
62457543,956,-0.0425,0.0386,1.0200,0.0610,0.2441,-0.1831,1,471,861,0
62462541,957,-0.0420,0.0356,1.0186,0.1831,0.1221,-0.1221,1,474,868,0
62467539,958,-0.0420,0.0347,1.0186,0.2441,0.1831,-0.1221,1,504,849,0
62472538,959,-0.0415,0.0366,1.0186,0.1831,0.1831,0.0000,1,485,849,0
62477534,960,-0.0400,0.0386,1.0190,0.2441,0.2441,-0.2441,1,466,757,0
62482534,961,-0.0391,0.0376,1.0195,0.1831,0.3662,-0.1831,1,480,819,0
62487534,962,-0.0400,0.0361,1.0195,0.1831,0.4272,-0.1221,1,481,845,0
62492541,963,-0.0420,0.0352,1.0190,0.3052,0.3052,-0.1221,1,490,845,0
62497537,964,-0.0430,0.0342,1.0181,0.3662,0.3662,0.0000,1,490,832,0
62502534,965,-0.0425,0.0337,1.0171,0.5493,0.4272,-0.1831,1,483,826,0
62507540,966,-0.0425,0.0332,1.0161,0.8545,0.3052,-0.1221,1,490,844,0
62512536,967,-0.0425,0.0342,1.0161,0.9766,0.1831,-0.0610,1,493,839,0
62517534,968,-0.0425,0.0361,1.0181,1.0986,0.1831,0.0000,1,466,869,0
62522535,969,-0.0425,0.0386,1.0200,1.0376,0.1831,0.0000,1,466,827,0
62527558,970,-0.0410,0.0400,1.0220,1.0376,0.2441,-0.1831,1,466,822,0
62532537,971,-0.0400,0.0400,1.0229,1.0376,0.3052,-0.1221,1,466,872,0
62537542,972,-0.0400,0.0391,1.0215,0.9155,0.4272,-0.0610,1,484,862,0
62542540,973,-0.0410,0.0386,1.0200,0.7324,0.3662,0.0000,1,471,855,0
62547538,974,-0.0420,0.0386,1.0195,0.9766,0.1221,0.0000,1,484,854,0
62552535,975,-0.0430,0.0400,1.0190,0.8545,0.1831,-0.0610,1,482,811,0
62557536,976,-0.0430,0.0400,1.0186,0.6104,0.2441,-0.1221,1,465,858,0
62562541,977,-0.0415,0.0376,1.0186,0.4883,0.1831,-0.0610,1,467,854,0
62567539,978,-0.0410,0.0366,1.0190,0.6104,0.4883,-0.1221,1,465,868,0
62572537,979,-0.0430,0.0386,1.0181,0.6104,0.4883,-0.1221,1,494,848,0
62577534,980,-0.0435,0.0400,1.0171,0.4883,0.4883,-0.1221,1,471,774,0
62582536,981,-0.0430,0.0400,1.0171,0.4883,0.4883,-0.2441,1,512,841,0
62587534,982,-0.0410,0.0381,1.0186,0.3052,0.6104,-0.1831,1,464,810,0
62592542,983,-0.0405,0.0366,1.0181,0.2441,0.6104,-0.1221,1,483,835,0
62597534,984,-0.0415,0.0361,1.0186,0.2441,0.5493,-0.1831,1,479,838,0
62602534,985,-0.0425,0.0366,1.0195,0.3662,0.4272,-0.1831,1,473,882,0
62607539,986,-0.0430,0.0376,1.0190,0.3052,0.5493,-0.1831,1,481,851,0
62612534,987,-0.0430,0.0381,1.0190,0.4883,0.6104,-0.2441,1,478,843,0
62617537,988,-0.0425,0.0386,1.0200,0.5493,0.6104,-0.2441,1,477,839,0
62622541,989,-0.0420,0.0391,1.0190,0.6104,0.6104,-0.1831,1,493,842,0
62627540,990,-0.0415,0.0376,1.0181,0.6104,0.6104,-0.2441,1,466,863,0
62632538,991,-0.0425,0.0361,1.0171,0.6714,0.6714,-0.1831,1,466,866,0
62637556,992,-0.0444,0.0366,1.0166,0.6714,0.5493,-0.1831,1,466,871,0
62642535,993,-0.0459,0.0376,1.0171,0.8545,0.6104,-0.1221,1,466,881,0
62647538,994,-0.0454,0.0386,1.0161,0.9155,0.4272,-0.0610,1,465,860,0
62652538,995,-0.0449,0.0381,1.0156,0.9766,0.4272,-0.1221,1,474,865,0
62657538,996,-0.0449,0.0366,1.0171,0.8545,0.2441,-0.1831,1,466,868,0
62662538,997,-0.0430,0.0366,1.0200,1.0376,0.0610,-0.1831,1,482,902,0
62667536,998,-0.0420,0.0405,1.0215,1.0986,0.3052,-0.1831,1,465,860,0
62672548,999,-0.0420,0.0444,1.0225,0.9155,0.1831,-0.2441,1,472,860,0
62677537,1000,-0.0420,0.0444,1.0215,0.6104,0.1221,-0.3662,1,465,875,0
62682540,1001,-0.0425,0.0420,1.0195,0.4883,0.1221,-0.2441,1,499,849,0
62687541,1002,-0.0415,0.0420,1.0190,0.3052,0.1221,-0.2441,1,473,851,0
62692542,1003,-0.0405,0.0425,1.0210,0.1221,0.2441,-0.2441,1,512,849,0
62697535,1004,-0.0405,0.0420,1.0210,0.0610,0.2441,-0.3052,1,465,864,0
62702537,1005,-0.0410,0.0415,1.0195,-0.1221,0.4272,-0.3052,1,475,837,0
62707540,1006,-0.0430,0.0415,1.0195,-0.1831,0.3662,-0.3052,1,480,842,0
62712541,1007,-0.0435,0.0410,1.0205,-0.2441,0.3052,-0.2441,1,483,877,0
62717534,1008,-0.0425,0.0405,1.0215,-0.3052,0.3052,-0.1831,1,483,844,0
62722540,1009,-0.0420,0.0396,1.0225,-0.4272,0.4272,-0.1831,1,476,839,0
62727539,1010,-0.0415,0.0396,1.0220,-0.3052,0.2441,-0.1831,1,493,847,0
62732538,1011,-0.0410,0.0396,1.0205,-0.4272,0.4883,-0.0610,1,466,873,0
62737537,1012,-0.0410,0.0400,1.0210,-0.4272,0.5493,-0.0610,1,466,871,0
62742537,1013,-0.0415,0.0415,1.0225,-0.6714,0.4272,-0.1221,1,466,871,0
62747541,1014,-0.0410,0.0415,1.0244,-0.9766,0.7324,-0.3052,1,466,873,0
62752541,1015,-0.0410,0.0396,1.0244,-0.5493,0.8545,-0.7324,1,483,874,0
62757542,1016,-0.0435,0.0371,1.0220,-0.7935,0.7324,-0.3662,1,465,867,0
62762542,1017,-0.0464,0.0356,1.0190,-0.8545,0.4883,-0.1221,1,484,865,0
62767537,1018,-0.0459,0.0356,1.0166,-0.4883,0.2441,0.0000,1,469,898,0
62772537,1019,-0.0430,0.0366,1.0171,-0.5493,0.3052,0.0610,1,479,828,0
62777543,1020,-0.0420,0.0381,1.0195,-0.4272,0.6104,0.0610,1,465,857,0
62782561,1021,-0.0415,0.0386,1.0200,-0.5493,0.5493,0.0000,1,481,820,0
62787542,1022,-0.0420,0.0371,1.0176,-0.3662,0.6104,-0.2441,1,471,842,0
62792534,1023,-0.0435,0.0366,1.0151,-0.5493,0.4883,-0.0610,1,470,854,0
62797538,1024,-0.0435,0.0371,1.0166,-0.4272,0.4883,-0.2441,1,512,855,0
62802538,1025,-0.0420,0.0376,1.0200,-0.6104,0.6714,-0.0610,1,471,873,0
62807534,1026,-0.0415,0.0361,1.0210,-0.6714,0.7324,-0.1221,1,485,835,0
62812542,1027,-0.0425,0.0356,1.0190,-0.4883,0.6714,-0.1831,1,479,845,0
62817537,1028,-0.0439,0.0366,1.0176,-0.5493,0.6104,-0.3662,1,483,866,0
62822534,1029,-0.0444,0.0371,1.0181,-0.4883,0.4883,-0.3052,1,492,847,0
62827542,1030,-0.0439,0.0366,1.0186,-0.4272,0.6104,-0.3662,1,481,839,0
62832537,1031,-0.0430,0.0356,1.0186,-0.4883,0.6104,-0.3662,1,493,848,0
62837535,1032,-0.0425,0.0352,1.0186,-0.3662,0.5493,-0.1831,1,466,872,0
62842538,1033,-0.0435,0.0352,1.0181,-0.3052,0.4272,-0.2441,1,465,876,0
62847537,1034,-0.0449,0.0366,1.0181,-0.1221,0.3662,-0.1831,1,465,869,0
62852540,1035,-0.0449,0.0371,1.0195,-0.1221,0.3662,-0.1221,1,483,874,0
62857540,1036,-0.0439,0.0361,1.0205,-0.1831,0.5493,-0.1831,1,465,863,0
62862538,1037,-0.0435,0.0361,1.0195,0.0000,0.4272,-0.1831,1,484,871,0
62867536,1038,-0.0439,0.0366,1.0186,0.1221,0.3662,-0.1221,1,465,823,0
62872534,1039,-0.0435,0.0366,1.0190,0.0610,0.3662,-0.1831,1,472,861,0
62877536,1040,-0.0420,0.0371,1.0205,0.2441,0.3052,-0.0610,1,479,872,0
62882540,1041,-0.0415,0.0386,1.0210,0.3052,0.1831,-0.0610,1,481,869,0
62887534,1042,-0.0425,0.0386,1.0200,0.1831,0.2441,-0.1221,1,505,866,0
62892539,1043,-0.0435,0.0366,1.0195,0.1221,0.3052,-0.1831,1,492,882,0
62897542,1044,-0.0444,0.0347,1.0195,0.3052,0.2441,-0.1221,1,503,851,0
62902538,1045,-0.0444,0.0352,1.0186,0.5493,0.1831,0.0000,1,466,785,0
62907540,1046,-0.0444,0.0366,1.0171,0.4272,0.0610,-0.1221,1,483,801,0
62912535,1047,-0.0454,0.0361,1.0171,0.6104,0.0000,-0.3052,1,492,840,0
62917535,1048,-0.0444,0.0342,1.0190,0.7324,-0.1221,-0.1221,1,486,793,0
62922534,1049,-0.0425,0.0347,1.0205,0.8545,-0.1831,-0.1221,1,486,842,0
62927535,1050,-0.0425,0.0391,1.0225,0.9155,-0.1831,-0.1831,1,476,842,0
62932540,1051,-0.0420,0.0425,1.0254,0.8545,-0.1221,-0.1221,1,493,844,0
62937542,1052,-0.0425,0.0405,1.0249,0.7935,0.0610,-0.3052,1,466,863,0
62942535,1053,-0.0435,0.0361,1.0210,0.8545,0.2441,-0.3052,1,466,868,0
62947543,1054,-0.0439,0.0337,1.0176,1.0986,0.0000,-0.1831,1,466,868,0
62952536,1055,-0.0435,0.0356,1.0161,1.0986,-0.0610,-0.3052,1,466,859,0
62957537,1056,-0.0430,0.0396,1.0171,1.0376,0.0000,-0.3052,1,484,873,0
62962542,1057,-0.0425,0.0430,1.0181,0.9766,-0.0610,-0.3662,1,473,760,0
62967540,1058,-0.0430,0.0435,1.0195,0.9766,0.0610,-0.3052,1,484,809,0
62972540,1059,-0.0444,0.0391,1.0195,0.9155,0.0610,-0.3662,1,481,894,0
62977539,1060,-0.0439,0.0337,1.0200,0.9766,-0.1831,-0.3662,1,466,864,0
62982552,1061,-0.0430,0.0366,1.0210,1.1597,-0.2441,-0.2441,1,469,865,0
62987542,1062,-0.0439,0.0464,1.0229,1.0376,-0.1221,-0.1221,1,480,875,0
62992542,1063,-0.0425,0.0527,1.0254,0.3662,-0.2441,-0.2441,1,474,849,0
62997537,1064,-0.0405,0.0469,1.0249,0.0610,0.1221,-0.3052,1,480,860,0
63002536,1065,-0.0415,0.0366,1.0200,0.1831,0.3662,-0.2441,1,512,765,0
63007536,1066,-0.0420,0.0322,1.0176,0.3662,0.0000,-0.1221,1,484,805,0
63012538,1067,-0.0420,0.0361,1.0181,0.4883,-0.0610,-0.1831,1,474,826,0
63017542,1068,-0.0435,0.0415,1.0195,0.4883,-0.0610,-0.1831,1,483,843,0
63022540,1069,-0.0439,0.0420,1.0200,0.1831,0.0610,-0.2441,1,480,872,0
63027541,1070,-0.0430,0.0381,1.0200,0.4272,0.1221,-0.2441,1,492,844,0
63032537,1071,-0.0420,0.0356,1.0200,0.5493,0.0000,-0.1221,1,474,840,0
63037537,1072,-0.0410,0.0376,1.0205,0.5493,0.0610,-0.0610,1,493,797,0
63042536,1073,-0.0405,0.0405,1.0215,0.4272,0.0610,-0.0610,1,466,870,0
63047536,1074,-0.0430,0.0415,1.0210,0.3052,0.2441,-0.2441,1,465,870,0
63052542,1075,-0.0444,0.0391,1.0176,0.3052,0.2441,-0.1831,1,466,872,0
63057540,1076,-0.0449,0.0371,1.0146,0.4272,0.0610,-0.0610,1,466,870,0
63062534,1077,-0.0449,0.0376,1.0146,0.4272,0.1221,-0.1831,1,465,875,0
63067542,1078,-0.0439,0.0396,1.0166,0.3052,0.0000,-0.1831,1,484,864,0
63072536,1079,-0.0420,0.0415,1.0190,0.2441,0.0610,-0.1831,1,466,890,0
63077535,1080,-0.0410,0.0415,1.0200,0.2441,0.0610,-0.1831,1,481,929,0
63082542,1081,-0.0425,0.0400,1.0190,0.2441,0.0000,-0.0610,1,465,871,0
63087535,1082,-0.0435,0.0391,1.0176,0.2441,0.0610,-0.0610,1,465,805,0
63092541,1083,-0.0435,0.0391,1.0171,0.1221,0.0000,0.0000,1,475,847,0
63097540,1084,-0.0430,0.0396,1.0176,0.1221,0.0000,0.0000,1,499,648,0
63102538,1085,-0.0420,0.0405,1.0181,0.0000,0.0610,-0.0610,1,491,738,0
63107535,1086,-0.0420,0.0415,1.0186,0.0610,0.0610,-0.0610,1,510,781,0
63112536,1087,-0.0425,0.0420,1.0181,0.1831,0.1221,0.0000,1,478,837,0
63117537,1088,-0.0435,0.0410,1.0176,0.1221,0.1221,-0.0610,1,484,822,0
63122537,1089,-0.0444,0.0391,1.0190,0.0610,0.0610,0.0000,1,485,864,0
63127534,1090,-0.0444,0.0376,1.0181,0.1221,0.0610,0.0000,1,475,792,0
63132540,1091,-0.0430,0.0376,1.0166,0.1831,0.1221,-0.0610,1,490,792,0
63137541,1092,-0.0420,0.0371,1.0166,0.2441,0.0610,0.0610,1,488,840,0
63142534,1093,-0.0415,0.0366,1.0171,0.4272,0.0610,0.0000,1,466,845,0
63147535,1094,-0.0420,0.0376,1.0190,0.4883,0.0610,0.0610,1,466,826,0
63152539,1095,-0.0430,0.0396,1.0200,0.6104,0.0610,0.0000,1,466,866,0
63157541,1096,-0.0439,0.0410,1.0181,0.7324,0.1221,-0.1221,1,466,848,0
63162536,1097,-0.0444,0.0405,1.0156,0.5493,0.0000,0.0000,1,484,867,0
63167538,1098,-0.0449,0.0396,1.0156,0.6104,0.0000,-0.1221,1,467,813,0
63172542,1099,-0.0430,0.0391,1.0186,0.7324,0.0610,0.0000,1,484,849,0
63177537,1100,-0.0410,0.0400,1.0215,0.8545,0.0610,0.0000,1,475,811,0
63182536,1101,-0.0410,0.0415,1.0225,0.7324,0.0000,-0.0610,1,465,810,0
63187535,1102,-0.0405,0.0405,1.0215,0.6104,0.0610,-0.0610,1,472,824,0
63192568,1103,-0.0400,0.0405,1.0200,0.6714,0.0610,-0.0610,1,477,864,0
63197535,1104,-0.0415,0.0415,1.0190,0.7324,0.0610,0.0000,1,472,845,0
63202536,1105,-0.0439,0.0415,1.0171,0.7935,0.1221,0.0000,1,480,743,0
63207535,1106,-0.0464,0.0410,1.0161,0.7935,0.0610,-0.0610,1,511,737,0
63212540,1107,-0.0459,0.0391,1.0166,0.6104,-0.1221,-0.0610,1,474,849,0
63217536,1108,-0.0435,0.0376,1.0176,0.8545,-0.1831,0.0610,1,476,834,0
63222540,1109,-0.0425,0.0391,1.0171,1.0376,-0.1831,0.0610,1,478,841,0
63227535,1110,-0.0420,0.0415,1.0171,0.9766,-0.1221,0.0610,1,484,836,0
63232537,1111,-0.0430,0.0435,1.0171,0.9766,0.0000,0.0610,1,474,836,0
63237536,1112,-0.0435,0.0420,1.0161,0.9155,-0.0610,-0.0610,1,480,790,0
63242539,1113,-0.0435,0.0391,1.0166,0.9155,-0.1831,-0.0610,1,493,842,0
63247540,1114,-0.0420,0.0386,1.0190,1.1597,-0.2441,-0.0610,1,466,870,0
63252539,1115,-0.0400,0.0405,1.0195,1.1597,-0.1831,-0.0610,1,466,874,0
63257548,1116,-0.0396,0.0430,1.0205,1.0986,-0.1831,-0.1221,1,466,874,0
63262541,1117,-0.0405,0.0439,1.0210,1.0986,-0.1221,-0.1831,1,466,872,0
63267542,1118,-0.0410,0.0425,1.0200,1.0376,-0.1221,-0.1831,1,484,873,0
63272541,1119,-0.0410,0.0405,1.0205,1.0986,-0.0610,-0.0610,1,473,857,0
63277541,1120,-0.0400,0.0435,1.0254,0.9766,0.0000,-0.2441,1,465,870,0
63282538,1121,-0.0391,0.0454,1.0264,0.9766,-0.0610,-0.2441,1,465,814,0
63287543,1122,-0.0386,0.0449,1.0244,0.7935,0.2441,-0.1221,1,472,859,0
63292541,1123,-0.0400,0.0439,1.0195,0.6714,0.2441,-0.1831,1,474,863,0
63297539,1124,-0.0425,0.0430,1.0161,0.4883,0.0610,-0.2441,1,480,875,0
63302535,1125,-0.0430,0.0415,1.0156,0.4272,0.0000,-0.2441,1,509,851,0
63307535,1126,-0.0435,0.0410,1.0166,0.6714,0.0000,-0.1831,1,483,738,0
63312541,1127,-0.0430,0.0425,1.0166,0.6714,-0.0610,-0.1221,1,512,761,0
63317535,1128,-0.0415,0.0444,1.0186,0.4883,-0.0610,-0.1221,1,479,792,0
63322536,1129,-0.0400,0.0439,1.0205,0.4272,-0.0610,-0.1831,1,475,840,0
63327542,1130,-0.0400,0.0435,1.0200,0.3662,0.0000,-0.2441,1,476,847,0
63332540,1131,-0.0415,0.0435,1.0176,0.3662,0.0610,-0.4272,1,482,797,0
63337537,1132,-0.0420,0.0430,1.0171,0.4272,-0.0610,-0.1831,1,492,844,0
63342542,1133,-0.0415,0.0415,1.0171,0.4883,-0.0610,-0.1831,1,477,841,0
63347539,1134,-0.0415,0.0415,1.0186,0.4272,0.0000,-0.2441,1,493,844,0
63352538,1135,-0.0415,0.0425,1.0220,0.4272,-0.0610,-0.1831,1,466,861,0
63357538,1136,-0.0405,0.0444,1.0254,0.3662,-0.1831,-0.3662,1,466,874,0
63362537,1137,-0.0400,0.0454,1.0259,0.2441,0.0610,-0.3662,1,466,878,0
63367540,1138,-0.0405,0.0439,1.0220,0.1831,0.1831,-0.2441,1,484,874,0
63372542,1139,-0.0410,0.0425,1.0176,0.2441,0.1831,-0.2441,1,466,878,0
63377539,1140,-0.0410,0.0425,1.0171,0.3052,0.0610,-0.2441,1,484,865,0
63382539,1141,-0.0405,0.0435,1.0190,0.2441,0.0000,-0.2441,1,465,895,0
63387538,1142,-0.0396,0.0444,1.0215,0.1221,0.0610,-0.3052,1,469,826,0
63392538,1143,-0.0400,0.0444,1.0225,0.0000,0.1221,-0.3662,1,472,891,0
63397550,1144,-0.0410,0.0439,1.0215,0.0000,0.2441,-0.3662,1,479,805,0
63402539,1145,-0.0420,0.0435,1.0205,0.0610,0.2441,-0.2441,1,469,814,0
63407537,1146,-0.0425,0.0439,1.0200,0.0610,0.1831,-0.3052,1,506,855,0
63412535,1147,-0.0415,0.0430,1.0190,-0.0610,0.3052,-0.2441,1,501,848,0
63417538,1148,-0.0405,0.0410,1.0190,0.1221,0.3662,-0.1831,1,464,796,0
63422541,1149,-0.0410,0.0415,1.0205,0.1831,0.3052,-0.2441,1,483,816,0
63427535,1150,-0.0415,0.0430,1.0200,0.0610,0.1831,-0.1221,1,483,845,0
63432535,1151,-0.0420,0.0430,1.0186,0.0610,0.2441,-0.2441,1,479,840,0
63437539,1152,-0.0430,0.0410,1.0171,0.1221,0.2441,-0.3662,1,491,844,0
63442534,1153,-0.0435,0.0405,1.0161,0.1831,0.3052,-0.3052,1,476,842,0
63447535,1154,-0.0430,0.0410,1.0176,0.2441,0.1831,-0.1221,1,492,840,0
63452535,1155,-0.0425,0.0420,1.0190,0.3052,0.1221,-0.2441,1,466,871,0
63457542,1156,-0.0420,0.0425,1.0205,0.3052,0.0610,-0.2441,1,466,897,0
63462551,1157,-0.0415,0.0449,1.0210,0.3052,0.1221,-0.3052,1,466,867,0
63467540,1158,-0.0396,0.0459,1.0205,0.2441,0.3662,-0.4272,1,466,864,0
63472542,1159,-0.0386,0.0454,1.0190,0.0610,0.5493,-0.3052,1,483,877,0
63477539,1160,-0.0405,0.0444,1.0166,-0.0610,0.4272,-0.4272,1,473,861,0
63482539,1161,-0.0430,0.0435,1.0142,0.0610,0.3662,-0.3662,1,465,876,0
63487536,1162,-0.0425,0.0435,1.0151,0.1221,0.1831,-0.3052,1,468,930,0
63492534,1163,-0.0405,0.0435,1.0176,0.0610,0.3052,-0.3662,1,477,857,0
63497540,1164,-0.0400,0.0430,1.0190,-0.0610,0.4272,-0.2441,1,466,820,0
63502540,1165,-0.0410,0.0425,1.0186,0.0000,0.4272,-0.2441,1,465,852,0
63507540,1166,-0.0420,0.0430,1.0181,-0.0610,0.4272,-0.1831,1,492,808,0
63512536,1167,-0.0420,0.0454,1.0186,-0.1221,0.5493,-0.1831,1,483,849,0
63517541,1168,-0.0410,0.0464,1.0200,-0.2441,0.5493,-0.2441,1,511,784,0
63522542,1169,-0.0396,0.0430,1.0210,-0.2441,0.4883,-0.3052,1,485,801,0
63527541,1170,-0.0405,0.0386,1.0195,-0.0610,0.6104,-0.3052,1,488,839,0
63532534,1171,-0.0430,0.0391,1.0166,0.0610,0.4883,-0.0610,1,478,868,0
63537535,1172,-0.0439,0.0425,1.0161,0.0610,0.3052,-0.1221,1,473,836,0
63542538,1173,-0.0425,0.0449,1.0195,0.0610,0.3052,-0.1831,1,484,838,0
63547537,1174,-0.0400,0.0444,1.0225,0.0000,0.4272,-0.1221,1,488,842,0
63552537,1175,-0.0391,0.0425,1.0225,0.0000,0.5493,-0.0610,1,466,796,0
63557534,1176,-0.0391,0.0420,1.0215,0.0000,0.6104,-0.1831,1,466,821,0
63562538,1177,-0.0405,0.0425,1.0205,0.0000,0.4883,-0.1831,1,466,821,0
63567536,1178,-0.0420,0.0430,1.0195,-0.0610,0.5493,-0.2441,1,466,856,0
63572535,1179,-0.0420,0.0430,1.0200,-0.0610,0.6714,-0.1831,1,483,877,0
63577543,1180,-0.0410,0.0425,1.0210,-0.0610,0.5493,-0.1221,1,467,858,0
63582543,1181,-0.0410,0.0430,1.0205,-0.1221,0.6104,-0.1221,1,484,856,0
63587540,1182,-0.0420,0.0439,1.0190,-0.0610,0.5493,-0.1831,1,467,903,0
63592535,1183,-0.0425,0.0449,1.0190,-0.1221,0.5493,-0.2441,1,476,865,0
63597542,1184,-0.0410,0.0449,1.0220,-0.3052,0.6714,-0.1831,1,482,872,0
63602558,1185,-0.0391,0.0435,1.0244,-0.4272,0.9155,-0.3052,1,481,870,0
63607535,1186,-0.0391,0.0410,1.0229,-0.4883,1.0376,-0.2441,1,467,850,0
63612542,1187,-0.0420,0.0400,1.0181,-0.3662,0.9766,-0.1831,1,494,883,0
63617538,1188,-0.0439,0.0415,1.0142,-0.3052,0.7324,0.0000,1,502,849,0
63622540,1189,-0.0435,0.0420,1.0137,-0.3052,0.8545,-0.1221,1,464,809,0
63627542,1190,-0.0425,0.0425,1.0156,-0.1831,0.9766,-0.0610,1,474,845,0
63632543,1191,-0.0420,0.0420,1.0176,-0.1831,0.8545,-0.0610,1,483,841,0
63637539,1192,-0.0435,0.0405,1.0171,-0.0610,0.9766,0.0000,1,473,841,0
63642537,1193,-0.0454,0.0396,1.0156,0.0000,0.9766,0.0000,1,486,791,0
63647541,1194,-0.0454,0.0405,1.0151,0.1221,0.7935,0.0000,1,476,752,0
63652539,1195,-0.0435,0.0435,1.0161,0.0000,0.7935,0.0000,1,492,797,0
63657535,1196,-0.0425,0.0439,1.0176,-0.1221,0.8545,0.0000,1,466,778,0
63662535,1197,-0.0425,0.0410,1.0181,0.0000,0.7324,0.0610,1,466,822,0
63667551,1198,-0.0435,0.0396,1.0161,0.0000,0.6714,-0.1221,1,466,822,0
63672542,1199,-0.0439,0.0400,1.0161,0.0000,0.6714,-0.1221,1,466,852,0
63677539,1200,-0.0430,0.0415,1.0176,0.1221,0.6104,0.0000,1,483,813,0
63682535,1201,-0.0415,0.0415,1.0190,0.3662,0.7324,0.0000,1,479,743,0
63687537,1202,-0.0415,0.0400,1.0200,0.4272,0.7324,-0.0610,1,466,889,0
63692539,1203,-0.0425,0.0400,1.0195,0.6104,0.7324,0.0000,1,472,930,0
63697534,1204,-0.0435,0.0410,1.0195,0.4883,0.7324,0.0610,1,477,815,0
63702541,1205,-0.0430,0.0410,1.0195,0.4883,0.7324,-0.1221,1,467,869,0
63707540,1206,-0.0430,0.0400,1.0176,0.6104,0.6104,-0.1221,1,466,851,0
63712543,1207,-0.0439,0.0405,1.0166,0.6714,0.6714,-0.0610,1,495,843,0
63717537,1208,-0.0439,0.0415,1.0171,0.7935,0.5493,-0.0610,1,483,853,0
63722539,1209,-0.0430,0.0420,1.0181,0.7324,0.5493,-0.0610,1,511,852,0
63727536,1210,-0.0420,0.0430,1.0186,0.7324,0.6714,-0.0610,1,464,850,0
63732535,1211,-0.0415,0.0430,1.0190,0.7324,0.6104,-0.0610,1,491,841,0
63737540,1212,-0.0415,0.0405,1.0200,0.5493,0.5493,-0.0610,1,480,871,0
63742537,1213,-0.0415,0.0366,1.0205,0.6104,0.6104,0.0610,1,485,867,0
63747543,1214,-0.0435,0.0356,1.0181,0.7935,0.9155,0.1831,1,478,839,0
63752541,1215,-0.0459,0.0400,1.0146,0.9766,0.7935,0.1831,1,481,844,0
63757538,1216,-0.0459,0.0439,1.0156,0.8545,0.6104,0.2441,1,493,841,0
63762536,1217,-0.0435,0.0444,1.0190,0.8545,0.7324,0.1831,1,465,872,0
63767541,1218,-0.0415,0.0439,1.0205,0.9766,0.8545,0.1831,1,465,877,0
63772541,1219,-0.0415,0.0425,1.0181,0.9766,0.7935,0.0000,1,466,875,0
63777537,1220,-0.0430,0.0400,1.0161,1.0986,0.7935,0.1831,1,483,822,0
63782538,1221,-0.0449,0.0396,1.0156,1.2207,0.7935,0.1831,1,466,861,0
63787534,1222,-0.0439,0.0415,1.0181,1.2207,0.7324,0.1221,1,484,810,0
63792535,1223,-0.0425,0.0430,1.0220,1.4038,0.8545,0.0000,1,477,901,0
63797541,1224,-0.0425,0.0430,1.0220,1.4038,0.8545,0.0610,1,483,850,0
63802535,1225,-0.0435,0.0420,1.0171,1.4038,0.7935,0.1831,1,482,895,0
63807562,1226,-0.0444,0.0400,1.0117,1.5869,0.7935,0.1221,1,472,868,0
63812534,1227,-0.0449,0.0391,1.0112,1.9531,0.6104,0.0610,1,474,853,0
63817539,1228,-0.0449,0.0430,1.0142,2.0752,0.4272,0.0000,1,478,851,0
63822539,1229,-0.0444,0.0469,1.0156,2.0752,0.5493,0.0000,1,511,745,0
63827537,1230,-0.0449,0.0459,1.0156,2.0142,0.7935,-0.1221,1,465,810,0
63832538,1231,-0.0464,0.0415,1.0161,2.1362,0.5493,-0.1221,1,491,850,0
63837539,1232,-0.0454,0.0386,1.0151,2.4414,0.6714,-0.0610,1,479,850,0
63842535,1233,-0.0444,0.0391,1.0137,2.6855,0.6104,-0.0610,1,491,849,0
63847540,1234,-0.0454,0.0425,1.0137,2.8076,0.3052,-0.1221,1,484,840,0
63852541,1235,-0.0459,0.0449,1.0146,2.8076,0.3052,-0.1831,1,488,842,0
63857534,1236,-0.0454,0.0444,1.0161,2.9907,0.2441,-0.0610,1,493,847,0
63862542,1237,-0.0444,0.0449,1.0161,3.1128,0.3662,-0.0610,1,466,851,0
63867542,1238,-0.0439,0.0474,1.0171,3.1738,0.4883,-0.1831,1,466,908,0
63872543,1239,-0.0430,0.0498,1.0195,2.9907,0.3052,-0.1221,1,466,875,0
63877542,1240,-0.0425,0.0488,1.0205,2.9297,0.3052,-0.1221,1,466,871,0
63882536,1241,-0.0430,0.0459,1.0186,3.0518,0.4272,-0.1831,1,465,858,0
63887535,1242,-0.0444,0.0439,1.0161,3.1738,0.4272,-0.2441,1,484,861,0
63892534,1243,-0.0498,0.0469,1.0098,3.1738,0.2441,-0.1221,1,467,911,0
63897534,1244,-0.0513,0.0503,1.0083,2.9907,-0.4883,0.0000,1,476,861,0
63902542,1245,-0.0435,0.0488,1.0205,2.9907,-0.4272,-0.0610,1,482,779,0
63907553,1246,-0.0371,0.0483,1.0303,3.1738,0.3662,0.0610,1,482,873,0
63912537,1247,-0.0400,0.0547,1.0254,2.9907,0.6714,0.0610,1,476,858,0
63917537,1248,-0.0444,0.0591,1.0195,2.3804,0.3662,0.0000,1,495,879,0
63922541,1249,-0.0435,0.0532,1.0205,2.3193,0.3662,0.0000,1,504,808,0
63927534,1250,-0.0425,0.0454,1.0215,2.4414,0.7935,0.0610,1,466,777,0
63932537,1251,-0.0474,0.0439,1.0161,2.6855,0.8545,0.0000,1,480,854,0
63937540,1252,-0.0566,0.0483,1.0039,2.6855,-0.0610,0.0610,1,485,833,0
63942538,1253,-0.0518,0.0464,1.0029,2.3804,-1.0986,0.3052,1,492,848,0
63947535,1254,-0.0366,0.0396,1.0166,2.8687,-0.1221,0.2441,1,482,839,0
63952537,1255,-0.0337,0.0386,1.0220,3.6011,0.7935,0.1221,1,471,849,0
63957539,1256,-0.0420,0.0449,1.0142,3.6621,0.5493,0.1831,1,493,836,0
63962536,1257,-0.0479,0.0483,1.0049,3.4790,0.4272,0.1831,1,493,850,0
63967537,1258,-0.0518,0.0483,1.0000,3.7842,0.3662,0.0610,1,466,876,0
63972536,1259,-0.0562,0.0508,0.9990,3.8452,-0.3052,0.2441,1,466,868,0
63977534,1260,-0.0513,0.0571,1.0098,3.6011,-0.9766,0.1831,1,466,871,0
63982541,1261,-0.0317,0.0615,1.0317,3.4790,-0.7935,0.1831,1,484,871,0
63987541,1262,-0.0195,0.0596,1.0435,3.4180,1.1597,0.0610,1,466,870,0
63992542,1263,-0.0278,0.0586,1.0337,3.2959,2.0752,0.1221,1,484,863,0
63997534,1264,-0.0420,0.0640,1.0205,2.8076,1.8921,0.1831,1,469,899,0
64002534,1265,-0.0454,0.0718,1.0176,2.1362,1.8311,0.3052,1,482,863,0
64007535,1266,-0.0425,0.0732,1.0225,1.4648,2.2583,0.3052,1,469,862,0
64012564,1267,-0.0396,0.0674,1.0259,0.9155,2.4414,0.4272,1,472,875,0
64017540,1268,-0.0381,0.0591,1.0234,0.6104,2.8687,0.5493,1,469,858,0
64022538,1269,-0.0400,0.0537,1.0181,0.5493,3.1738,0.4883,1,499,882,0
64027542,1270,-0.0435,0.0518,1.0093,0.7324,3.2349,0.4883,1,511,854,0
64032540,1271,-0.0479,0.0503,1.0005,0.7324,3.4180,0.4883,1,494,793,0
64037539,1272,-0.0513,0.0493,0.9990,0.8545,3.0518,0.4883,1,486,847,0
64042543,1273,-0.0498,0.0508,1.0068,1.0376,2.9907,0.4883,1,476,842,0
64047542,1274,-0.0439,0.0493,1.0156,0.9766,3.2349,0.3052,1,484,842,0
64052543,1275,-0.0415,0.0459,1.0166,1.2207,3.4180,0.2441,1,491,845,0
64057538,1276,-0.0483,0.0425,1.0078,1.7700,3.4180,0.3052,1,479,851,0
64062535,1277,-0.0562,0.0405,1.0020,2.0752,2.8076,0.3662,1,482,843,0
64067541,1278,-0.0571,0.0420,1.0039,2.7466,2.5024,0.1831,1,466,843,0
64072542,1279,-0.0547,0.0464,1.0103,3.0518,2.3193,-0.1221,1,466,908,0
64077536,1280,-0.0508,0.0527,1.0190,3.2959,2.1362,-0.1221,1,466,869,0
64082534,1281,-0.0464,0.0557,1.0244,3.4180,1.8921,-0.1221,1,465,877,0
64087541,1282,-0.0464,0.0566,1.0244,3.4180,2.1973,-0.3052,1,465,869,0
64092536,1283,-0.0498,0.0601,1.0220,3.3569,2.0142,-0.3052,1,484,865,0
64097536,1284,-0.0498,0.0645,1.0225,3.2959,1.9531,-0.3052,1,465,899,0
64102543,1285,-0.0459,0.0645,1.0254,2.9297,2.0752,-0.4272,1,483,929,0
64107539,1286,-0.0430,0.0605,1.0298,2.6855,2.5024,-0.4272,1,482,863,0
64112542,1287,-0.0454,0.0620,1.0288,2.6855,2.9297,-0.3052,1,470,877,0
64117541,1288,-0.0508,0.0669,1.0229,2.3804,2.7466,-0.4272,1,476,860,0
64122535,1289,-0.0537,0.0664,1.0186,1.6479,2.7466,-0.5493,1,504,855,0
64127534,1290,-0.0522,0.0630,1.0176,1.6479,2.5024,-0.4272,1,497,863,0
64132535,1291,-0.0513,0.0615,1.0176,1.7090,2.3193,-0.2441,1,494,860,0
64137541,1292,-0.0527,0.0610,1.0161,1.5869,2.1973,-0.3662,1,472,830,0
64142538,1293,-0.0537,0.0571,1.0132,1.5259,1.8921,-0.4272,1,476,854,0
64147541,1294,-0.0576,0.0522,1.0088,1.8921,1.7090,-0.3662,1,490,849,0
64152534,1295,-0.0640,0.0508,1.0029,2.1362,1.0376,-0.4272,1,476,845,0
64157534,1296,-0.0649,0.0522,1.0015,2.1973,0.1221,-0.6104,1,471,846,0
64162536,1297,-0.0581,0.0547,1.0098,2.5635,-0.3052,-0.7324,1,493,841,0
64167542,1298,-0.0469,0.0557,1.0205,2.9907,-0.1221,-0.7324,1,493,844,0
64172542,1299,-0.0542,0.0566,1.0127,3.2349,-0.5493,-0.6714,1,466,872,0
64177553,1300,-0.0576,0.0552,1.0039,3.3569,-1.0376,-0.7935,1,466,878,0
64182542,1301,-0.0547,0.0522,1.0020,3.6011,-1.3428,-0.7935,1,466,877,0
64187542,1302,-0.0493,0.0518,1.0059,4.0283,-1.3428,-0.8545,1,484,899,0
64192540,1303,-0.0488,0.0522,1.0083,4.3335,-1.3428,-0.9155,1,480,863,0
64197537,1304,-0.0537,0.0503,1.0059,4.7607,-1.5259,-0.8545,1,465,879,0
64202538,1305,-0.0581,0.0513,1.0015,5.3101,-2.0752,-0.7935,1,481,929,0
64207542,1306,-0.0557,0.0537,1.0024,5.7983,-2.4414,-0.9155,1,482,858,0
64212534,1307,-0.0483,0.0522,1.0122,6.0425,-2.5024,-1.0376,1,465,875,0
64217536,1308,-0.0449,0.0488,1.0220,6.7749,-2.3193,-1.0986,1,479,860,0
64222535,1309,-0.0469,0.0522,1.0249,7.1411,-2.6245,-1.1597,1,504,865,0
64227539,1310,-0.0479,0.0640,1.0229,7.2632,-2.7466,-1.0986,1,491,865,0
64232539,1311,-0.0474,0.0688,1.0205,6.7749,-2.8687,-1.0376,1,512,858,0
64237538,1312,-0.0459,0.0630,1.0195,6.7139,-2.7466,-1.0986,1,464,822,0
64242537,1313,-0.0435,0.0654,1.0249,7.0190,-2.8076,-0.7935,1,475,849,0
64247541,1314,-0.0396,0.0762,1.0298,6.4697,-2.3193,-0.8545,1,488,879,0
64252535,1315,-0.0410,0.0796,1.0234,5.6152,-1.9531,-0.9766,1,473,850,0
64257536,1316,-0.0488,0.0791,1.0083,5.6763,-2.1973,-0.7324,1,492,851,0
64262540,1317,-0.0557,0.0757,0.9976,5.2490,-2.7466,-0.6104,1,493,852,0
64267540,1318,-0.0566,0.0674,0.9951,5.0659,-3.1128,-0.6714,1,493,844,0
64272539,1319,-0.0547,0.0630,0.9971,5.7373,-3.2349,-0.6104,1,466,880,0
64277553,1320,-0.0503,0.0659,1.0024,5.7983,-3.2349,-0.6104,1,466,872,0
64282537,1321,-0.0444,0.0659,1.0098,5.7983,-2.8076,-0.8545,1,465,876,0
64287535,1322,-0.0444,0.0610,1.0146,6.4697,-2.7466,-0.9155,1,466,879,0
64292534,1323,-0.0503,0.0596,1.0117,7.0190,-2.9297,-0.9766,1,484,874,0
64297540,1324,-0.0542,0.0645,1.0078,7.2021,-3.2959,-1.0376,1,466,897,0
64302538,1325,-0.0513,0.0679,1.0117,7.3242,-3.7842,-1.2817,1,479,930,0
64307540,1326,-0.0464,0.0693,1.0166,7.3853,-3.7842,-1.5869,1,465,872,0
64312540,1327,-0.0493,0.0718,1.0122,7.5073,-3.9062,-1.6479,1,468,880,0
64317534,1328,-0.0557,0.0698,1.0049,7.4463,-4.5776,-1.5869,1,476,864,0
64322542,1329,-0.0532,0.0664,1.0068,7.7515,-5.2490,-1.5259,1,492,863,0
64327536,1330,-0.0415,0.0718,1.0181,7.8735,-5.2490,-1.4038,1,485,863,0
64332534,1331,-0.0361,0.0854,1.0229,7.4463,-4.5776,-1.5259,1,493,857,0
64337534,1332,-0.0444,0.0928,1.0181,6.5918,-4.6997,-1.5259,1,470,836,0
64342535,1333,-0.0542,0.0898,1.0093,6.0425,-5.4932,-1.2207,1,481,847,0
64347536,1334,-0.0591,0.0840,1.0015,6.0425,-6.4087,-1.2207,1,490,873,0
64352535,1335,-0.0562,0.0796,1.0020,5.6152,-7.3242,-1.1597,1,478,838,0
64357542,1336,-0.0488,0.0776,1.0054,5.8594,-7.8125,-1.0376,1,490,847,0
64362541,1337,-0.0527,0.0786,1.0005,5.7983,-8.0566,-1.0376,1,488,847,0
64367535,1338,-0.0640,0.0786,0.9917,5.6152,-9.3384,-0.9766,1,492,848,0
64372536,1339,-0.0688,0.0757,0.9883,5.9814,-10.9863,-0.9766,1,466,878,0
64377549,1340,-0.0601,0.0728,0.9951,6.1646,-12.2070,-0.9155,1,466,895,0
64382536,1341,-0.0493,0.0693,1.0024,6.2866,-12.6343,-1.0376,1,466,890,0
64387541,1342,-0.0562,0.0708,0.9946,7.0190,-13.3057,-1.0986,1,484,899,0
64392540,1343,-0.0732,0.0771,0.9795,7.0801,-15.4419,-0.9766,1,471,891,0
64397536,1344,-0.0786,0.0796,0.9766,6.8970,-17.8833,-0.9155,1,465,878,0
64402537,1345,-0.0674,0.0767,0.9849,7.2632,-19.8364,-0.7935,1,468,918,0
64407538,1346,-0.0547,0.0728,0.9893,7.6294,-21.0571,-0.9155,1,472,875,0
64412535,1347,-0.0503,0.0845,0.9990,7.9956,-22.5830,-0.7935,1,479,891,0
64417538,1348,-0.0435,0.1084,1.0146,7.0190,-24.1089,-0.9155,1,467,890,0
64422539,1349,-0.0454,0.1211,1.0166,5.3101,-24.1089,-1.6479,1,482,890,0
64427540,1350,-0.0557,0.1196,1.0088,3.9673,-26.1230,-1.5869,1,484,904,0
64432543,1351,-0.0591,0.1128,0.9980,3.1128,-27.7100,-1.7700,1,512,880,0
64437541,1352,-0.0649,0.1147,0.9912,1.7090,-29.1748,-2.0752,1,493,890,0
64442542,1353,-0.0645,0.1172,0.9966,-0.1221,-31.5552,-2.2583,1,490,796,0
64447536,1354,-0.0684,0.1143,1.0029,-1.5869,-32.7148,-2.4414,1,474,863,0
64452540,1355,-0.0991,0.1172,0.9937,-2.9297,-35.2173,-2.0142,1,490,898,0
64457542,1356,-0.1133,0.1211,0.9854,-5.5542,-40.8325,-0.6714,1,473,860,0
64462542,1357,-0.0898,0.1191,0.9902,-7.5073,-43.8232,0.1221,1,481,865,0
64467534,1358,-0.0708,0.1221,0.9956,-8.7280,-45.5322,0.6714,1,479,871,0
64472536,1359,-0.0586,0.1318,0.9985,-10.1929,-49.2554,0.6104,1,466,869,0
64477536,1360,-0.0249,0.1187,1.0137,-12.4512,-50.9644,0.4272,1,466,911,0
64482534,1361,0.0254,0.1001,1.0469,-13.7939,-49.3164,1.5869,1,466,914,0
64487539,1362,0.0742,0.0952,1.0747,-14.2212,-46.2646,2.6245,1,483,914,0
64492541,1363,0.0806,0.0767,1.0742,-15.4419,-41.3208,2.1973,1,465,923,0
64497541,1364,0.0557,0.0586,1.0625,-14.1602,-41.4429,2.5024,1,484,907,0
64502537,1365,0.0508,0.0537,1.0518,-12.9395,-41.9311,2.3193,1,466,900,0
64507536,1366,0.0430,0.0591,1.0410,-12.4512,-39.5508,0.6714,1,469,943,0
64512536,1367,0.0249,0.0645,1.0376,-11.9019,-39.9170,0.5493,1,477,888,0
64517542,1368,0.0254,0.0566,1.0420,-10.4370,-40.6494,0.3052,1,480,922,0
64522541,1369,0.0366,0.0464,1.0425,-9.3384,-40.5884,-0.4883,1,483,862,0
64527536,1370,0.0430,0.0439,1.0371,-7.7515,-41.6260,-1.0986,1,492,872,0
64532542,1371,0.0571,0.0479,1.0312,-5.9204,-42.5415,-1.2817,1,497,879,0
64537535,1372,0.0684,0.0518,1.0303,-4.8218,-41.1987,-1.5259,1,494,911,0
64542536,1373,0.0459,0.0610,1.0303,-3.2349,-40.3442,-1.0986,1,473,825,0
64547538,1374,0.0156,0.0737,1.0317,-2.3804,-42.4805,0.3052,1,486,864,0
64552541,1375,0.0122,0.0781,1.0327,-1.8921,-44.1894,1.3428,1,476,891,0
64557539,1376,0.0200,0.0791,1.0327,-1.4038,-44.4946,2.0752,1,483,889,0
64562537,1377,0.0288,0.0815,1.0298,-1.0986,-46.0815,3.6011,1,473,867,0
64567541,1378,0.0659,0.0889,1.0312,-1.3428,-47.3022,5.1880,1,472,865,0
64572534,1379,0.1265,0.0947,1.0366,-1.7090,-46.6919,6.2256,1,493,897,0
64577541,1380,0.1426,0.0962,1.0337,-1.8921,-43.2739,5.6763,1,466,897,0
64582559,1381,0.0752,0.1030,1.0244,-2.5024,-42.0532,5.6152,1,466,895,0
64587537,1382,0.0054,0.0991,1.0244,-4.2114,-48.3398,6.7749,1,465,900,0
64592541,1383,-0.0571,0.1030,1.0308,-4.9438,-51.9409,6.8970,1,466,931,0
64597536,1384,-0.1587,0.1172,1.0352,-7.7515,-59.4482,6.7139,1,484,898,0
64602538,1385,-0.2910,0.1289,1.0239,-10.3760,-73.9136,9.2163,1,465,821,0
64607541,1386,-0.3398,0.1152,1.0303,-16.1133,-92.4072,13.7329,1,482,916,0
64612539,1387,-0.1636,0.0879,1.0762,-16.1133,-111.8774,18.9819,1,469,921,0
64617539,1388,0.0249,0.1221,1.1143,-13.1836,-122.6807,17.0288,1,479,923,0
64622541,1389,-0.1348,0.1865,1.1572,-19.7754,-139.4043,8.9722,1,465,882,0
64627535,1390,-0.6221,0.2261,1.2173,-24.1089,-183.5937,7.5073,1,492,891,0
64632537,1391,-1.0913,0.2485,1.2632,-28.9307,-240.8447,14.0991,1,502,930,0
64637536,1392,-1.1714,0.2944,1.2920,-38.6353,-305.2979,35.4004,1,494,944,0
64642535,1393,-1.1069,0.2070,1.3672,-54.5044,-338.8061,45.0439,1,480,814,0
64647543,1394,-0.6953,0.1357,1.4111,-44.6777,-406.9824,58.4717,1,490,873,0
64652540,1395,0.2505,0.2583,1.2603,-34.7900,-447.7539,80.3833,1,474,920,0
64657536,1396,0.4380,0.3784,1.2549,-84.1675,-414.7949,45.8984,1,488,899,0
64662535,1397,-0.5122,0.5137,1.6646,-116.2720,-422.6074,22.3389,1,481,934,0
64667542,1398,-1.1768,0.6299,1.9331,-113.4033,-510.3759,41.9311,1,492,917,0
64672541,1399,-0.9595,0.5791,1.7388,-140.3198,-540.5273,49.9878,1,493,952,0
64677534,1400,-0.6035,0.4092,1.3828,-158.5083,-549.6216,47.4853,1,466,934,0
64682536,1401,-0.4937,0.2954,1.0874,-153.4424,-579.4067,55.4199,1,466,966,0
64687539,1402,-0.5420,0.1987,0.8965,-165.0390,-585.6934,55.4199,1,466,937,0
64692540,1403,-0.6245,0.0898,0.7939,-165.3442,-588.8672,51.4526,1,466,941,0
64697543,1404,-0.7524,0.0884,0.7246,-158.9966,-622.3755,46.6309,1,484,947,0
64702540,1405,-0.8677,0.1772,0.6304,-168.8843,-693.1762,40.5884,1,465,919,0
64707537,1406,-0.7368,0.2573,0.4819,-182.1899,-771.4843,37.1704,1,474,934,0
64712539,1407,0.1885,0.2437,0.8008,-195.2514,-832.7026,38.5742,1,481,977,0
64717541,1408,2.2168,-0.1860,2.0913,-201.2939,-802.1850,30.7617,1,465,924,0
64722539,1409,3.9268,-0.9902,3.9331,-160.8887,-578.3691,-8.9722,1,465,974,0
64727534,1410,3.5933,-1.2920,5.5737,-107.6660,-284.1797,-59.2651,1,465,925,0
64732536,1411,1.9009,-0.8589,6.2334,-82.7026,-152.9541,-53.8940,1,484,929,0
64737540,1412,0.4487,-0.3779,5.6704,-66.9556,-76.2329,-50.4150,1,475,916,0
64742534,1413,-0.3491,-0.2183,4.4873,-40.3442,1.9531,-65.7959,1,493,930,0
64747540,1414,-0.6816,-0.2695,3.3491,-7.3853,52.3682,-69.1528,1,478,844,0
64752539,1415,-0.8115,-0.3198,2.4951,13.4277,87.9517,-67.2607,1,481,905,0
64757535,1416,-0.9507,-0.2539,1.8750,26.9775,109.6802,-66.2842,1,472,913,0
64762535,1417,-1.1367,-0.0771,1.4102,36.4990,110.1074,-65.4297,1,487,903,0
64767540,1418,-1.2744,0.1196,1.1069,39.4897,95.8252,-67.2607,1,470,900,0
64772540,1419,-1.2788,0.2539,0.9839,42.9687,78.5522,-73.3643,1,488,933,0
64777539,1420,-1.1548,0.3086,1.0127,41.8091,67.9321,-80.8716,1,465,902,0
64782536,1421,-0.9937,0.3076,1.1294,38.6353,68.4204,-89.6606,1,466,920,0
64787542,1422,-0.8804,0.2910,1.2651,35.0952,75.6836,-98.1445,1,466,924,0
64792541,1423,-0.8145,0.2651,1.3857,29.6631,86.3037,-105.8960,1,483,926,0
64797541,1424,-0.7622,0.2183,1.4810,24.6582,100.5859,-112.3657,1,466,940,0
64802534,1425,-0.7192,0.1538,1.5503,20.8130,117.5537,-117.9809,1,484,980,0
64807537,1426,-0.6836,0.0879,1.5908,20.1416,134.5215,-123.1689,1,477,937,0
64812538,1427,-0.6313,0.0210,1.5991,16.6016,152.2217,-125.3662,1,480,934,0
64817535,1428,-0.5654,-0.0596,1.5796,15.5029,172.4243,-126.8921,1,482,920,0
64822548,1429,-0.5200,-0.1470,1.5366,16.9067,192.0166,-126.7090,1,469,944,0
64827534,1430,-0.5015,-0.2246,1.4868,18.1274,208.6181,-124.6338,1,483,926,0
64832536,1431,-0.4810,-0.2925,1.4448,20.8740,222.3511,-120.7275,1,501,942,0
64837540,1432,-0.4385,-0.3535,1.4136,23.8037,235.3515,-115.6006,1,500,925,0
64842538,1433,-0.3823,-0.4121,1.3936,26.6724,247.6806,-109.3140,1,494,945,0
64847538,1434,-0.3193,-0.4736,1.3843,29.5410,258.6060,-101.5625,1,471,946,0
64852537,1435,-0.2505,-0.5303,1.3716,32.9590,269.8975,-92.5903,1,483,836,0
64857534,1436,-0.1870,-0.5659,1.3306,35.2783,281.3721,-82.8247,1,475,895,0
64862541,1437,-0.1445,-0.5645,1.2515,35.7666,291.7480,-72.9370,1,488,899,0
64867534,1438,-0.1245,-0.5254,1.1509,33.5693,298.5840,-63.1714,1,471,924,0
64872534,1439,-0.1074,-0.4707,1.0610,27.5269,301.2085,-53.7109,1,479,931,0
64877539,1440,-0.0767,-0.4199,1.0000,18.6157,301.2085,-44.3115,1,493,900,0
64882538,1441,-0.0288,-0.3779,0.9697,7.2632,300.3540,-35.5835,1,466,917,0
64887539,1442,0.0225,-0.3491,0.9683,-5.5542,300.0488,-27.7100,1,466,911,0
64892541,1443,0.0586,-0.3384,0.9912,-18.3105,299.4995,-19.1650,1,483,907,0
64897542,1444,0.0801,-0.3452,1.0396,-29.7241,298.1567,-9.3994,1,466,920,0
64902535,1445,0.1045,-0.3628,1.1187,-38.2690,297.2412,0.6104,1,484,917,0
64907542,1446,0.1460,-0.3784,1.2261,-44.1284,297.2412,11.1694,1,465,829,0
64912539,1447,0.2036,-0.3789,1.3477,-47.3022,299.1943,21.7895,1,482,931,0
64917539,1448,0.2637,-0.3540,1.4644,-48.2788,303.7720,31.9214,1,470,997,0
64922541,1449,0.3130,-0.3013,1.5747,-48.5229,308.8379,41.0156,1,475,924,0
64927535,1450,0.3618,-0.2358,1.6860,-49.0723,313.9648,49.6826,1,476,922,0
64932538,1451,0.4214,-0.1768,1.7920,-49.2554,320.9839,57.4951,1,505,939,0
64937537,1452,0.4780,-0.1245,1.8765,-48.4009,330.4443,64.2090,1,483,914,0
64942539,1453,0.5171,-0.0684,1.9326,-47.4853,339.9048,69.8853,1,481,912,0
64947535,1454,0.5469,-0.0029,1.9609,-44.9829,348.8159,73.7915,1,493,930,0
64952535,1455,0.5752,0.0659,1.9673,-43.0298,357.1777,76.7822,1,480,857,0
64957542,1456,0.6001,0.1294,1.9600,-40.7715,364.9292,78.4302,1,490,917,0
64962542,1457,0.6167,0.1851,1.9473,-37.5366,370.9716,78.8574,1,471,923,0
64967540,1458,0.6235,0.2363,1.9351,-33.5083,375.3662,78.0640,1,483,901,0
64972538,1459,0.6284,0.2832,1.9297,-28.9307,378.1738,75.9277,1,485,898,0
64977535,1460,0.6426,0.3228,1.9346,-24.1699,380.3711,72.5098,1,491,909,0
64982539,1461,0.6646,0.3506,1.9448,-19.7144,382.8125,67.7490,1,466,925,0
64987535,1462,0.6865,0.3657,1.9561,-15.8081,384.6435,62.1948,1,466,924,0
64992534,1463,0.7080,0.3657,1.9663,-12.5122,385.6811,56.1523,1,466,976,0
64997536,1464,0.7290,0.3530,1.9717,-10.0708,386.3525,49.9878,1,484,950,0
65002543,1465,0.7446,0.3335,1.9800,-8.3618,385.8032,43.8843,1,466,937,0
65007539,1466,0.7637,0.3105,2.0020,-7.6904,383.7280,38.2080,1,484,924,0
65012542,1467,0.7954,0.2876,2.0435,-8.2397,381.2866,32.9590,1,468,902,0
65017536,1468,0.8325,0.2666,2.1074,-9.7656,378.4790,28.1372,1,472,945,0
65022539,1469,0.8799,0.2500,2.1958,-12.0239,374.9389,23.7427,1,482,923,0
65027542,1470,0.9634,0.2319,2.3062,-14.8315,372.1313,19.4092,1,466,939,0
65032539,1471,1.0952,0.2061,2.4199,-17.2119,371.7041,15.0757,1,467,933,0
65037541,1472,1.2544,0.1768,2.5034,-18.8599,373.4131,10.8643,1,497,911,0
65042539,1473,1.4092,0.1528,2.5249,-19.7754,376.1596,6.4087,1,484,941,0
65047539,1474,1.5454,0.1387,2.4727,-20.7520,378.4179,1.5869,1,495,917,0
65052539,1475,1.6665,0.1245,2.3564,-21.4233,377.8076,-3.6011,1,473,849,0
65057541,1476,1.7847,0.1055,2.1890,-21.7285,373.9013,-9.0332,1,487,871,0
65062538,1477,1.9038,0.0815,1.9839,-21.7895,365.7837,-14.4043,1,475,897,0
65067540,1478,2.0195,0.0571,1.7510,-21.1792,354.4311,-20.9351,1,489,941,0
65072539,1479,2.2393,0.0073,1.2617,-23.9868,320.5566,-31.1890,1,490,910,0
65077539,1480,2.3413,-0.0220,1.0337,-26.5503,299.8657,-35.5835,1,474,909,0
65082537,1481,2.4360,-0.0464,0.8315,-29.6631,277.4658,-39.8560,1,493,899,0
65087541,1482,2.5239,-0.0513,0.6572,-33.2642,252.8076,-43.9453,1,466,929,0
65092542,1483,2.6157,-0.0366,0.5088,-38.6353,226.0132,-47.7295,1,466,942,0
65097536,1484,2.7368,-0.0283,0.3896,-46.0815,198.9746,-51.5137,1,466,934,0
65102534,1485,2.8877,-0.0537,0.2856,-51.6357,173.8281,-54.5654,1,466,945,0
65107535,1486,3.0298,-0.1157,0.1714,-55.8472,151.6113,-56.3354,1,484,952,0
65112541,1487,3.1348,-0.2007,0.0361,-56.5796,128.5400,-55.6641,1,466,927,0
65117539,1488,3.1968,-0.2910,-0.1167,-54.5654,103.1494,-52.0019,1,479,850,0
65122537,1489,3.2212,-0.3765,-0.2739,-48.8892,74.2798,-45.0439,1,465,984,0
65127536,1490,3.2139,-0.4551,-0.4175,-39.9780,41.9922,-35.6445,1,469,922,0
65132542,1491,3.1670,-0.5225,-0.5190,-27.6489,7.2632,-24.2920,1,477,922,0
65137542,1492,3.0786,-0.5596,-0.5610,-9.7656,-30.2734,-11.3525,1,473,920,0
65142542,1493,2.9678,-0.5562,-0.5225,7.2632,-70.9229,2.1973,1,502,909,0
65147537,1494,2.8691,-0.6821,-0.6992,18.1885,-121.4600,12.7563,1,483,872,0
65152540,1495,1.7622,-0.4478,-1.7129,56.0303,-277.0386,36.9263,1,465,944,0
65157542,1496,-0.4023,0.1299,-1.9775,27.7710,-406.8603,48.7061,1,488,849,0
65162534,1497,-1.5430,-0.0371,-0.1187,-77.2705,-406.0669,42.8467,1,474,907,0
65167535,1498,-1.5327,-0.9180,2.0723,-37.4756,-322.5097,22.5830,1,471,903,0
65172538,1499,-1.4575,-1.8154,2.9209,30.2124,-349.0600,44.0674,1,485,930,0
65177540,1500,-1.0610,-2.2056,2.3706,78.4912,-364.2578,57.1899,1,481,914,0
65182539,1501,-0.2207,-1.5103,0.9780,173.2788,-389.3432,64.2700,1,492,943,0
65187538,1502,0.5698,-0.0952,-0.4707,154.4800,-400.4516,76.8433,1,466,938,0
65192548,1503,0.8901,0.8149,-0.9126,50.2319,-397.1557,90.2100,1,466,933,0
65197534,1504,0.8486,0.8706,0.0767,-15.5640,-402.0996,108.0322,1,466,941,0
65202538,1505,0.9424,0.7261,1.9551,-34.3018,-399.9633,117.5537,1,484,939,0
65207538,1506,1.2573,0.9961,3.6118,-7.6294,-356.6894,100.8911,1,467,937,0
65212535,1507,1.5000,1.5908,4.1895,17.3340,-300.5371,70.5566,1,484,933,0
65217535,1508,1.4756,2.0542,3.7446,18.6768,-252.8686,39.6118,1,482,904,0
65222539,1509,1.2231,2.1313,2.9009,11.6577,-218.3227,11.6577,1,467,963,0
65227535,1510,0.8862,1.7510,2.2319,-1.8311,-193.6035,-13.1226,1,465,942,0
65232548,1511,0.5845,1.0171,1.9287,-10.6812,-175.1709,-28.4424,1,472,952,0
65237536,1512,0.3589,0.1724,1.8130,-17.8223,-160.5835,-30.7617,1,465,887,0
65242535,1513,0.1943,-0.5566,1.6782,-25.0244,-150.4517,-23.7427,1,475,906,0
65247538,1514,0.0786,-1.0293,1.4858,-29.7241,-147.8882,-9.1553,1,483,949,0
65252540,1515,0.0483,-1.1948,1.3394,-32.0435,-150.3296,8.6060,1,493,921,0
65257537,1516,0.1079,-1.0566,1.3203,-24.7192,-151.1230,22.5830,1,468,805,0
65262535,1517,0.1279,-0.7681,1.3892,-13.1836,-148.7427,30.7617,1,478,873,0
65267534,1518,0.0020,-0.7217,1.7725,-2.9297,-136.7188,40.9546,1,489,929,0
65272538,1519,0.2285,-0.6055,2.4165,49.4995,-147.5830,48.0957,1,477,946,0
65277535,1520,0.8037,-0.1182,2.6821,92.9565,-121.1548,34.9731,1,474,909,0
65282542,1521,0.9756,0.2305,2.4194,75.0732,-74.8901,29.1748,1,486,914,0
65287537,1522,0.6851,0.2930,1.9985,63.9648,-45.1660,24.5361,1,493,895,0
65292537,1523,0.3135,0.2993,1.6250,76.9653,-38.0249,23.9868,1,466,940,0
65297549,1524,0.0859,0.3359,1.3574,70.9229,-28.8696,19.8975,1,466,929,0
65302538,1525,0.0049,0.3071,1.2827,56.0303,-21.2402,13.5498,1,466,925,0
65307534,1526,0.0479,0.2139,1.3481,52.9175,-20.9961,12.7563,1,484,930,0
65312539,1527,0.1475,0.1587,1.3901,53.4668,-16.9678,12.6953,1,475,933,0
65317542,1528,0.1655,0.1602,1.3276,47.8516,-6.7139,10.0708,1,484,930,0
65322536,1529,0.0708,0.1602,1.2002,44.0674,-2.3193,9.0332,1,477,847,0
65327540,1530,-0.0293,0.1440,1.0864,41.7480,-5.3711,10.0098,1,465,879,0
65332543,1531,-0.0659,0.1284,1.0322,39.1235,-7.1411,9.5825,1,467,892,0
65337554,1532,-0.0713,0.1006,1.0195,36.8042,-7.5684,8.4229,1,469,896,0
65342535,1533,-0.0620,0.0635,1.0347,35.7056,-10.0098,8.3618,1,466,866,0
65347542,1534,-0.0283,0.0552,1.0796,36.6821,-11.3525,7.7515,1,509,874,0
65352540,1535,-0.0010,0.1084,1.1401,36.3159,-10.8643,7.0190,1,483,895,0
65357539,1536,0.0234,0.2188,1.2070,33.4473,-11.0474,5.4321,1,494,897,0
65362542,1537,0.0542,0.2661,1.2178,26.6113,-9.0942,3.5400,1,479,849,0
65367539,1538,0.0205,0.1816,1.1318,22.1558,-3.6011,1.4648,1,489,833,0
65372536,1539,-0.0542,0.0635,1.0400,21.2402,-7.5073,1.7090,1,478,899,0
65377541,1540,-0.0713,0.0093,1.0229,22.8271,-12.2070,2.1362,1,481,860,0
65382538,1541,-0.0293,0.0327,1.0630,23.1323,-12.6343,0.8545,1,488,912,0
65387538,1542,0.0073,0.0771,1.0981,21.1792,-11.1084,-0.8545,1,472,886,0
65392542,1543,0.0122,0.0928,1.1064,18.7378,-10.5591,-1.4648,1,493,881,0
65397536,1544,0.0117,0.0825,1.1001,17.7612,-10.2539,-1.2207,1,466,906,0
65402534,1545,0.0083,0.0679,1.0830,15.5640,-8.6060,-0.7324,1,466,906,0
65407543,1546,-0.0088,0.0679,1.0581,13.8550,-7.7515,-0.5493,1,466,893,0
65412536,1547,-0.0254,0.0845,1.0381,10.9253,-8.6060,-0.0610,1,465,925,0
65417539,1548,-0.0303,0.0967,1.0308,7.5684,-8.9111,0.0610,1,484,874,0
65422535,1549,-0.0259,0.1001,1.0352,4.8828,-9.2163,0.0000,1,465,867,0
65427540,1550,-0.0166,0.0986,1.0386,2.1362,-8.8501,0.0610,1,477,819,0
65432541,1551,-0.0117,0.0889,1.0352,-0.2441,-8.1787,0.0000,1,475,864,0
65437534,1552,-0.0083,0.0752,1.0317,-1.4648,-7.8735,0.2441,1,482,829,0
65442543,1553,0.0005,0.0674,1.0347,-2.0752,-6.9580,0.4883,1,472,862,0
65447541,1554,0.0059,0.0708,1.0391,-3.0518,-5.5542,0.4272,1,467,875,0
65452540,1555,0.0078,0.0718,1.0405,-3.8452,-4.7607,0.7324,1,493,846,0
65457536,1556,0.0029,0.0620,1.0361,-4.2725,-3.5400,0.7324,1,474,858,0
65462541,1557,-0.0063,0.0542,1.0308,-4.3335,-3.1738,0.6104,1,464,800,0
65467539,1558,-0.0044,0.0537,1.0303,-4.0894,-3.5400,0.6714,1,491,851,0
65472535,1559,0.0024,0.0513,1.0308,-4.0894,-2.6855,0.7324,1,481,841,0
65477543,1560,0.0005,0.0459,1.0283,-3.6621,-2.0142,0.4272,1,488,845,0
65482543,1561,-0.0059,0.0425,1.0234,-2.9297,-2.0142,0.4272,1,490,869,0
65487538,1562,-0.0122,0.0464,1.0205,-2.4414,-1.8921,0.4883,1,481,841,0
65492537,1563,-0.0137,0.0513,1.0220,-2.1362,-2.6855,0.1831,1,489,847,0
65497536,1564,-0.0103,0.0493,1.0249,-1.5259,-3.2959,-0.2441,1,466,853,0
65502543,1565,-0.0098,0.0474,1.0220,-0.3052,-2.9297,-0.9766,1,466,879,0
65507542,1566,-0.0161,0.0493,1.0122,0.3662,-2.8687,-1.6479,1,466,864,0
65512541,1567,-0.0293,0.0527,1.0093,1.3428,-3.6621,-3.0518,1,483,885,0
65517538,1568,-0.0522,0.0679,1.0039,4.1504,-6.4087,-4.1504,1,465,865,0
65522534,1569,-0.0674,0.0732,0.9907,3.0518,-9.4604,-5.3101,1,485,861,0
65527539,1570,-0.0566,0.0508,0.9941,3.5400,-12.7563,-5.4932,1,467,900,0
65532538,1571,-0.0347,0.0366,1.0059,5.6152,-14.7095,-5.3101,1,467,940,0
65537541,1572,-0.0347,0.0361,1.0049,6.4697,-16.1133,-5.4932,1,472,881,0
65542540,1573,-0.0479,0.0293,0.9951,6.2256,-19.5923,-3.4790,1,477,879,0
65547560,1574,-0.0400,0.0420,0.9966,7.3242,-22.5830,-2.2583,1,465,870,0
65552541,1575,-0.0161,0.0703,1.0093,7.3853,-23.0103,-2.7466,1,472,879,0
65557538,1576,-0.0034,0.0708,1.0127,6.6528,-22.8271,-3.1738,1,483,872,0
65562540,1577,-0.0049,0.0547,1.0063,7.6904,-24.2310,-2.0752,1,494,898,0
65567534,1578,-0.0088,0.0488,0.9941,8.3008,-25.2075,-0.9766,1,470,830,0
65572536,1579,-0.0200,0.0479,0.9790,8.1787,-25.3906,-0.7935,1,486,868,0
65577534,1580,-0.0381,0.0425,0.9653,8.7891,-27.0996,-0.3662,1,488,893,0
65582542,1581,-0.0527,0.0508,0.9604,9.7656,-29.5410,0.0610,1,482,865,0
65587536,1582,-0.0493,0.0767,0.9717,9.0332,-32.3486,0.3052,1,483,866,0
65592535,1583,-0.0298,0.0894,0.9863,7.2632,-33.8135,0.1221,1,474,857,0
65597538,1584,-0.0068,0.0864,1.0073,6.3477,-34.6069,-0.4272,1,493,854,0
65602542,1585,0.0596,0.1045,1.0771,3.8452,-34.9121,-0.6104,1,466,890,0
65607535,1586,0.1616,0.1079,1.1372,-0.0610,-30.1514,-1.5259,1,466,891,0
65612534,1587,0.1875,0.0713,1.1235,-0.7324,-20.2637,-2.8687,1,484,899,0
65617541,1588,0.1353,0.0566,1.0894,-0.4272,-17.7002,-2.1973,1,465,896,0
65622536,1589,0.0996,0.0640,1.0630,-1.2207,-14.5874,-2.4414,1,484,876,0
65627534,1590,0.0776,0.0596,1.0410,-2.5635,-10.0098,-3.3569,1,466,900,0
65632538,1591,0.0483,0.0591,1.0239,-2.0142,-8.4229,-3.6011,1,474,876,0
65637539,1592,0.0210,0.0703,1.0112,-2.7466,-8.3618,-3.8452,1,476,871,0
65642535,1593,0.0093,0.0767,1.0107,-4.0283,-8.8501,-3.9062,1,481,873,0
65647566,1594,0.0127,0.0737,1.0181,-4.4556,-9.2773,-3.3569,1,470,852,0
65652534,1595,0.0186,0.0688,1.0249,-4.5776,-9.8877,-3.1128,1,467,863,0
65657536,1596,0.0220,0.0625,1.0283,-4.5166,-10.6201,-2.8076,1,483,864,0
65662536,1597,0.0186,0.0581,1.0264,-4.0894,-11.6577,-2.5635,1,494,896,0
65667541,1598,0.0088,0.0576,1.0229,-3.7842,-13.0615,-2.6245,1,472,822,0
65672536,1599,0.0005,0.0571,1.0171,-3.3569,-15.0757,-2.2583,1,480,842,0
65677542,1600,-0.0137,0.0581,1.0088,-2.9297,-16.9678,-2.3804,1,473,862,0
65682536,1601,-0.0254,0.0591,1.0029,-2.6855,-20.4468,-2.4414,1,490,856,0
65687535,1602,-0.0190,0.0591,1.0049,-1.7700,-23.2544,-2.5024,1,485,867,0
65692542,1603,-0.0005,0.0596,1.0156,-1.2207,-26.6113,-2.9907,1,471,861,0
65697536,1604,0.0176,0.0596,1.0264,-0.6714,-30.0903,-3.4790,1,493,862,0
65702536,1605,0.0225,0.0620,1.0303,0.0610,-32.4097,-3.3569,1,466,891,0
65707540,1606,0.0239,0.0674,1.0342,0.4883,-34.9121,-2.5024,1,466,884,0
65712534,1607,0.0356,0.0737,1.0415,0.7935,-37.4146,-1.8921,1,465,891,0
65717539,1608,0.0547,0.0811,1.0474,1.0986,-39.4897,-1.2207,1,466,889,0
65722539,1609,0.0562,0.0845,1.0454,0.6714,-40.1611,-0.0610,1,484,875,0
65727536,1610,0.0400,0.0762,1.0425,0.5493,-41.6260,1.7090,1,466,812,0
65732539,1611,0.0298,0.0796,1.0352,1.6479,-44.8608,3.9673,1,480,916,0
65737540,1612,0.0347,0.0962,1.0308,-1.7090,-47.6074,5.1270,1,482,883,0
65742540,1613,0.0400,0.1108,1.0366,-0.8545,-50.8423,4.3945,1,465,879,0
65747548,1614,0.0264,0.1284,1.0288,-0.8545,-56.8848,2.9907,1,474,894,0
65752534,1615,-0.0552,0.1406,1.0215,-5.0049,-59.4482,0.6714,1,471,879,0
65757537,1616,-0.2134,0.1465,1.0356,-7.9346,-72.0215,0.1221,1,507,904,0
65762535,1617,-0.3672,0.1494,1.0703,-11.6577,-97.9614,-0.9155,1,483,869,0
65767534,1618,-0.5698,0.1968,1.1147,-15.3809,-130.6152,0.0610,1,464,914,0
65772538,1619,-0.8926,0.2744,1.1577,-22.5220,-179.0161,4.1504,1,488,841,0
65777537,1620,-0.9336,0.2778,1.2393,-28.8086,-249.2676,18.3716,1,473,902,0
65782537,1621,-0.6953,0.3052,1.2900,-24.4141,-304.8096,24.8413,1,477,933,0
65787539,1622,-0.9541,0.5005,1.2920,-42.6636,-345.0927,19.0430,1,485,900,0
65792539,1623,-1.6509,0.6230,1.4419,-83.9233,-421.6919,33.4473,1,489,901,0
65797535,1624,-1.7051,0.5913,1.7729,-90.2710,-514.3433,59.7534,1,493,936,0
65802540,1625,-0.8511,0.7383,1.8770,-86.7309,-578.1860,84.9609,1,466,933,0
65807546,1626,-0.6250,1.0474,1.8413,-137.1460,-585.6934,63.4155,1,466,931,0
65812536,1627,-1.4697,1.1743,2.0830,-228.0884,-634.0942,45.4102,1,466,936,0
65817540,1628,-1.9048,0.9526,2.1733,-255.6763,-747.8027,59.5703,1,483,942,0
65822536,1629,-1.5859,0.6001,1.7041,-275.9399,-794.9218,55.5420,1,467,949,0
65827535,1630,-1.3027,0.4053,1.0649,-298.0957,-804.9926,51.7578,1,466,929,0
65832535,1631,-1.2954,0.2305,0.6006,-303.4668,-838.5009,55.4199,1,466,930,0
65837534,1632,-1.2861,-0.1221,0.2383,-299.6216,-870.3613,44.0063,1,470,960,0
65842543,1633,-1.2627,-0.6021,-0.1074,-271.9116,-890.1977,28.1372,1,477,924,0
65847534,1634,-1.3232,-0.8335,-0.3545,-216.1255,-936.8286,15.5029,1,472,962,0
65852542,1635,-0.7153,-0.1279,0.1816,-178.8940,-1041.4429,29.0527,1,466,945,0
65857543,1636,2.3823,0.2300,2.2207,-224.3042,-1113.9526,75.2563,1,478,947,0
65862539,1637,6.4819,-1.3672,5.2935,-248.8403,-808.7768,53.4058,1,483,958,0
65867535,1638,6.2612,-2.2202,7.5063,-86.2427,-171.6308,-92.8955,1,494,947,0
65872541,1639,2.2769,-0.9668,7.5068,2.4414,-19.0430,-104.7363,1,483,952,0
65877539,1640,-0.4858,0.0532,6.0107,-21.5454,-28.4424,-69.1528,1,485,817,0
65882543,1641,-1.0322,0.0835,4.3784,-10.4980,66.1011,-82.3975,1,487,917,0
65887536,1642,-0.7656,-0.2026,3.2031,3.9673,145.1416,-80.8105,1,471,899,0
65892540,1643,-0.6279,-0.3281,2.3838,18.1274,182.0068,-71.8994,1,490,912,0
65897542,1644,-0.7495,-0.2554,1.7100,35.8887,200.9888,-71.6553,1,472,937,0
65902540,1645,-0.9551,-0.1216,1.1362,45.8984,205.3223,-71.4722,1,493,893,0
65907534,1646,-1.1152,-0.0435,0.7368,52.5513,194.0918,-70.3125,1,466,935,0
65912536,1647,-1.1641,-0.0220,0.5283,61.2183,168.9453,-69.8853,1,465,932,0
65917540,1648,-1.0596,-0.0146,0.4951,61.1572,141.1133,-68.1152,1,484,931,0
65922542,1649,-0.8184,-0.0015,0.6270,56.0303,124.9390,-65.7349,1,465,934,0
65927541,1650,-0.5488,0.0210,0.8491,52.3071,126.1597,-65.7349,1,484,922,0
65932536,1651,-0.3564,0.0332,1.0674,47.4243,138.0615,-66.8335,1,471,870,0
65937537,1652,-0.2661,0.0234,1.2358,46.5088,153.3813,-68.8477,1,483,958,0
65942541,1653,-0.2354,-0.0029,1.3574,46.0205,168.8843,-69.8242,1,467,920,0
65947537,1654,-0.1978,-0.0405,1.4707,44.1284,185.2417,-69.4580,1,468,959,0
65952535,1655,-0.1118,-0.0850,1.5894,43.7012,204.1015,-68.2983,1,477,933,0
65957541,1656,0.0132,-0.1255,1.6973,43.9453,227.6001,-67.5049,1,479,929,0
65962536,1657,0.1460,-0.1543,1.7642,46.1426,254.0283,-66.1621,1,484,907,0
65967538,1658,0.3184,-0.1782,1.6875,54.6875,308.7769,-64.8193,1,494,935,0
65972538,1659,0.3315,-0.1772,1.5547,59.4482,330.5664,-65.6738,1,469,823,0
65977537,1660,0.3223,-0.1792,1.3892,63.3545,348.2055,-66.6504,1,479,872,0
65982537,1661,0.3086,-0.1909,1.2231,65.2466,361.3891,-67.0776,1,483,912,0
65987535,1662,0.3066,-0.2104,1.0806,65.9180,369.3847,-67.0776,1,472,902,0
65992536,1663,0.3262,-0.2295,0.9683,65.6128,373.2299,-66.0400,1,486,919,0
65997534,1664,0.3613,-0.2490,0.8862,63.3545,373.9624,-64.0869,1,471,896,0
66002540,1665,0.3984,-0.2749,0.8281,60.6689,372.7417,-62.0728,1,493,910,0
66007534,1666,0.4238,-0.3022,0.7822,58.5327,370.6665,-60.1807,1,466,944,0
66012536,1667,0.4346,-0.3232,0.7432,56.0303,367.5537,-57.6172,1,466,969,0
66017540,1668,0.4385,-0.3325,0.7134,52.6733,362.9150,-55.0537,1,483,938,0
66022538,1669,0.4375,-0.3267,0.6943,48.8281,357.7270,-52.9175,1,466,943,0
66027534,1670,0.4336,-0.3105,0.6914,42.0532,351.2573,-50.2930,1,484,973,0
66032535,1671,0.4307,-0.2969,0.7090,33.9355,343.6279,-47.5464,1,466,928,0
66037539,1672,0.4238,-0.2871,0.7446,25.2686,335.3271,-44.3726,1,471,954,0
66042536,1673,0.4048,-0.2812,0.8081,15.1367,326.5991,-41.0767,1,471,987,0
66047537,1674,0.3936,-0.2852,0.9141,3.9673,317.7490,-36.7432,1,477,954,0
66052544,1675,0.4092,-0.3057,1.0640,-7.2021,311.6455,-31.3110,1,482,902,0
66057538,1676,0.4453,-0.3359,1.2432,-17.2119,309.6924,-25.3906,1,480,895,0
66062541,1677,0.4839,-0.3682,1.4351,-25.0854,311.2183,-19.2261,1,506,912,0
66067541,1678,0.5176,-0.3955,1.6270,-29.5410,314.5752,-11.7187,1,477,920,0
66072542,1679,0.5596,-0.4136,1.8081,-32.4097,319.9463,-4.0894,1,493,936,0
66077539,1680,0.6240,-0.4336,1.9658,-32.9590,328.1860,3.4180,1,492,830,0
66082539,1681,0.6958,-0.4575,2.0786,-31.2500,340.7592,10.6812,1,477,900,0
66087538,1682,0.7388,-0.4683,2.1284,-29.3579,354.3701,18.9819,1,483,926,0
66092538,1683,0.7432,-0.4546,2.1201,-27.2827,365.8447,27.0996,1,472,909,0
66097539,1684,0.7261,-0.4194,2.0684,-24.5361,374.5727,34.9121,1,480,935,0
66102539,1685,0.7002,-0.3662,1.9912,-21.4844,380.2490,41.6870,1,482,940,0
66107535,1686,0.6738,-0.2905,1.9126,-18.8599,382.3242,47.1191,1,493,909,0
66112538,1687,0.6602,-0.1924,1.8550,-17.9443,381.2256,50.5981,1,466,935,0
66117540,1688,0.6675,-0.0845,1.8306,-18.6768,378.1738,51.6357,1,466,961,0
66122538,1689,0.6899,0.0156,1.8369,-20.6909,374.6338,50.2930,1,466,931,0
66127541,1690,0.7168,0.0879,1.8667,-23.5596,370.8496,46.7529,1,465,940,0
66132541,1691,0.7495,0.1187,1.9150,-26.0010,367.0044,41.5649,1,484,965,0
66137536,1692,0.7974,0.1113,1.9727,-27.3437,363.4643,35.6445,1,466,922,0
66142542,1693,0.8589,0.0830,2.0249,-27.4658,360.9619,29.4800,1,465,941,0
66147535,1694,0.9194,0.0605,2.0566,-27.6489,359.1919,23.3765,1,480,967,0
66152536,1695,0.9673,0.0728,2.0684,-29.3579,356.7505,17.6392,1,472,931,0
66157545,1696,1.0166,0.1260,2.0762,-34.7900,353.0273,12.1460,1,478,918,0
66162539,1697,1.0869,0.1924,2.0894,-43.5791,349.4262,6.5308,1,472,932,0
66167541,1698,1.1699,0.2407,2.1040,-53.4058,346.2524,1.2817,1,498,902,0
66172543,1699,1.2495,0.2505,2.1284,-63.1714,341.7358,-3.3569,1,467,926,0
66177535,1700,1.3438,0.2158,2.1753,-71.3501,335.1440,-6.2256,1,493,933,0
66182543,1701,1.4902,0.1396,2.2319,-76.7822,329.4677,-6.5918,1,473,947,0
66187539,1702,1.6807,0.0293,2.2432,-77.2705,328.1860,-5.1880,1,488,824,0
66192543,1703,1.8574,-0.0942,2.1494,-71.5942,329.2846,-2.7466,1,480,915,0
66197536,1704,1.9751,-0.2026,1.9307,-61.4014,327.6977,0.9155,1,485,899,0
66202539,1705,2.0508,-0.2705,1.6191,-49.4995,319.5190,5.9814,1,483,891,0
66207541,1706,2.1323,-0.2764,1.2603,-38.1470,305.6641,10.7422,1,484,893,0
66212535,1707,2.2407,-0.2100,0.8921,-29.9683,287.3535,13.0615,1,493,895,0
66217536,1708,2.3672,-0.0757,0.5352,-25.3296,265.3198,11.7187,1,466,933,0
66222542,1709,2.5029,0.0972,0.2090,-28.9307,238.8306,7.4463,1,466,936,0
66227534,1710,2.6509,0.2588,-0.0615,-37.1094,209.5337,-0.9155,1,483,915,0
66232537,1711,2.8096,0.3618,-0.2612,-49.1943,178.4668,-11.7798,1,465,910,0
66237542,1712,2.9790,0.3833,-0.3838,-61.3403,146.8506,-23.3154,1,484,946,0
66242536,1713,3.1362,0.3154,-0.4458,-69.9463,117.0654,-32.8979,1,469,880,0
