t_us, seq, ax, ay, az, gx, gy, gz, valid, t_imu_us, t_serial_us, missed
2282593922,449977,-0.0322,-0.0088,1.0205,-0.7324,0.4883,-0.3052,1,487,843,3397
2282598929,449978,-0.0322,-0.0078,1.0215,-0.7324,0.4883,-0.3662,1,471,845,3397
2282603926,449979,-0.0317,-0.0083,1.0215,-0.5493,0.4883,-0.3052,1,493,852,3397
2282608926,449980,-0.0312,-0.0098,1.0229,-0.5493,0.4883,-0.2441,1,466,848,3397
2282613940,449981,-0.0312,-0.0088,1.0234,-0.6714,0.4883,-0.3052,1,466,905,3397
2282618925,449982,-0.0312,-0.0083,1.0225,-0.6714,0.1831,-0.3052,1,466,897,3397
2282623929,449983,-0.0308,-0.0103,1.0210,-0.6714,0.2441,-0.3052,1,484,900,3397
2282628922,449984,-0.0303,-0.0112,1.0205,-0.7324,0.3052,-0.3662,1,473,860,3397
2282633923,449985,-0.0303,-0.0103,1.0225,-0.6104,0.2441,-0.3662,1,466,875,3397
2282638931,449986,-0.0303,-0.0093,1.0244,-0.5493,0.1831,-0.4272,1,483,901,3397
2282643922,449987,-0.0293,-0.0093,1.0249,-0.5493,0.0610,-0.3662,1,479,868,3397
2282648922,449988,-0.0293,-0.0098,1.0234,-0.6104,0.3052,-0.2441,1,467,868,3397
2282653931,449989,-0.0298,-0.0103,1.0220,-0.5493,0.3052,-0.2441,1,469,870,3397
2282658948,449990,-0.0298,-0.0103,1.0229,-0.5493,0.3662,-0.3052,1,482,858,3397
2282663922,449991,-0.0298,-0.0088,1.0239,-0.6104,0.4272,-0.3662,1,469,859,3397
2282668927,449992,-0.0312,-0.0088,1.0239,-0.6714,0.4272,-0.3052,1,511,858,3397
2282673922,449993,-0.0317,-0.0093,1.0234,-0.5493,0.4272,-0.3052,1,486,881,3397
2282678931,449994,-0.0312,-0.0107,1.0234,-0.5493,0.4272,-0.3052,1,494,877,3397
2282683928,449995,-0.0322,-0.0117,1.0229,-0.4272,0.2441,-0.3662,1,471,802,3397
2282688923,449996,-0.0327,-0.0112,1.0210,-0.4272,0.2441,-0.3662,1,484,860,3397
2282693929,449997,-0.0322,-0.0112,1.0200,-0.3662,0.0610,-0.3052,1,475,857,3397
2282698925,449998,-0.0298,-0.0107,1.0215,-0.4272,0.1221,-0.3052,1,478,848,3397
2282703929,449999,-0.0283,-0.0103,1.0220,-0.4272,0.2441,-0.1831,1,488,844,3397
2282708930,450000,-0.0303,-0.0112,1.0225,-0.4272,0.1831,-0.3052,1,488,853,3397
2282713924,450001,-0.0322,-0.0112,1.0234,-0.4272,0.1831,-0.3662,1,493,848,3397
2282718927,450002,-0.0322,-0.0117,1.0225,-0.4272,0.1221,-0.2441,1,466,889,3397
2282723924,450003,-0.0327,-0.0112,1.0225,-0.3052,0.0000,-0.2441,1,466,882,3397
2282728924,450004,-0.0317,-0.0103,1.0225,-0.3052,0.1221,-0.3662,1,483,835,3397
2282733923,450005,-0.0308,-0.0107,1.0225,-0.3052,0.1221,-0.4272,1,466,863,3397
2282738929,450006,-0.0298,-0.0127,1.0225,-0.1831,0.0610,-0.2441,1,484,814,3397
2282743922,450007,-0.0303,-0.0132,1.0225,-0.1831,0.1831,-0.3052,1,465,905,3397
2282748927,450008,-0.0312,-0.0122,1.0205,-0.2441,0.2441,-0.4272,1,476,864,3397
2282753924,450009,-0.0308,-0.0107,1.0190,-0.1221,0.1221,-0.3662,1,473,901,3397
2282758926,450010,-0.0308,-0.0093,1.0205,-0.1831,0.1221,-0.3662,1,480,871,3397
2282763949,450011,-0.0303,-0.0093,1.0225,-0.1831,0.2441,-0.4272,1,466,855,3397
2282768924,450012,-0.0293,-0.0103,1.0234,-0.1221,0.1831,-0.4272,1,465,856,3397
2282773929,450013,-0.0288,-0.0107,1.0225,-0.0610,0.1831,-0.2441,1,508,859,3397
2282778923,450014,-0.0288,-0.0112,1.0220,-0.1831,0.2441,-0.3052,1,466,880,3397
2282783927,450015,-0.0293,-0.0122,1.0229,-0.3052,0.1831,-0.3662,1,494,883,3397
2282788922,450016,-0.0303,-0.0137,1.0244,-0.2441,0.1221,-0.3052,1,473,834,3397
2282793922,450017,-0.0312,-0.0137,1.0239,-0.1831,0.1831,-0.4272,1,488,844,3397
2282798924,450018,-0.0322,-0.0122,1.0220,-0.2441,0.1831,-0.2441,1,475,881,3397
2282803929,450019,-0.0322,-0.0103,1.0220,-0.1221,0.1221,-0.2441,1,482,859,3397
2282808927,450020,-0.0308,-0.0098,1.0229,-0.0610,0.1221,-0.3052,1,483,846,3397
2282813928,450021,-0.0303,-0.0103,1.0225,-0.1221,0.0610,-0.2441,1,483,837,3397
2282818925,450022,-0.0312,-0.0132,1.0210,-0.1221,0.0000,-0.3052,1,492,842,3397
2282823929,450023,-0.0327,-0.0151,1.0210,0.0000,0.0610,-0.3662,1,466,848,3397
2282828925,450024,-0.0327,-0.0137,1.0220,0.1221,0.0000,-0.3052,1,466,834,3397
2282833926,450025,-0.0322,-0.0127,1.0225,0.0000,-0.0610,-0.2441,1,465,827,3397
2282838924,450026,-0.0312,-0.0127,1.0229,0.0000,-0.0610,-0.2441,1,466,822,3397
2282843926,450027,-0.0303,-0.0122,1.0234,0.1221,0.0000,-0.3052,1,484,850,3397
2282848924,450028,-0.0298,-0.0112,1.0229,0.0000,0.1221,-0.3052,1,465,817,3397
2282853924,450029,-0.0298,-0.0112,1.0239,0.0610,0.0610,-0.2441,1,473,818,3397
2282858930,450030,-0.0303,-0.0122,1.0249,0.1221,0.0610,-0.3052,1,474,869,3397
2282863928,450031,-0.0303,-0.0127,1.0239,0.1831,0.1221,-0.1221,1,472,861,3397
2282868927,450032,-0.0303,-0.0107,1.0225,0.1221,0.1221,-0.1831,1,478,871,3397
2282873925,450033,-0.0303,-0.0103,1.0220,0.0610,0.1221,-0.1831,1,482,853,3397
2282878927,450034,-0.0303,-0.0107,1.0220,0.0610,0.1831,-0.1831,1,507,851,3397
2282883925,450035,-0.0298,-0.0117,1.0234,0.0610,0.1831,-0.2441,1,511,858,3397
2282888926,450036,-0.0312,-0.0122,1.0244,-0.0610,0.1221,-0.2441,1,481,880,3397
2282893923,450037,-0.0317,-0.0117,1.0229,0.0610,0.1831,-0.2441,1,492,905,3397
2282898930,450038,-0.0312,-0.0117,1.0215,0.0000,0.1221,-0.1831,1,476,866,3397
2282903925,450039,-0.0312,-0.0127,1.0205,0.0610,0.3662,-0.2441,1,480,827,3397
2282908923,450040,-0.0317,-0.0117,1.0195,0.1221,0.1831,-0.0610,1,492,877,3397
2282913927,450041,-0.0312,-0.0142,1.0210,0.0000,-0.1831,-0.3052,1,491,871,3397
2282918922,450042,-0.0254,-0.0122,1.0239,0.4272,0.0000,-0.1221,1,492,826,3397
2282923925,450043,-0.0244,-0.0068,1.0269,-0.1221,0.2441,-0.1831,1,479,806,3397
2282928930,450044,-0.0278,-0.0088,1.0259,-0.3052,0.3662,-0.1831,1,493,850,3397
2282933925,450045,-0.0317,-0.0112,1.0229,-0.0610,0.1831,-0.0610,1,466,876,3397
2282938927,450046,-0.0327,-0.0117,1.0210,-0.1221,0.1221,-0.1831,1,466,883,3397
2282943927,450047,-0.0322,-0.0112,1.0220,-0.0610,0.0610,-0.2441,1,484,874,3397
2282948926,450048,-0.0312,-0.0107,1.0225,-0.2441,0.0610,-0.1831,1,465,880,3397
2282953928,450049,-0.0312,-0.0122,1.0229,-0.1831,0.0000,-0.0610,1,484,904,3397
2282958927,450050,-0.0312,-0.0137,1.0229,-0.1221,0.0000,-0.1831,1,465,890,3397
2282963930,450051,-0.0303,-0.0142,1.0229,-0.1221,0.0610,-0.2441,1,474,848,3397
2282968928,450052,-0.0293,-0.0132,1.0234,-0.1221,0.1221,-0.1831,1,470,865,3397
2282973930,450053,-0.0293,-0.0122,1.0244,-0.0610,0.0610,-0.1831,1,477,865,3397
2282978923,450054,-0.0303,-0.0117,1.0244,-0.0610,0.0610,-0.1221,1,479,879,3397
2282983953,450055,-0.0303,-0.0127,1.0225,-0.1221,0.1221,-0.1831,1,469,853,3397
2282988927,450056,-0.0298,-0.0122,1.0210,-0.0610,0.0610,-0.1221,1,465,851,3397
2282993928,450057,-0.0293,-0.0117,1.0210,0.0000,-0.1221,-0.0610,1,465,852,3397
2282998922,450058,-0.0278,-0.0112,1.0225,-0.0610,0.0610,-0.1221,1,494,720,3397
2283003930,450059,-0.0278,-0.0107,1.0234,-0.1221,0.0610,-0.1831,1,468,856,3397
2283008931,450060,-0.0293,-0.0103,1.0234,-0.0610,0.0000,-0.1221,1,490,823,3397
2283013922,450061,-0.0317,-0.0093,1.0239,0.0610,0.1221,-0.1221,1,490,799,3397
2283018927,450062,-0.0332,-0.0107,1.0229,-0.1831,-0.1221,-0.1221,1,485,842,3397
2283023927,450063,-0.0317,-0.0117,1.0225,-0.1221,-0.1221,-0.1221,1,490,851,3397
2283028928,450064,-0.0303,-0.0112,1.0220,-0.1831,-0.1221,-0.0610,1,477,844,3397
2283033925,450065,-0.0308,-0.0127,1.0210,-0.0610,-0.1831,-0.1221,1,492,847,3397
2283038922,450066,-0.0312,-0.0127,1.0205,-0.0610,-0.1831,-0.1221,1,466,870,3397
2283043946,450067,-0.0312,-0.0142,1.0215,-0.1221,-0.3662,-0.1221,1,466,901,3397
2283048929,450068,-0.0308,-0.0146,1.0234,-0.1221,-0.3052,0.0000,1,465,901,3397
2283053925,450069,-0.0303,-0.0122,1.0239,0.0000,-0.1221,-0.1221,1,465,820,3397
2283058923,450070,-0.0303,-0.0107,1.0229,0.0610,-0.3052,-0.1221,1,484,771,3397
2283063922,450071,-0.0298,-0.0093,1.0220,0.0610,-0.0610,-0.0610,1,466,896,3397
2283068931,450072,-0.0303,-0.0098,1.0225,-0.1831,0.0610,-0.1221,1,472,858,3397
2283073923,450073,-0.0308,-0.0122,1.0215,-0.1831,-0.1221,-0.0610,1,465,858,3397
2283078926,450074,-0.0303,-0.0117,1.0205,-0.0610,-0.1221,0.0000,1,479,864,3397
2283083922,450075,-0.0308,-0.0098,1.0210,-0.1221,-0.1831,0.0610,1,481,807,3397
2283088952,450076,-0.0303,-0.0112,1.0210,-0.2441,-0.1831,-0.0610,1,465,847,3397
2283093924,450077,-0.0303,-0.0112,1.0220,-0.1221,-0.1221,-0.1221,1,482,859,3397
2283098929,450078,-0.0303,-0.0117,1.0225,-0.3052,-0.1221,-0.1221,1,466,850,3397
2283103926,450079,-0.0293,-0.0142,1.0215,-0.1831,-0.2441,-0.0610,1,492,865,3397
2283108930,450080,-0.0273,-0.0137,1.0210,-0.0610,-0.1831,0.0000,1,466,776,3397
2283113924,450081,-0.0273,-0.0112,1.0215,-0.0610,-0.2441,-0.1221,1,480,803,3397
2283118929,450082,-0.0288,-0.0117,1.0229,-0.1221,-0.1831,-0.2441,1,472,850,3397
2283123924,450083,-0.0298,-0.0122,1.0229,0.0610,-0.1221,0.0000,1,478,857,3397
2283128926,450084,-0.0308,-0.0117,1.0215,-0.0610,-0.1221,-0.1221,1,492,803,3397
2283133922,450085,-0.0322,-0.0127,1.0205,-0.1221,-0.1831,-0.1831,1,476,839,3397
2283138929,450086,-0.0322,-0.0142,1.0210,0.0610,-0.3052,-0.1221,1,493,852,3397
2283143922,450087,-0.0308,-0.0132,1.0225,0.2441,-0.3662,-0.2441,1,466,870,3397
2283148922,450088,-0.0303,-0.0132,1.0215,0.1221,-0.3052,-0.3662,1,466,880,3397
2283153927,450089,-0.0322,-0.0137,1.0205,0.0610,-0.2441,-0.2441,1,466,870,3397
2283158928,450090,-0.0327,-0.0127,1.0200,0.3052,-0.4272,-0.1831,1,465,883,3397
2283163923,450091,-0.0312,-0.0122,1.0210,0.3052,-0.4272,-0.2441,1,481,867,3397
2283168925,450092,-0.0293,-0.0122,1.0225,0.3052,-0.4272,-0.1221,1,466,846,3397
2283173928,450093,-0.0278,-0.0117,1.0229,0.3052,-0.3052,-0.1831,1,470,933,3397
2283178922,450094,-0.0278,-0.0122,1.0215,0.2441,-0.3662,-0.2441,1,472,868,3397
2283183922,450095,-0.0278,-0.0137,1.0210,0.3052,-0.3662,-0.3052,1,465,878,3397
2283188928,450096,-0.0278,-0.0137,1.0225,0.3662,-0.3052,-0.3052,1,468,854,3397
2283193924,450097,-0.0278,-0.0112,1.0225,0.3662,-0.4272,-0.3052,1,465,856,3397
2283198929,450098,-0.0283,-0.0098,1.0229,0.3052,-0.3662,-0.1831,1,465,862,3397
2283203930,450099,-0.0288,-0.0098,1.0239,0.2441,-0.4272,-0.2441,1,465,859,3397
2283208922,450100,-0.0278,-0.0103,1.0249,0.2441,-0.2441,-0.1831,1,494,883,3397
2283213929,450101,-0.0278,-0.0098,1.0244,0.1221,-0.1831,-0.1221,1,493,781,3397
2283218924,450102,-0.0273,-0.0103,1.0229,0.0610,-0.1221,-0.1831,1,486,855,3397
2283223928,450103,-0.0273,-0.0122,1.0220,0.1831,-0.1221,-0.1221,1,480,848,3397
2283228925,450104,-0.0273,-0.0132,1.0225,0.3662,-0.1831,-0.2441,1,486,871,3397
2283233926,450105,-0.0269,-0.0122,1.0239,0.1831,0.0610,-0.3052,1,475,854,3397
2283238925,450106,-0.0283,-0.0122,1.0244,0.0000,0.0610,-0.3052,1,481,850,3397
2283243922,450107,-0.0293,-0.0132,1.0239,0.0610,0.0610,-0.3052,1,492,805,3397
2283248926,450108,-0.0283,-0.0112,1.0225,0.1831,0.1221,-0.2441,1,493,843,3397
2283253944,450109,-0.0283,-0.0103,1.0220,0.1221,0.2441,-0.4272,1,466,882,3397
2283258923,450110,-0.0278,-0.0127,1.0220,0.1221,0.1831,-0.2441,1,465,879,3397
2283263922,450111,-0.0273,-0.0122,1.0234,0.3052,0.1221,-0.2441,1,465,880,3397
2283268927,450112,-0.0278,-0.0107,1.0239,0.1221,0.2441,-0.3662,1,484,867,3397
2283273926,450113,-0.0269,-0.0117,1.0229,0.0610,0.1831,-0.2441,1,465,882,3397
2283278929,450114,-0.0273,-0.0132,1.0234,0.2441,0.4883,-0.1221,1,474,922,3397
2283283923,450115,-0.0293,-0.0142,1.0234,0.1831,0.3662,-0.2441,1,475,869,3397
2283288929,450116,-0.0308,-0.0132,1.0220,0.2441,0.2441,-0.3052,1,466,874,3397
2283293930,450117,-0.0317,-0.0103,1.0220,0.1831,0.1831,-0.3052,1,479,873,3397
2283298957,450118,-0.0312,-0.0098,1.0234,0.1831,0.1221,-0.2441,1,481,859,3397
2283303927,450119,-0.0293,-0.0117,1.0244,0.2441,0.1221,-0.2441,1,479,884,3397
2283308928,450120,-0.0269,-0.0122,1.0234,0.3052,0.1831,-0.2441,1,483,862,3397
2283313926,450121,-0.0264,-0.0112,1.0225,0.1831,0.2441,-0.3662,1,494,880,3397
2283318922,450122,-0.0273,-0.0107,1.0220,0.0610,0.2441,-0.3052,1,493,883,3397
2283323925,450123,-0.0283,-0.0127,1.0220,0.1831,0.1831,-0.3052,1,490,857,3397
2283328922,450124,-0.0288,-0.0142,1.0229,0.3052,0.1221,-0.3052,1,473,851,3397
2283333924,450125,-0.0278,-0.0137,1.0229,0.3662,0.1831,-0.1831,1,488,843,3397
2283338929,450126,-0.0269,-0.0132,1.0225,0.1831,0.3052,-0.2441,1,475,878,3397
2283343923,450127,-0.0273,-0.0127,1.0220,0.1831,0.3052,-0.3052,1,478,848,3397
2283348929,450128,-0.0288,-0.0112,1.0215,0.2441,0.2441,-0.2441,1,481,845,3397
2283353924,450129,-0.0293,-0.0098,1.0205,0.2441,0.1831,-0.3052,1,493,860,3397
2283358943,450130,-0.0293,-0.0093,1.0210,0.3052,0.0610,-0.1831,1,466,874,3397
2283363930,450131,-0.0283,-0.0103,1.0225,0.3052,0.0610,-0.2441,1,466,868,3397
2283368929,450132,-0.0254,-0.0117,1.0249,0.3052,0.1221,-0.2441,1,484,874,3397
2283373928,450133,-0.0254,-0.0127,1.0259,0.4272,0.2441,-0.1221,1,480,864,3397
2283378927,450134,-0.0273,-0.0112,1.0249,0.2441,0.3052,-0.1831,1,465,874,3397
2283383923,450135,-0.0278,-0.0117,1.0234,0.3052,0.3662,-0.2441,1,474,924,3397
2283388927,450136,-0.0283,-0.0132,1.0220,0.4272,0.5493,-0.1221,1,479,872,3397
2283393930,450137,-0.0278,-0.0132,1.0215,0.4883,0.4883,-0.1221,1,479,869,3397
2283398924,450138,-0.0278,-0.0103,1.0215,0.5493,0.4883,-0.1831,1,478,872,3397
2283403953,450139,-0.0298,-0.0088,1.0220,0.5493,0.4883,-0.2441,1,466,861,3397
2283408923,450140,-0.0303,-0.0112,1.0234,0.4883,0.4883,-0.2441,1,482,858,3397
2283413923,450141,-0.0298,-0.0132,1.0244,0.5493,0.3662,-0.1221,1,466,861,3397
2283418925,450142,-0.0293,-0.0107,1.0244,0.4272,0.4883,-0.1831,1,471,879,3397
2283423928,450143,-0.0283,-0.0068,1.0244,0.4272,0.4272,-0.1831,1,494,812,3397
2283428929,450144,-0.0269,-0.0054,1.0259,0.1831,0.4883,-0.1221,1,485,836,3397
2283433925,450145,-0.0254,-0.0063,1.0259,0.0610,0.5493,0.0610,1,471,842,3397
2283438931,450146,-0.0269,-0.0098,1.0239,-0.0610,0.4883,0.0000,1,485,843,3397
2283443925,450147,-0.0298,-0.0127,1.0215,0.0000,0.5493,-0.0610,1,488,797,3397
2283448929,450148,-0.0298,-0.0137,1.0220,0.0610,0.5493,-0.0610,1,475,801,3397
2283453922,450149,-0.0278,-0.0137,1.0225,0.0000,0.4883,-0.1831,1,477,846,3397
2283458926,450150,-0.0269,-0.0127,1.0215,-0.0610,0.4883,-0.2441,1,493,804,3397
2283463944,450151,-0.0273,-0.0122,1.0210,0.1221,0.4883,-0.1221,1,466,876,3397
2283468930,450152,-0.0293,-0.0122,1.0210,0.1221,0.4272,-0.1831,1,466,873,3397
2283473926,450153,-0.0312,-0.0117,1.0210,0.1221,0.4272,-0.1221,1,483,877,3397
2283478926,450154,-0.0303,-0.0107,1.0200,0.0610,0.2441,-0.1221,1,479,895,3397
2283483929,450155,-0.0278,-0.0107,1.0195,0.0610,0.3052,-0.1831,1,466,869,3397
2283488926,450156,-0.0273,-0.0117,1.0215,0.0000,0.1831,-0.0610,1,465,920,3397
2283493929,450157,-0.0278,-0.0122,1.0229,0.0000,0.2441,-0.1831,1,468,823,3397
2283498922,450158,-0.0283,-0.0112,1.0234,0.0610,0.1831,-0.2441,1,470,796,3397
2283503923,450159,-0.0273,-0.0107,1.0220,0.0000,0.2441,-0.2441,1,480,840,3397
2283508954,450160,-0.0269,-0.0107,1.0215,-0.0610,0.3052,-0.1221,1,482,817,3397
2283513930,450161,-0.0283,-0.0107,1.0215,0.0610,0.2441,-0.1221,1,480,851,3397
2283518923,450162,-0.0298,-0.0103,1.0215,0.0610,0.1831,-0.1221,1,510,858,3397
2283523924,450163,-0.0288,-0.0107,1.0225,0.0000,0.1831,-0.1221,1,475,870,3397
2283528928,450164,-0.0273,-0.0107,1.0249,0.0610,0.2441,-0.1221,1,493,784,3397
2283533923,450165,-0.0259,-0.0098,1.0254,0.0000,0.3052,-0.1831,1,489,874,3397
2283538922,450166,-0.0264,-0.0098,1.0249,-0.0610,0.4272,-0.1221,1,483,796,3397
2283543928,450167,-0.0273,-0.0098,1.0244,-0.1221,0.4272,-0.1221,1,472,843,3397
2283548923,450168,-0.0283,-0.0093,1.0229,-0.1831,0.4883,-0.1221,1,488,871,3397
2283553929,450169,-0.0298,-0.0103,1.0210,-0.1221,0.3662,-0.2441,1,481,849,3397
2283558926,450170,-0.0293,-0.0107,1.0205,-0.1221,0.3052,-0.2441,1,479,847,3397
2283563922,450171,-0.0278,-0.0098,1.0210,-0.0610,0.3662,-0.1831,1,493,845,3397
2283568946,450172,-0.0254,-0.0112,1.0220,-0.1221,0.3052,-0.1221,1,466,875,3397
2283573929,450173,-0.0254,-0.0137,1.0234,-0.0610,0.4272,-0.0610,1,466,870,3397
2283578924,450174,-0.0269,-0.0137,1.0239,-0.2441,0.3052,-0.1221,1,466,876,3397
2283583923,450175,-0.0283,-0.0117,1.0220,-0.0610,0.3662,-0.0610,1,484,864,3397
2283588929,450176,-0.0298,-0.0103,1.0205,-0.0610,0.4272,-0.1221,1,466,876,3397
2283593924,450177,-0.0298,-0.0103,1.0220,-0.0610,0.3052,-0.0610,1,470,861,3397
2283598930,450178,-0.0288,-0.0103,1.0220,0.0000,0.4883,-0.1221,1,479,858,3397
2283603928,450179,-0.0293,-0.0107,1.0200,-0.0610,0.4272,-0.1221,1,477,826,3397
2283608924,450180,-0.0293,-0.0112,1.0200,0.0610,0.3052,-0.1221,1,481,872,3397
2283613936,450181,-0.0293,-0.0112,1.0215,0.0000,0.2441,-0.1221,1,468,852,3397
2283618922,450182,-0.0298,-0.0122,1.0225,-0.1221,0.2441,-0.0610,1,478,813,3397
2283623929,450183,-0.0293,-0.0132,1.0229,0.0610,0.0000,-0.1831,1,511,858,3397
2283628926,450184,-0.0273,-0.0132,1.0225,0.0610,0.0000,-0.1221,1,483,729,3397
2283633925,450185,-0.0264,-0.0122,1.0215,0.0610,0.0610,0.0000,1,464,799,3397
2283638930,450186,-0.0269,-0.0117,1.0215,0.0610,0.0610,-0.0610,1,490,800,3397
2283643929,450187,-0.0269,-0.0112,1.0225,0.1221,0.1831,-0.1831,1,473,843,3397
2283648928,450188,-0.0269,-0.0103,1.0229,0.0000,0.3662,-0.1221,1,483,851,3397
2283653930,450189,-0.0283,-0.0093,1.0229,-0.0610,0.3662,-0.1221,1,488,801,3397
2283658922,450190,-0.0288,-0.0112,1.0229,0.0000,0.4272,-0.0610,1,475,847,3397
2283663928,450191,-0.0273,-0.0127,1.0234,-0.0610,0.4272,-0.0610,1,493,809,3397
2283668923,450192,-0.0278,-0.0122,1.0254,-0.1831,0.3662,-0.1831,1,466,877,3397
2283673930,450193,-0.0283,-0.0122,1.0259,-0.1221,0.3052,-0.1831,1,466,888,3397
2283678923,450194,-0.0264,-0.0107,1.0249,0.0000,0.4883,-0.1221,1,483,879,3397
2283683927,450195,-0.0264,-0.0103,1.0229,-0.0610,0.5493,-0.1831,1,465,774,3397
2283688928,450196,-0.0283,-0.0122,1.0215,-0.1221,0.5493,-0.1831,1,484,868,3397
2283693924,450197,-0.0293,-0.0127,1.0215,0.0610,0.4272,-0.2441,1,468,911,3397
2283698924,450198,-0.0298,-0.0122,1.0225,0.0000,0.5493,-0.2441,1,479,868,3397
2283703925,450199,-0.0303,-0.0142,1.0225,0.0610,0.5493,-0.1221,1,482,835,3397
2283708927,450200,-0.0293,-0.0142,1.0215,0.2441,0.3052,-0.1831,1,481,871,3397
2283713931,450201,-0.0293,-0.0127,1.0215,0.0000,0.4272,-0.2441,1,482,859,3397
2283718952,450202,-0.0298,-0.0117,1.0210,0.2441,0.3052,-0.1831,1,480,814,3397
2283723931,450203,-0.0293,-0.0107,1.0195,0.3662,0.2441,-0.2441,1,478,857,3397
2283728927,450204,-0.0283,-0.0098,1.0205,0.3662,0.2441,-0.1831,1,511,866,3397
2283733924,450205,-0.0288,-0.0098,1.0225,0.1221,0.3052,-0.1831,1,492,880,3397
2283738929,450206,-0.0288,-0.0107,1.0225,0.1831,0.2441,-0.1831,1,465,851,3397
2283743925,450207,-0.0283,-0.0127,1.0215,0.3662,0.3052,-0.3052,1,489,819,3397
2283748930,450208,-0.0288,-0.0122,1.0215,0.4272,0.3052,-0.3052,1,478,847,3397
2283753925,450209,-0.0273,-0.0112,1.0239,0.3052,0.1221,-0.1831,1,475,847,3397
2283758926,450210,-0.0273,-0.0112,1.0239,0.2441,0.1221,-0.3052,1,489,849,3397
2283763924,450211,-0.0283,-0.0112,1.0220,0.3662,0.0610,-0.1831,1,476,851,3397
2283768926,450212,-0.0288,-0.0112,1.0205,0.3662,0.0000,-0.3052,1,493,855,3397
2283773926,450213,-0.0288,-0.0117,1.0215,0.4272,0.0610,-0.4272,1,466,832,3397
2283778926,450214,-0.0288,-0.0117,1.0220,0.4272,0.0000,-0.3052,1,466,881,3397
2283783922,450215,-0.0293,-0.0103,1.0225,0.4883,-0.1221,-0.2441,1,484,831,3397
2283788929,450216,-0.0308,-0.0093,1.0210,0.4883,-0.0610,-0.4272,1,465,863,3397
2283793924,450217,-0.0322,-0.0112,1.0181,0.4883,-0.1831,-0.3662,1,484,858,3397
2283798926,450218,-0.0317,-0.0132,1.0200,0.4883,-0.4272,-0.3662,1,467,911,3397
2283803930,450219,-0.0278,-0.0122,1.0239,0.4883,-0.3052,-0.4272,1,468,871,3397
2283808922,450220,-0.0259,-0.0098,1.0244,0.5493,-0.0610,-0.4272,1,469,879,3397
2283813929,450221,-0.0288,-0.0083,1.0225,0.3662,-0.0610,-0.4272,1,481,875,3397
2283818929,450222,-0.0317,-0.0083,1.0190,0.4883,-0.3052,-0.4272,1,477,862,3397
2283823954,450223,-0.0298,-0.0098,1.0190,0.4883,-0.3662,-0.3052,1,480,859,3397
2283828927,450224,-0.0264,-0.0107,1.0225,0.6714,-0.3662,-0.2441,1,473,852,3397
2283833928,450225,-0.0254,-0.0093,1.0239,0.6104,-0.2441,-0.3662,1,511,861,3397
2283838927,450226,-0.0264,-0.0083,1.0234,0.6104,-0.1221,-0.3662,1,490,875,3397
2283843928,450227,-0.0283,-0.0088,1.0229,0.5493,-0.1831,-0.4883,1,466,799,3397
2283848927,450228,-0.0288,-0.0093,1.0234,0.5493,-0.1221,-0.4272,1,487,814,3397
2283853925,450229,-0.0283,-0.0098,1.0239,0.5493,-0.1221,-0.4883,1,484,851,3397
2283858927,450230,-0.0278,-0.0098,1.0244,0.4883,-0.1221,-0.4883,1,491,849,3397
2283863924,450231,-0.0278,-0.0098,1.0215,0.4883,-0.2441,-0.4883,1,475,845,3397
2283868929,450232,-0.0283,-0.0103,1.0181,0.5493,-0.2441,-0.4272,1,486,848,3397
2283873928,450233,-0.0283,-0.0098,1.0181,0.6104,-0.3052,-0.4272,1,486,851,3397
2283878922,450234,-0.0283,-0.0083,1.0205,0.7324,-0.4272,-0.4883,1,493,839,3397
2283883922,450235,-0.0288,-0.0088,1.0229,0.5493,-0.5493,-0.6104,1,466,880,3397
2283888924,450236,-0.0283,-0.0088,1.0244,0.5493,-0.3052,-0.4272,1,466,879,3397
2283893930,450237,-0.0288,-0.0093,1.0239,0.5493,-0.2441,-0.4272,1,465,878,3397
2283898926,450238,-0.0298,-0.0093,1.0220,0.5493,-0.2441,-0.4883,1,472,874,3397
2283903930,450239,-0.0303,-0.0088,1.0195,0.4883,-0.4883,-0.4883,1,466,876,3397
2283908925,450240,-0.0293,-0.0098,1.0200,0.5493,-0.4883,-0.4883,1,482,898,3397
2283913930,450241,-0.0269,-0.0103,1.0234,0.6104,-0.6104,-0.3662,1,465,861,3397
2283918929,450242,-0.0254,-0.0093,1.0259,0.4883,-0.4883,-0.4272,1,467,863,3397
2283923931,450243,-0.0259,-0.0088,1.0259,0.5493,-0.4883,-0.4883,1,470,872,3397
2283928926,450244,-0.0273,-0.0103,1.0239,0.5493,-0.6104,-0.4272,1,475,856,3397
2283933926,450245,-0.0283,-0.0098,1.0225,0.6714,-0.6104,-0.4883,1,476,861,3397
2283938923,450246,-0.0269,-0.0093,1.0225,0.6714,-0.4883,-0.4883,1,510,852,3397
2283943924,450247,-0.0244,-0.0093,1.0244,0.4883,-0.4883,-0.4883,1,471,872,3397
2283948927,450248,-0.0229,-0.0088,1.0259,0.4272,-0.4883,-0.4883,1,494,873,3397
2283953931,450249,-0.0249,-0.0083,1.0259,0.4883,-0.3052,-0.3662,1,464,817,3397
2283958923,450250,-0.0259,-0.0088,1.0249,0.4883,-0.3662,-0.3662,1,475,848,3397
2283963927,450251,-0.0264,-0.0083,1.0234,0.5493,-0.3662,-0.4883,1,490,851,3397
2283968927,450252,-0.0273,-0.0078,1.0225,0.2441,-0.3052,-0.4883,1,491,853,3397
2283973922,450253,-0.0278,-0.0093,1.0215,0.3662,-0.4272,-0.3052,1,476,846,3397
2283978928,450254,-0.0278,-0.0107,1.0220,0.4272,-0.3052,-0.3052,1,488,847,3397
2283983922,450255,-0.0273,-0.0093,1.0225,0.4883,-0.3052,-0.3662,1,475,847,3397
2283988927,450256,-0.0254,-0.0073,1.0234,0.3662,-0.2441,-0.4272,1,493,845,3397
2283993925,450257,-0.0244,-0.0078,1.0249,0.3662,-0.3662,-0.3662,1,466,883,3397
2283998928,450258,-0.0244,-0.0083,1.0259,0.3662,-0.3662,-0.3052,1,484,884,3397
2284003929,450259,-0.0244,-0.0078,1.0259,0.4883,-0.3052,-0.3052,1,465,878,3397
2284008929,450260,-0.0249,-0.0088,1.0249,0.3662,-0.3662,-0.3052,1,485,858,3397
2284013925,450261,-0.0259,-0.0103,1.0234,0.3052,-0.3662,-0.4272,1,466,877,3397
2284018929,450262,-0.0264,-0.0103,1.0220,0.4883,-0.2441,-0.2441,1,480,920,3397
2284023925,450263,-0.0264,-0.0098,1.0210,0.5493,-0.2441,-0.3052,1,478,868,3397
2284028927,450264,-0.0259,-0.0093,1.0210,0.4272,-0.3662,-0.3052,1,465,871,3397
2284033926,450265,-0.0259,-0.0093,1.0220,0.5493,-0.2441,-0.3662,1,465,854,3397
2284038949,450266,-0.0254,-0.0083,1.0229,0.4272,-0.2441,-0.2441,1,469,862,3397
2284043928,450267,-0.0259,-0.0073,1.0229,0.4272,-0.1831,-0.2441,1,467,865,3397
2284048922,450268,-0.0259,-0.0078,1.0220,0.4272,-0.2441,-0.3052,1,511,865,3397
2284053924,450269,-0.0239,-0.0093,1.0220,0.3662,-0.3052,-0.3052,1,465,874,3397
2284058928,450270,-0.0229,-0.0088,1.0234,0.2441,-0.1221,-0.2441,1,493,798,3397
2284063930,450271,-0.0239,-0.0078,1.0244,0.2441,-0.1221,-0.2441,1,480,859,3397
2284068927,450272,-0.0254,-0.0073,1.0239,0.4272,-0.0610,-0.2441,1,490,854,3397
2284073926,450273,-0.0254,-0.0078,1.0239,0.4883,-0.0610,-0.3052,1,478,852,3397
2284078928,450274,-0.0249,-0.0098,1.0249,0.3052,-0.0610,-0.1831,1,486,863,3397
2284083929,450275,-0.0254,-0.0098,1.0254,0.3052,-0.0610,-0.1831,1,473,846,3397
2284088929,450276,-0.0264,-0.0083,1.0239,0.2441,0.0610,-0.1221,1,491,840,3397
2284093924,450277,-0.0264,-0.0073,1.0225,0.2441,0.1221,-0.2441,1,493,847,3397
2284098942,450278,-0.0259,-0.0063,1.0220,0.1221,0.1831,-0.1221,1,466,876,3397
2284103926,450279,-0.0254,-0.0059,1.0249,0.0610,0.0610,-0.1221,1,466,869,3397
2284108929,450280,-0.0239,-0.0059,1.0269,0.0610,0.1221,-0.2441,1,484,866,3397
2284113924,450281,-0.0229,-0.0068,1.0259,0.0610,0.1831,-0.2441,1,472,859,3397
2284118925,450282,-0.0234,-0.0068,1.0239,0.1831,0.2441,-0.1831,1,465,830,3397
2284123922,450283,-0.0254,-0.0078,1.0229,0.2441,0.3052,-0.1831,1,483,911,3397
2284128928,450284,-0.0273,-0.0103,1.0210,0.2441,0.3662,-0.2441,1,467,867,3397
2284133922,450285,-0.0283,-0.0103,1.0205,0.2441,0.1221,-0.1831,1,465,879,3397
2284138922,450286,-0.0273,-0.0088,1.0210,0.1221,0.1221,-0.3052,1,472,878,3397
2284143929,450287,-0.0249,-0.0083,1.0220,0.2441,0.0000,-0.3052,1,477,847,3397
2284148923,450288,-0.0234,-0.0073,1.0234,0.2441,0.0000,-0.3052,1,467,813,3397
2284153928,450289,-0.0229,-0.0054,1.0249,0.1831,0.1221,-0.2441,1,510,813,3397
2284158927,450290,-0.0229,-0.0044,1.0249,0.1221,0.1221,-0.1831,1,494,860,3397
2284163925,450291,-0.0239,-0.0049,1.0249,0.1221,0.2441,-0.3052,1,494,871,3397
2284168926,450292,-0.0244,-0.0059,1.0244,0.0610,0.3662,-0.2441,1,465,853,3397
2284173928,450293,-0.0249,-0.0068,1.0234,0.1221,0.3052,-0.2441,1,491,848,3397
2284178928,450294,-0.0259,-0.0083,1.0229,0.1221,0.4272,-0.3052,1,480,847,3397
2284183925,450295,-0.0264,-0.0098,1.0220,0.1221,0.4272,-0.3662,1,489,845,3397
2284188922,450296,-0.0264,-0.0103,1.0220,0.1831,0.4272,-0.2441,1,492,844,3397
2284193924,450297,-0.0259,-0.0098,1.0220,0.1831,0.4883,-0.3052,1,479,851,3397
2284198924,450298,-0.0273,-0.0083,1.0225,0.1831,0.4883,-0.3052,1,493,841,3397
2284203924,450299,-0.0273,-0.0063,1.0229,0.1221,0.4883,-0.1831,1,466,873,3397
2284208925,450300,-0.0269,-0.0054,1.0234,0.1221,0.4883,-0.2441,1,466,876,3397
2284213923,450301,-0.0259,-0.0063,1.0239,0.0610,0.3662,-0.2441,1,483,874,3397
2284218925,450302,-0.0249,-0.0078,1.0234,0.1221,0.3052,-0.3052,1,466,868,3397
2284223922,450303,-0.0249,-0.0083,1.0234,0.0610,0.3662,-0.3052,1,484,860,3397
2284228925,450304,-0.0264,-0.0078,1.0234,0.0000,0.4883,-0.3052,1,467,906,3397
2284233925,450305,-0.0259,-0.0068,1.0239,-0.0610,0.4272,-0.3052,1,471,824,3397
2284238925,450306,-0.0249,-0.0063,1.0259,-0.1221,0.3662,-0.3052,1,472,872,3397
2284243930,450307,-0.0254,-0.0068,1.0254,0.0000,0.3052,-0.1831,1,474,871,3397
2284248924,450308,-0.0264,-0.0073,1.0229,0.0000,0.3052,-0.3052,1,474,809,3397
2284253939,450309,-0.0264,-0.0068,1.0220,0.0610,0.3662,-0.3052,1,482,806,3397
2284258928,450310,-0.0259,-0.0068,1.0220,0.0610,0.3662,-0.3052,1,484,852,3397
2284263927,450311,-0.0249,-0.0068,1.0225,0.0610,0.4883,-0.2441,1,510,853,3397
2284268924,450312,-0.0244,-0.0049,1.0225,0.0610,0.4883,-0.2441,1,475,875,3397
2284273928,450313,-0.0244,-0.0054,1.0229,0.1221,0.3662,-0.2441,1,493,769,3397
2284278924,450314,-0.0239,-0.0068,1.0220,0.0000,0.4883,-0.1831,1,490,873,3397
2284283922,450315,-0.0254,-0.0078,1.0205,0.0610,0.6714,-0.1831,1,482,803,3397
2284288923,450316,-0.0273,-0.0088,1.0195,0.0000,0.5493,-0.3052,1,483,846,3397
2284293928,450317,-0.0293,-0.0098,1.0195,0.0000,0.5493,-0.3662,1,489,801,3397
2284298928,450318,-0.0283,-0.0103,1.0200,0.0610,0.3052,-0.3052,1,473,804,3397
2284303930,450319,-0.0269,-0.0093,1.0215,0.0610,0.1831,-0.3662,1,476,840,3397
2284308927,450320,-0.0269,-0.0078,1.0229,0.0000,0.2441,-0.3052,1,493,846,3397
2284313922,450321,-0.0264,-0.0078,1.0234,-0.0610,0.1831,-0.2441,1,466,830,3397
2284318925,450322,-0.0254,-0.0083,1.0225,-0.1221,0.3052,-0.3052,1,466,879,3397
2284323927,450323,-0.0259,-0.0088,1.0205,-0.0610,0.2441,-0.3052,1,466,855,3397
2284328928,450324,-0.0273,-0.0088,1.0195,0.0000,0.0610,-0.3662,1,484,860,3397
2284333922,450325,-0.0283,-0.0078,1.0200,0.1221,0.0610,-0.3662,1,465,820,3397
2284338927,450326,-0.0283,-0.0063,1.0229,0.1831,0.0000,-0.3052,1,481,862,3397
2284343929,450327,-0.0264,-0.0059,1.0259,0.0610,0.0610,-0.3662,1,477,822,3397
2284348925,450328,-0.0249,-0.0063,1.0264,0.1221,0.1221,-0.3052,1,477,858,3397
2284353925,450329,-0.0239,-0.0063,1.0249,0.1221,0.2441,-0.2441,1,466,850,3397
2284358929,450330,-0.0249,-0.0054,1.0229,0.0610,0.2441,-0.3052,1,468,862,3397
2284363926,450331,-0.0264,-0.0063,1.0210,0.0000,0.1221,-0.3662,1,484,855,3397
2284368923,450332,-0.0269,-0.0083,1.0215,0.1221,0.1221,-0.3052,1,510,806,3397
2284373922,450333,-0.0264,-0.0088,1.0229,0.1831,0.2441,-0.4883,1,473,865,3397
2284378923,450334,-0.0264,-0.0093,1.0239,0.0610,0.1831,-0.3662,1,493,770,3397
2284383924,450335,-0.0259,-0.0088,1.0239,0.0000,0.1221,-0.4272,1,491,801,3397
2284388923,450336,-0.0249,-0.0078,1.0234,0.1831,0.2441,-0.4883,1,473,800,3397
2284393923,450337,-0.0249,-0.0059,1.0225,0.1221,0.3662,-0.3052,1,483,854,3397
2284398923,450338,-0.0249,-0.0054,1.0210,0.1221,0.3052,-0.2441,1,490,839,3397
2284403925,450339,-0.0259,-0.0059,1.0210,0.1221,0.4272,-0.3662,1,479,840,3397
2284408929,450340,-0.0259,-0.0063,1.0220,0.1221,0.4272,-0.3052,1,482,841,3397
2284413925,450341,-0.0254,-0.0059,1.0229,0.0610,0.3052,-0.3052,1,493,841,3397
2284418948,450342,-0.0259,-0.0054,1.0239,0.0610,0.4272,-0.2441,1,466,862,3397
2284423924,450343,-0.0264,-0.0063,1.0239,0.1221,0.4883,-0.3052,1,466,876,3397
2284428922,450344,-0.0264,-0.0073,1.0229,0.1221,0.1831,-0.3662,1,465,869,3397
2284433924,450345,-0.0259,-0.0083,1.0220,0.0610,0.2441,-0.3052,1,484,867,3397
2284438929,450346,-0.0254,-0.0088,1.0210,0.1831,0.3052,-0.2441,1,466,899,3397
2284443924,450347,-0.0249,-0.0078,1.0205,0.0610,0.3052,-0.3662,1,473,860,3397
2284448924,450348,-0.0249,-0.0073,1.0215,0.1831,0.1221,-0.4272,1,482,865,3397
2284453925,450349,-0.0254,-0.0063,1.0225,0.1221,0.3052,-0.4272,1,465,876,3397
2284458922,450350,-0.0254,-0.0059,1.0229,0.0610,0.3052,-0.4272,1,472,851,3397
2284463940,450351,-0.0249,-0.0068,1.0239,0.0000,0.1831,-0.4272,1,479,850,3397
2284468930,450352,-0.0234,-0.0068,1.0239,-0.0610,0.3662,-0.3662,1,484,819,3397
2284473927,450353,-0.0239,-0.0068,1.0225,0.1221,0.4883,-0.3662,1,511,862,3397
2284478926,450354,-0.0269,-0.0063,1.0210,0.0000,0.3662,-0.3662,1,487,875,3397
2284483922,450355,-0.0283,-0.0068,1.0215,0.0000,0.2441,-0.3052,1,464,812,3397
2284488930,450356,-0.0273,-0.0078,1.0234,0.1221,0.3052,-0.3052,1,480,801,3397
2284493930,450357,-0.0259,-0.0073,1.0244,0.0610,0.3052,-0.3052,1,481,843,3397
2284498924,450358,-0.0244,-0.0063,1.0244,0.0610,0.3662,-0.3052,1,486,841,3397
2284503928,450359,-0.0244,-0.0054,1.0239,0.1221,0.4272,-0.3662,1,476,846,3397
2284508923,450360,-0.0249,-0.0063,1.0225,0.0610,0.3052,-0.3662,1,482,849,3397
2284513923,450361,-0.0259,-0.0073,1.0215,0.0610,0.3662,-0.3662,1,487,846,3397
2284518926,450362,-0.0273,-0.0078,1.0225,0.1221,0.3662,-0.4272,1,466,848,3397
2284523947,450363,-0.0283,-0.0073,1.0234,0.0000,0.3662,-0.3052,1,466,875,3397
2284528922,450364,-0.0283,-0.0073,1.0234,0.1831,0.3662,-0.3052,1,466,832,3397
2284533922,450365,-0.0259,-0.0083,1.0229,0.1221,0.2441,-0.3052,1,465,882,3397
2284538926,450366,-0.0244,-0.0093,1.0225,0.1221,0.1831,-0.3052,1,484,864,3397
2284543928,450367,-0.0249,-0.0098,1.0234,0.1831,0.2441,-0.3052,1,465,897,3397
2284548927,450368,-0.0244,-0.0088,1.0239,0.2441,0.1831,-0.4272,1,470,931,3397
2284553924,450369,-0.0239,-0.0068,1.0234,0.3052,0.2441,-0.3662,1,475,872,3397
2284558928,450370,-0.0239,-0.0068,1.0229,0.0610,0.3052,-0.4272,1,482,869,3397
2284563925,450371,-0.0249,-0.0068,1.0229,0.1221,0.3662,-0.3662,1,482,874,3397
2284568928,450372,-0.0254,-0.0073,1.0225,0.0610,0.3662,-0.3662,1,466,863,3397
2284573925,450373,-0.0249,-0.0068,1.0220,0.0000,0.3662,-0.2441,1,484,857,3397
2284578925,450374,-0.0259,-0.0073,1.0215,0.1221,0.3662,-0.2441,1,510,814,3397
2284583925,450375,-0.0259,-0.0073,1.0225,0.0610,0.3052,-0.2441,1,475,875,3397
2284588929,450376,-0.0259,-0.0063,1.0234,0.0610,0.3662,-0.3052,1,466,768,3397
2284593922,450377,-0.0264,-0.0063,1.0234,0.1831,0.3662,-0.1831,1,465,854,3397
2284598923,450378,-0.0254,-0.0068,1.0225,0.1221,0.3662,-0.3052,1,478,855,3397
2284603925,450379,-0.0239,-0.0078,1.0220,0.0610,0.4883,-0.3052,1,488,842,3397
2284608929,450380,-0.0239,-0.0078,1.0229,0.1221,0.5493,-0.3052,1,475,842,3397
2284613928,450381,-0.0244,-0.0068,1.0254,0.0610,0.4272,-0.3052,1,480,847,3397
2284618927,450382,-0.0239,-0.0063,1.0259,0.0610,0.4883,-0.3052,1,482,845,3397
2284623928,450383,-0.0239,-0.0063,1.0254,0.1221,0.4883,-0.3662,1,492,842,3397
2284628946,450384,-0.0254,-0.0068,1.0234,0.0000,0.4272,-0.2441,1,466,873,3397
2284633926,450385,-0.0273,-0.0073,1.0215,0.0610,0.4272,-0.3662,1,466,833,3397
2284638923,450386,-0.0278,-0.0073,1.0205,0.1221,0.3662,-0.3052,1,465,880,3397
2284643924,450387,-0.0273,-0.0068,1.0205,0.0610,0.3052,-0.2441,1,485,864,3397
2284648922,450388,-0.0249,-0.0068,1.0220,0.0000,0.2441,-0.2441,1,465,873,3397
2284653924,450389,-0.0234,-0.0083,1.0234,0.0000,0.4272,-0.4272,1,477,826,3397
2284658922,450390,-0.0244,-0.0078,1.0225,0.0610,0.3052,-0.2441,1,477,825,3397
2284663928,450391,-0.0259,-0.0063,1.0225,-0.0610,0.3052,-0.3052,1,482,864,3397
2284668927,450392,-0.0259,-0.0054,1.0225,0.0610,0.3052,-0.3052,1,481,866,3397
2284673933,450393,-0.0254,-0.0054,1.0225,0.0000,0.3662,-0.2441,1,465,844,3397
2284678931,450394,-0.0254,-0.0054,1.0225,0.0000,0.3052,-0.1831,1,478,811,3397
2284683927,450395,-0.0244,-0.0068,1.0229,-0.1221,0.3052,-0.2441,1,510,806,3397
2284688929,450396,-0.0244,-0.0083,1.0229,0.0000,0.3052,-0.3052,1,474,877,3397
2284693923,450397,-0.0259,-0.0093,1.0215,0.0000,0.3052,-0.3052,1,494,752,3397
2284698926,450398,-0.0264,-0.0083,1.0210,0.0000,0.3052,-0.2441,1,468,791,3397
2284703928,450399,-0.0264,-0.0063,1.0220,-0.0610,0.1831,-0.1831,1,474,799,3397
2284708924,450400,-0.0254,-0.0059,1.0229,-0.1831,0.1221,-0.3052,1,481,848,3397
2284713922,450401,-0.0244,-0.0073,1.0229,-0.0610,0.2441,-0.3052,1,471,861,3397
2284718926,450402,-0.0244,-0.0093,1.0215,0.0000,0.2441,-0.2441,1,483,849,3397
2284723926,450403,-0.0259,-0.0098,1.0205,0.0610,0.1221,-0.2441,1,477,804,3397
2284728931,450404,-0.0273,-0.0093,1.0210,0.0610,0.0610,-0.2441,1,493,841,3397
2284733929,450405,-0.0269,-0.0078,1.0215,0.0610,0.0000,-0.1831,1,466,870,3397
2284738926,450406,-0.0254,-0.0063,1.0220,0.1221,0.1831,-0.1831,1,466,828,3397
2284743928,450407,-0.0244,-0.0054,1.0225,0.1221,0.1831,-0.3052,1,466,874,3397
2284748924,450408,-0.0259,-0.0054,1.0215,0.0000,0.0610,-0.2441,1,484,859,3397
2284753929,450409,-0.0273,-0.0059,1.0205,0.0000,-0.0610,-0.1831,1,466,816,3397
2284758930,450410,-0.0264,-0.0073,1.0210,0.0610,0.0000,-0.2441,1,473,818,3397
2284763931,450411,-0.0249,-0.0078,1.0229,0.0000,0.1831,-0.1831,1,474,818,3397
2284768930,450412,-0.0244,-0.0068,1.0249,0.0000,0.0610,-0.1831,1,475,791,3397
2284773923,450413,-0.0239,-0.0059,1.0254,0.0000,0.1831,-0.3052,1,479,815,3397
2284778931,450414,-0.0239,-0.0068,1.0244,-0.0610,0.2441,-0.3052,1,467,806,3397
2284783924,450415,-0.0244,-0.0083,1.0234,0.1221,0.2441,-0.2441,1,478,858,3397
2284788931,450416,-0.0249,-0.0083,1.0234,-0.0610,0.3052,-0.3052,1,510,863,3397
2284793924,450417,-0.0249,-0.0073,1.0234,0.0000,0.3662,-0.3662,1,493,872,3397
2284798924,450418,-0.0254,-0.0068,1.0234,0.0610,0.2441,-0.2441,1,493,735,3397
2284803928,450419,-0.0264,-0.0073,1.0239,0.0610,0.2441,-0.1831,1,464,831,3397
2284808924,450420,-0.0269,-0.0083,1.0254,0.0610,0.4272,-0.2441,1,488,862,3397
2284813928,450421,-0.0259,-0.0073,1.0254,0.1831,0.4883,-0.2441,1,476,849,3397
2284818927,450422,-0.0254,-0.0068,1.0234,0.1831,0.4883,-0.3052,1,480,850,3397
2284823930,450423,-0.0254,-0.0083,1.0225,-0.0610,0.3662,-0.2441,1,476,847,3397
2284828924,450424,-0.0244,-0.0093,1.0225,0.0000,0.4883,-0.2441,1,482,849,3397
2284833930,450425,-0.0249,-0.0083,1.0225,0.1221,0.3662,-0.1831,1,487,801,3397
2284838924,450426,-0.0254,-0.0068,1.0234,0.1221,0.4272,-0.3052,1,493,850,3397
2284843924,450427,-0.0259,-0.0054,1.0244,0.1221,0.3662,-0.3052,1,465,872,3397
2284848930,450428,-0.0259,-0.0054,1.0234,0.1831,0.3662,-0.1221,1,483,871,3397
2284853922,450429,-0.0259,-0.0063,1.0229,0.1221,0.4272,-0.1831,1,465,864,3397
2284858926,450430,-0.0254,-0.0073,1.0234,0.0000,0.4272,-0.2441,1,484,866,3397
2284863924,450431,-0.0254,-0.0073,1.0225,0.0610,0.3662,-0.3052,1,465,825,3397
2284868930,450432,-0.0254,-0.0068,1.0215,0.0000,0.3662,-0.3052,1,482,861,3397
2284873928,450433,-0.0264,-0.0068,1.0215,0.0610,0.3662,-0.3052,1,475,817,3397
2284878924,450434,-0.0269,-0.0063,1.0210,0.1221,0.3052,-0.3052,1,479,861,3397
2284883926,450435,-0.0264,-0.0063,1.0215,0.1221,0.3662,-0.1831,1,483,863,3397
2284888926,450436,-0.0259,-0.0073,1.0234,0.1221,0.3662,-0.1831,1,482,857,3397
2284893953,450437,-0.0264,-0.0073,1.0239,0.1221,0.3662,-0.1831,1,479,860,3397
2284898925,450438,-0.0269,-0.0078,1.0234,0.0000,0.3052,-0.1831,1,484,860,3397
2284903930,450439,-0.0269,-0.0093,1.0229,-0.0610,0.2441,-0.3052,1,494,828,3397
2284908930,450440,-0.0264,-0.0083,1.0229,0.0610,0.3662,-0.3052,1,483,871,3397
2284913925,450441,-0.0259,-0.0063,1.0229,0.1221,0.3052,-0.2441,1,464,808,3397
2284918923,450442,-0.0244,-0.0063,1.0234,0.0000,0.4272,-0.1221,1,481,826,3397
2284923928,450443,-0.0244,-0.0078,1.0234,0.0610,0.3052,-0.1831,1,479,803,3397
2284928925,450444,-0.0249,-0.0083,1.0229,0.0610,0.3052,-0.3662,1,477,847,3397
2284933922,450445,-0.0249,-0.0083,1.0215,0.0000,0.3662,-0.4272,1,487,869,3397
2284938931,450446,-0.0249,-0.0083,1.0205,0.1221,0.3052,-0.2441,1,473,806,3397
2284943924,450447,-0.0259,-0.0068,1.0205,0.1221,0.4883,-0.3052,1,490,846,3397
2284948927,450448,-0.0259,-0.0068,1.0220,0.0610,0.5493,-0.3052,1,493,839,3397
2284953939,450449,-0.0249,-0.0073,1.0229,-0.0610,0.5493,-0.2441,1,466,870,3397
2284958926,450450,-0.0244,-0.0068,1.0225,0.2441,0.4272,-0.2441,1,466,884,3397
2284963922,450451,-0.0239,-0.0063,1.0229,0.1221,0.4883,-0.2441,1,484,881,3397
2284968922,450452,-0.0244,-0.0063,1.0244,-0.0610,0.5493,-0.2441,1,481,867,3397
2284973925,450453,-0.0249,-0.0063,1.0239,-0.0610,0.5493,-0.1831,1,465,880,3397
2284978926,450454,-0.0254,-0.0073,1.0229,0.0000,0.4883,-0.1831,1,465,923,3397
2284983923,450455,-0.0269,-0.0078,1.0225,0.0610,0.4883,-0.2441,1,465,823,3397
2284988928,450456,-0.0278,-0.0078,1.0210,0.0000,0.4272,-0.3052,1,472,864,3397
2284993928,450457,-0.0273,-0.0068,1.0215,-0.0610,0.4272,-0.2441,1,468,810,3397
2284998925,450458,-0.0269,-0.0063,1.0229,0.0610,0.5493,-0.1831,1,475,861,3397
2285003925,450459,-0.0254,-0.0073,1.0234,0.1221,0.4272,-0.1831,1,478,861,3397
2285008928,450460,-0.0249,-0.0073,1.0229,0.0000,0.4883,-0.3052,1,484,858,3397
2285013927,450461,-0.0249,-0.0063,1.0229,-0.0610,0.5493,-0.3052,1,465,756,3397
2285018930,450462,-0.0254,-0.0063,1.0229,0.0610,0.6104,-0.1831,1,494,875,3397
2285023931,450463,-0.0254,-0.0063,1.0229,-0.1221,0.4883,-0.1221,1,466,770,3397
2285028923,450464,-0.0259,-0.0059,1.0220,-0.0610,0.6104,-0.2441,1,486,852,3397
2285033931,450465,-0.0269,-0.0063,1.0205,0.0000,0.6104,-0.1831,1,479,842,3397
2285038928,450466,-0.0269,-0.0073,1.0210,-0.1831,0.6104,-0.3052,1,483,800,3397
2285043922,450467,-0.0264,-0.0078,1.0225,-0.0610,0.5493,-0.2441,1,475,842,3397
2285048926,450468,-0.0264,-0.0083,1.0229,0.0000,0.4883,-0.2441,1,488,849,3397
2285053927,450469,-0.0259,-0.0073,1.0229,-0.1221,0.6104,-0.1831,1,493,805,3397
2285058946,450470,-0.0259,-0.0054,1.0234,-0.0610,0.6104,-0.1831,1,493,847,3397
2285063928,450471,-0.0259,-0.0054,1.0239,-0.0610,0.4883,-0.2441,1,466,872,3397
2285068924,450472,-0.0259,-0.0073,1.0239,-0.1831,0.6104,-0.1831,1,483,876,3397
2285073931,450473,-0.0259,-0.0083,1.0220,0.0000,0.6714,-0.2441,1,476,869,3397
2285078925,450474,-0.0273,-0.0083,1.0205,0.0000,0.6714,-0.1831,1,484,858,3397
2285083925,450475,-0.0278,-0.0073,1.0210,-0.0610,0.6104,-0.2441,1,481,823,3397
2285088925,450476,-0.0259,-0.0059,1.0220,-0.0610,0.7935,-0.2441,1,465,864,3397
2285093931,450477,-0.0239,-0.0054,1.0210,0.0000,0.7324,-0.2441,1,467,861,3397
2285098929,450478,-0.0244,-0.0063,1.0210,0.0000,0.7935,-0.2441,1,465,813,3397
2285103924,450479,-0.0264,-0.0073,1.0215,-0.0610,0.6714,-0.3052,1,465,813,3397
2285108945,450480,-0.0278,-0.0083,1.0210,-0.1831,0.7324,-0.3052,1,468,851,3397
2285113930,450481,-0.0283,-0.0083,1.0210,0.0000,0.6104,-0.2441,1,483,859,3397
2285118924,450482,-0.0283,-0.0078,1.0205,0.0000,0.7324,-0.1831,1,510,813,3397
2285123930,450483,-0.0288,-0.0068,1.0200,-0.1831,0.6104,-0.2441,1,488,834,3397
2285128922,450484,-0.0278,-0.0059,1.0215,-0.1221,0.3662,-0.2441,1,494,877,3397
2285133929,450485,-0.0264,-0.0059,1.0225,-0.1831,0.4883,-0.2441,1,475,855,3397
2285138929,450486,-0.0264,-0.0073,1.0220,-0.1221,0.5493,-0.1831,1,475,845,3397
2285143928,450487,-0.0264,-0.0078,1.0220,0.0000,0.5493,-0.2441,1,482,848,3397
2285148924,450488,-0.0254,-0.0068,1.0225,-0.1831,0.6714,-0.3052,1,489,804,3397
2285153928,450489,-0.0254,-0.0059,1.0234,-0.3052,0.7935,-0.2441,1,479,843,3397
2285158922,450490,-0.0249,-0.0054,1.0244,-0.0610,0.6714,-0.1831,1,474,844,3397
2285163923,450491,-0.0249,-0.0063,1.0244,-0.1221,0.7324,-0.3052,1,493,847,3397
2285168945,450492,-0.0254,-0.0063,1.0229,-0.1831,0.6714,-0.1831,1,466,875,3397
2285173928,450493,-0.0259,-0.0063,1.0229,-0.1221,0.8545,-0.3052,1,466,880,3397
2285178926,450494,-0.0264,-0.0059,1.0239,-0.1221,0.7324,-0.2441,1,484,871,3397
2285183926,450495,-0.0269,-0.0049,1.0234,-0.1831,0.8545,-0.2441,1,479,863,3397
2285188922,450496,-0.0264,-0.0059,1.0234,-0.1831,0.7324,-0.2441,1,465,830,3397
2285193928,450497,-0.0254,-0.0068,1.0234,-0.1831,0.8545,-0.3052,1,467,920,3397
2285198930,450498,-0.0259,-0.0063,1.0239,-0.1831,0.7935,-0.2441,1,465,863,3397
2285203927,450499,-0.0278,-0.0073,1.0244,-0.1221,0.9155,-0.1831,1,467,880,3397
2285208922,450500,-0.0283,-0.0078,1.0229,-0.0610,0.9766,-0.3052,1,472,880,3397
2285213929,450501,-0.0283,-0.0073,1.0210,-0.1221,0.7935,-0.3052,1,481,856,3397
2285218927,450502,-0.0283,-0.0078,1.0210,-0.2441,0.7324,-0.1831,1,472,852,3397
2285223926,450503,-0.0293,-0.0093,1.0220,-0.1831,0.7324,-0.3052,1,484,864,3397
2285228925,450504,-0.0288,-0.0083,1.0239,-0.1221,0.6714,-0.2441,1,492,854,3397
2285233924,450505,-0.0269,-0.0063,1.0239,-0.1831,0.6104,-0.2441,1,468,879,3397
2285238928,450506,-0.0269,-0.0063,1.0229,-0.1221,0.7324,-0.3662,1,494,818,3397
2285243928,450507,-0.0278,-0.0078,1.0215,-0.1221,0.5493,-0.3052,1,478,859,3397
2285248928,450508,-0.0273,-0.0083,1.0210,-0.1831,0.6104,-0.1831,1,484,846,3397
2285253927,450509,-0.0269,-0.0073,1.0225,-0.2441,0.6104,-0.3052,1,492,849,3397
2285258931,450510,-0.0264,-0.0054,1.0244,-0.1831,0.6714,-0.3052,1,491,843,3397
2285263924,450511,-0.0273,-0.0059,1.0249,-0.1831,0.7324,-0.1221,1,473,844,3397
2285268928,450512,-0.0288,-0.0083,1.0244,-0.3052,0.6104,-0.1831,1,485,848,3397
2285273929,450513,-0.0293,-0.0093,1.0244,-0.2441,0.5493,-0.2441,1,492,848,3397
2285278928,450514,-0.0298,-0.0088,1.0239,-0.1831,0.6714,-0.2441,1,466,880,3397
2285283929,450515,-0.0293,-0.0083,1.0234,-0.2441,0.7324,-0.2441,1,466,879,3397
2285288923,450516,-0.0283,-0.0083,1.0229,-0.3052,0.6104,-0.3662,1,466,885,3397
2285293925,450517,-0.0273,-0.0093,1.0229,-0.2441,0.6104,-0.2441,1,484,867,3397
2285298922,450518,-0.0264,-0.0093,1.0229,-0.1221,0.6104,-0.2441,1,465,878,3397
2285303926,450519,-0.0269,-0.0098,1.0225,-0.1831,0.6104,-0.3052,1,470,862,3397
2285308923,450520,-0.0278,-0.0083,1.0229,-0.0610,0.7324,-0.3052,1,468,858,3397
2285313925,450521,-0.0283,-0.0059,1.0225,-0.1831,0.7324,-0.3662,1,474,867,3397
2285318929,450522,-0.0278,-0.0054,1.0220,-0.2441,0.6104,-0.2441,1,474,877,3397
2285323922,450523,-0.0269,-0.0068,1.0215,-0.3052,0.7324,-0.3052,1,472,860,3397
2285328929,450524,-0.0259,-0.0088,1.0215,-0.1831,0.7935,-0.1221,1,476,852,3397
2285333928,450525,-0.0254,-0.0088,1.0220,-0.1831,0.7324,-0.1221,1,483,853,3397
2285338927,450526,-0.0254,-0.0078,1.0229,-0.1831,0.8545,-0.2441,1,493,856,3397
2285343922,450527,-0.0259,-0.0078,1.0234,-0.1221,0.8545,-0.3052,1,473,880,3397
2285348923,450528,-0.0264,-0.0083,1.0239,-0.2441,0.9766,-0.2441,1,492,767,3397
2285353922,450529,-0.0269,-0.0083,1.0234,-0.1831,0.9155,-0.2441,1,473,814,3397
2285358923,450530,-0.0278,-0.0083,1.0225,-0.2441,1.0376,-0.3052,1,475,855,3397
2285363924,450531,-0.0278,-0.0093,1.0234,-0.3052,1.0986,-0.3052,1,483,848,3397
2285368927,450532,-0.0269,-0.0093,1.0249,-0.1831,0.9766,-0.0610,1,489,872,3397
2285373931,450533,-0.0273,-0.0088,1.0259,-0.1831,0.9155,-0.1831,1,474,847,3397
2285378929,450534,-0.0298,-0.0088,1.0234,-0.2441,0.9766,-0.3052,1,476,854,3397
2285383928,450535,-0.0298,-0.0083,1.0234,-0.1221,0.9155,-0.3052,1,493,845,3397
2285388930,450536,-0.0288,-0.0078,1.0244,-0.1831,0.7935,-0.3052,1,466,874,3397
2285393931,450537,-0.0298,-0.0083,1.0229,-0.3052,0.8545,-0.3052,1,483,878,3397
2285398928,450538,-0.0312,-0.0083,1.0215,-0.2441,0.7935,-0.2441,1,465,860,3397
2285403930,450539,-0.0322,-0.0088,1.0210,-0.1831,0.6714,-0.2441,1,484,894,3397
2285408925,450540,-0.0317,-0.0088,1.0200,-0.1831,0.5493,-0.2441,1,467,905,3397
2285413927,450541,-0.0308,-0.0103,1.0195,-0.1831,0.6104,-0.2441,1,477,870,3397
2285418930,450542,-0.0303,-0.0117,1.0200,-0.1221,0.4883,-0.1831,1,479,874,3397
2285423922,450543,-0.0293,-0.0117,1.0210,0.0610,0.3052,-0.3052,1,480,871,3397
2285428928,450544,-0.0269,-0.0103,1.0229,0.0610,0.3052,-0.3662,1,472,849,3397
2285433929,450545,-0.0254,-0.0083,1.0249,0.0000,0.4272,-0.1831,1,467,855,3397
2285438928,450546,-0.0259,-0.0078,1.0254,-0.0610,0.4272,-0.1831,1,484,816,3397
2285443930,450547,-0.0264,-0.0078,1.0254,-0.1221,0.6714,-0.1831,1,493,859,3397
2285448930,450548,-0.0278,-0.0078,1.0249,-0.2441,0.7324,-0.3052,1,468,871,3397
2285453923,450549,-0.0293,-0.0083,1.0239,-0.1221,0.5493,-0.1831,1,494,881,3397
2285458929,450550,-0.0298,-0.0093,1.0225,0.0000,0.6714,-0.1831,1,491,805,3397
2285463930,450551,-0.0293,-0.0098,1.0215,-0.1221,0.6104,-0.1831,1,485,800,3397
2285468924,450552,-0.0293,-0.0093,1.0225,-0.1221,0.5493,-0.3052,1,490,840,3397
2285473930,450553,-0.0298,-0.0083,1.0239,0.0610,0.4883,-0.3662,1,481,868,3397
2285478924,450554,-0.0293,-0.0083,1.0234,0.0610,0.5493,-0.3052,1,485,849,3397
2285483925,450555,-0.0288,-0.0098,1.0210,0.0000,0.6714,-0.2441,1,470,848,3397
2285488925,450556,-0.0298,-0.0098,1.0190,-0.0610,0.6104,-0.2441,1,493,799,3397
2285493929,450557,-0.0293,-0.0093,1.0195,-0.0610,0.4272,-0.2441,1,466,842,3397
2285498928,450558,-0.0283,-0.0103,1.0210,0.0610,0.6104,-0.1831,1,465,877,3397
2285503928,450559,-0.0278,-0.0103,1.0229,0.1221,0.6104,-0.2441,1,466,872,3397
2285508930,450560,-0.0283,-0.0083,1.0239,0.0000,0.6714,-0.1831,1,485,865,3397
2285513928,450561,-0.0303,-0.0083,1.0234,0.0000,0.6714,-0.2441,1,465,877,3397
2285518924,450562,-0.0312,-0.0093,1.0210,0.1221,0.5493,-0.2441,1,467,821,3397
2285523931,450563,-0.0312,-0.0103,1.0195,-0.0610,0.5493,-0.2441,1,472,889,3397
2285528928,450564,-0.0308,-0.0098,1.0205,0.0000,0.4883,-0.2441,1,469,895,3397
2285533923,450565,-0.0308,-0.0083,1.0220,0.0000,0.1831,-0.2441,1,474,807,3397
2285538929,450566,-0.0308,-0.0073,1.0220,-0.0610,0.2441,-0.3052,1,482,814,3397
2285543951,450567,-0.0308,-0.0093,1.0225,0.0610,0.1831,-0.2441,1,475,852,3397
2285548923,450568,-0.0303,-0.0112,1.0229,0.1831,0.1831,-0.3052,1,483,855,3397
2285553930,450569,-0.0293,-0.0093,1.0220,0.1221,0.1221,-0.3052,1,493,878,3397
2285558928,450570,-0.0303,-0.0078,1.0200,0.0610,0.1831,-0.4272,1,480,862,3397
2285563930,450571,-0.0312,-0.0073,1.0186,0.1221,0.0610,-0.3662,1,494,871,3397
2285568930,450572,-0.0303,-0.0073,1.0190,0.1831,-0.0610,-0.3662,1,464,822,3397
2285573926,450573,-0.0283,-0.0078,1.0215,0.1831,-0.0610,-0.3052,1,489,848,3397
2285578930,450574,-0.0259,-0.0083,1.0239,0.3052,0.0000,-0.4272,1,476,846,3397
2285583923,450575,-0.0259,-0.0083,1.0234,0.3052,0.1221,-0.3052,1,478,801,3397
2285588925,450576,-0.0298,-0.0083,1.0215,0.1831,0.0610,-0.3662,1,473,840,3397
2285593925,450577,-0.0317,-0.0093,1.0215,0.2441,-0.0610,-0.1831,1,489,849,3397
2285598931,450578,-0.0288,-0.0098,1.0234,0.2441,-0.0610,-0.3662,1,493,850,3397
2285603928,450579,-0.0254,-0.0088,1.0254,0.2441,0.0000,-0.3052,1,466,852,3397
2285608931,450580,-0.0259,-0.0098,1.0239,0.1831,0.1221,-0.2441,1,484,823,3397
2285613927,450581,-0.0298,-0.0103,1.0200,0.2441,0.0000,-0.3662,1,465,875,3397
2285618926,450582,-0.0327,-0.0088,1.0186,0.1221,-0.1831,-0.3662,1,484,830,3397
2285623929,450583,-0.0312,-0.0093,1.0200,0.1831,-0.3662,-0.3052,1,465,904,3397
2285628930,450584,-0.0283,-0.0093,1.0225,0.3662,-0.2441,-0.3052,1,466,941,3397
2285633931,450585,-0.0269,-0.0083,1.0239,0.3662,-0.1831,-0.3052,1,467,874,3397
2285638922,450586,-0.0264,-0.0068,1.0239,0.2441,-0.2441,-0.3052,1,474,877,3397
2285643927,450587,-0.0264,-0.0059,1.0239,0.0610,-0.2441,-0.3052,1,465,860,3397
2285648934,450588,-0.0269,-0.0073,1.0249,0.1221,-0.2441,-0.2441,1,482,852,3397
2285653925,450589,-0.0273,-0.0088,1.0249,0.1831,-0.1221,-0.3052,1,483,861,3397
2285658926,450590,-0.0283,-0.0093,1.0229,0.1221,0.0000,-0.2441,1,510,854,3397
2285663924,450591,-0.0293,-0.0088,1.0215,0.0610,-0.0610,-0.2441,1,465,755,3397
2285668924,450592,-0.0293,-0.0078,1.0215,0.1221,-0.1831,-0.2441,1,494,870,3397
2285673928,450593,-0.0273,-0.0059,1.0215,0.0610,-0.1831,-0.1831,1,466,858,3397
2285678924,450594,-0.0273,-0.0049,1.0225,0.0000,-0.0610,-0.3052,1,492,846,3397
2285683927,450595,-0.0288,-0.0073,1.0229,-0.0610,-0.0610,-0.1831,1,483,822,3397
2285688923,450596,-0.0303,-0.0093,1.0220,0.0000,-0.0610,-0.2441,1,488,852,3397
2285693929,450597,-0.0303,-0.0083,1.0220,0.0000,-0.2441,-0.2441,1,473,798,3397
2285698929,450598,-0.0283,-0.0083,1.0234,0.0000,-0.4272,-0.2441,1,474,803,3397
2285703926,450599,-0.0259,-0.0083,1.0254,0.0000,-0.0610,-0.1831,1,493,809,3397
2285708924,450600,-0.0269,-0.0078,1.0259,-0.0610,0.1221,-0.1221,1,466,829,3397
2285713925,450601,-0.0288,-0.0073,1.0254,-0.1221,0.1221,-0.1831,1,483,866,3397
2285718923,450602,-0.0298,-0.0078,1.0249,-0.0610,-0.0610,-0.2441,1,465,875,3397
2285723926,450603,-0.0283,-0.0088,1.0244,-0.1831,0.0610,-0.1831,1,484,867,3397
2285728930,450604,-0.0244,-0.0088,1.0249,-0.1221,0.1221,-0.1221,1,466,878,3397
2285733925,450605,-0.0239,-0.0078,1.0264,-0.1221,0.2441,-0.1831,1,472,859,3397
2285738930,450606,-0.0264,-0.0068,1.0259,-0.1831,0.4272,-0.1221,1,480,867,3397
2285743931,450607,-0.0288,-0.0073,1.0239,-0.1221,0.3052,-0.1831,1,479,865,3397
2285748922,450608,-0.0298,-0.0098,1.0215,-0.1221,0.1221,-0.2441,1,481,876,3397
2285753926,450609,-0.0308,-0.0107,1.0195,0.0610,0.2441,-0.3052,1,470,851,3397
2285758935,450610,-0.0303,-0.0103,1.0200,0.0000,0.1221,-0.1831,1,484,855,3397
2285763923,450611,-0.0283,-0.0088,1.0225,0.0000,0.1221,-0.1831,1,483,805,3397
2285768926,450612,-0.0273,-0.0088,1.0229,0.0000,0.1831,-0.2441,1,493,827,3397
2285773930,450613,-0.0273,-0.0073,1.0220,0.2441,0.0610,-0.1831,1,475,732,3397
2285778926,450614,-0.0259,-0.0073,1.0215,0.1221,0.0610,-0.3052,1,494,820,3397
2285783925,450615,-0.0254,-0.0088,1.0220,0.0610,0.1831,-0.1221,1,489,849,3397
2285788923,450616,-0.0278,-0.0093,1.0215,0.1221,0.0000,0.0000,1,475,842,3397
2285793925,450617,-0.0293,-0.0073,1.0215,0.0000,0.0610,-0.1221,1,483,751,3397
2285798923,450618,-0.0293,-0.0054,1.0229,0.0610,0.1221,-0.0610,1,480,795,3397
2285803928,450619,-0.0278,-0.0059,1.0254,0.0610,0.0610,-0.1221,1,492,840,3397
2285808926,450620,-0.0259,-0.0078,1.0244,0.0000,0.0610,-0.2441,1,470,839,3397
2285813931,450621,-0.0249,-0.0083,1.0229,0.1221,0.1221,-0.2441,1,493,802,3397
2285818923,450622,-0.0269,-0.0073,1.0205,0.0000,0.2441,-0.1221,1,466,877,3397
2285823930,450623,-0.0278,-0.0068,1.0200,-0.1221,0.0000,-0.1831,1,484,828,3397
2285828926,450624,-0.0269,-0.0073,1.0220,-0.1221,0.1221,-0.1221,1,466,773,3397
2285833923,450625,-0.0259,-0.0083,1.0239,0.0000,0.1221,-0.1221,1,484,810,3397
2285838927,450626,-0.0254,-0.0078,1.0259,0.0610,0.1221,-0.0610,1,477,816,3397
2285843924,450627,-0.0249,-0.0073,1.0269,0.0000,0.4272,-0.1221,1,477,856,3397
2285848925,450628,-0.0249,-0.0078,1.0249,-0.1221,0.4272,-0.1831,1,480,828,3397
2285853923,450629,-0.0273,-0.0078,1.0220,-0.1831,0.4272,-0.2441,1,465,835,3397
2285858928,450630,-0.0308,-0.0078,1.0210,-0.1221,0.3662,-0.1831,1,471,864,3397
2285863923,450631,-0.0312,-0.0078,1.0210,0.0000,0.2441,-0.1831,1,468,854,3397
2285868928,450632,-0.0298,-0.0068,1.0210,0.0000,0.1831,-0.2441,1,483,838,3397
2285873925,450633,-0.0298,-0.0068,1.0205,-0.1221,0.4272,-0.3052,1,492,813,3397
2285878922,450634,-0.0312,-0.0093,1.0186,-0.1831,0.1831,-0.2441,1,467,870,3397
2285883924,450635,-0.0278,-0.0117,1.0200,-0.0610,-0.1831,0.0000,1,493,904,3397
2285888927,450636,-0.0244,-0.0103,1.0229,0.1221,0.4883,-0.1831,1,485,815,3397
2285893922,450637,-0.0254,-0.0073,1.0244,-0.0610,0.1831,-0.2441,1,488,858,3397
2285898923,450638,-0.0259,-0.0073,1.0249,0.0000,0.1831,-0.1221,1,492,852,3397
2285903924,450639,-0.0269,-0.0083,1.0234,0.0610,0.3662,-0.1221,1,477,802,3397
2285908929,450640,-0.0273,-0.0093,1.0225,-0.1221,0.2441,-0.1831,1,484,847,3397
2285913926,450641,-0.0278,-0.0088,1.0249,0.0000,0.1221,-0.1831,1,488,848,3397
2285918925,450642,-0.0259,-0.0068,1.0273,-0.0610,0.1831,-0.1831,1,493,803,3397
2285923923,450643,-0.0254,-0.0059,1.0269,-0.1221,0.4883,-0.1831,1,466,879,3397
2285928928,450644,-0.0273,-0.0059,1.0239,-0.0610,0.4883,-0.3052,1,483,868,3397
2285933924,450645,-0.0293,-0.0073,1.0215,-0.1831,0.1221,-0.2441,1,466,859,3397
2285938929,450646,-0.0293,-0.0078,1.0215,-0.1221,0.2441,-0.1221,1,484,866,3397
2285943927,450647,-0.0273,-0.0083,1.0244,-0.1221,0.1831,-0.1831,1,465,900,3397
2285948927,450648,-0.0259,-0.0078,1.0264,-0.3052,0.3662,-0.2441,1,467,871,3397
2285953929,450649,-0.0264,-0.0073,1.0249,-0.2441,0.4272,-0.1831,1,472,873,3397
2285958928,450650,-0.0269,-0.0088,1.0215,-0.1831,0.4272,-0.1221,1,475,883,3397
2285963927,450651,-0.0293,-0.0093,1.0186,-0.1831,0.3662,-0.3052,1,479,856,3397
2285968928,450652,-0.0322,-0.0088,1.0176,-0.0610,0.2441,-0.3052,1,482,855,3397
2285973931,450653,-0.0317,-0.0088,1.0195,-0.0610,0.0000,-0.3052,1,484,854,3397
2285978927,450654,-0.0278,-0.0093,1.0225,-0.0610,-0.0610,-0.2441,1,483,809,3397
2285983928,450655,-0.0244,-0.0088,1.0239,-0.0610,0.0610,-0.1831,1,466,875,3397
2285988931,450656,-0.0259,-0.0078,1.0239,0.0610,0.2441,-0.2441,1,494,875,3397
2285993923,450657,-0.0283,-0.0078,1.0220,-0.1221,0.0610,-0.2441,1,469,776,3397
2285998929,450658,-0.0273,-0.0083,1.0200,-0.0610,0.0000,-0.1831,1,478,846,3397
2286003924,450659,-0.0254,-0.0078,1.0205,0.0000,0.1221,-0.2441,1,479,803,3397
2286008929,450660,-0.0244,-0.0078,1.0234,-0.1831,0.1221,-0.3052,1,492,800,3397
2286013929,450661,-0.0244,-0.0083,1.0254,-0.1831,0.1831,-0.3662,1,474,847,3397
2286018925,450662,-0.0239,-0.0078,1.0259,-0.1831,0.2441,-0.1221,1,481,855,3397
2286023924,450663,-0.0244,-0.0063,1.0249,-0.1221,0.3052,-0.1831,1,493,849,3397
2286028923,450664,-0.0273,-0.0068,1.0220,-0.1831,0.4272,-0.4272,1,493,847,3397
2286033922,450665,-0.0303,-0.0093,1.0200,-0.1221,0.3052,-0.3052,1,483,881,3397
2286038927,450666,-0.0303,-0.0103,1.0210,-0.1221,0.1221,-0.2441,1,466,850,3397
2286043925,450667,-0.0269,-0.0098,1.0229,-0.0610,0.0610,-0.1221,1,484,812,3397
2286048929,450668,-0.0239,-0.0078,1.0249,-0.1221,0.1831,-0.1831,1,465,896,3397
2286053926,450669,-0.0239,-0.0083,1.0249,-0.1221,0.3052,-0.2441,1,465,871,3397
2286058929,450670,-0.0259,-0.0093,1.0239,-0.1831,0.3662,-0.1831,1,471,873,3397
2286063931,450671,-0.0273,-0.0103,1.0234,-0.2441,0.4272,-0.1831,1,472,880,3397
2286068929,450672,-0.0288,-0.0098,1.0225,-0.2441,0.4272,-0.1831,1,477,884,3397
2286073930,450673,-0.0303,-0.0098,1.0215,-0.2441,0.4272,-0.2441,1,466,862,3397
2286078927,450674,-0.0308,-0.0098,1.0215,-0.1831,0.4272,-0.2441,1,483,858,3397
2286083930,450675,-0.0298,-0.0088,1.0234,-0.1831,0.3662,-0.2441,1,492,858,3397
2286088922,450676,-0.0283,-0.0073,1.0239,-0.2441,0.4883,-0.2441,1,466,881,3397
2286093925,450677,-0.0288,-0.0078,1.0215,-0.2441,0.5493,-0.2441,1,493,884,3397
2286098931,450678,-0.0317,-0.0093,1.0190,-0.3662,0.3662,-0.3052,1,464,827,3397
2286103930,450679,-0.0332,-0.0107,1.0186,-0.3052,0.1831,-0.3662,1,488,848,3397
2286108926,450680,-0.0312,-0.0103,1.0200,-0.0610,0.1221,-0.3052,1,477,850,3397
2286113929,450681,-0.0293,-0.0093,1.0225,-0.0610,0.0000,-0.3662,1,490,864,3397
2286118926,450682,-0.0259,-0.0088,1.0244,-0.2441,0.0610,-0.3052,1,478,800,3397
2286123926,450683,-0.0244,-0.0083,1.0249,-0.2441,0.1831,-0.3052,1,486,845,3397
2286128941,450684,-0.0259,-0.0088,1.0234,-0.3052,0.1221,-0.1831,1,492,853,3397
2286133926,450685,-0.0273,-0.0088,1.0225,-0.2441,0.1221,-0.3052,1,466,843,3397
2286138929,450686,-0.0283,-0.0083,1.0215,-0.1221,0.1221,-0.3662,1,484,869,3397
2286143927,450687,-0.0283,-0.0078,1.0229,-0.1831,0.0000,-0.3052,1,475,864,3397
2286148925,450688,-0.0273,-0.0073,1.0249,-0.2441,0.0000,-0.2441,1,465,874,3397
2286153930,450689,-0.0254,-0.0068,1.0249,-0.1831,0.1221,-0.2441,1,469,827,3397
2286158927,450690,-0.0244,-0.0083,1.0249,-0.3052,0.1221,-0.2441,1,468,868,3397
2286163929,450691,-0.0254,-0.0107,1.0239,-0.3052,0.3662,-0.3052,1,476,867,3397
2286168923,450692,-0.0269,-0.0122,1.0220,-0.3052,0.3662,-0.4272,1,479,872,3397
2286173923,450693,-0.0293,-0.0112,1.0205,-0.0610,0.3052,-0.3662,1,467,860,3397
2286178944,450694,-0.0308,-0.0107,1.0210,-0.2441,0.3662,-0.3052,1,484,859,3397
2286183925,450695,-0.0312,-0.0107,1.0210,-0.1221,0.2441,-0.2441,1,484,854,3397
2286188922,450696,-0.0293,-0.0107,1.0210,-0.0610,0.2441,-0.3052,1,494,902,3397
2286193924,450697,-0.0278,-0.0098,1.0229,-0.1221,0.1831,-0.3662,1,493,872,3397
2286198923,450698,-0.0278,-0.0093,1.0244,-0.0610,0.1221,-0.4272,1,494,809,3397
2286203928,450699,-0.0288,-0.0093,1.0244,0.0000,0.0610,-0.3052,1,488,856,3397
2286208929,450700,-0.0278,-0.0083,1.0234,-0.1221,0.1221,-0.4272,1,475,798,3397
2286213927,450701,-0.0273,-0.0073,1.0225,-0.1831,0.2441,-0.3662,1,487,848,3397
2286218926,450702,-0.0283,-0.0088,1.0225,-0.1831,0.1831,-0.4272,1,478,855,3397
2286223924,450703,-0.0278,-0.0112,1.0234,-0.1221,0.2441,-0.3662,1,488,852,3397
2286228925,450704,-0.0264,-0.0122,1.0264,-0.0610,0.1831,-0.3052,1,493,858,3397
2286233928,450705,-0.0239,-0.0117,1.0283,-0.1831,0.3052,-0.3052,1,465,847,3397
2286238927,450706,-0.0244,-0.0103,1.0278,-0.1831,0.4883,-0.3662,1,483,877,3397
2286243922,450707,-0.0259,-0.0088,1.0259,-0.1831,0.6714,-0.3052,1,466,871,3397
2286248928,450708,-0.0269,-0.0083,1.0239,-0.1831,0.4883,-0.4272,1,484,861,3397
2286253929,450709,-0.0273,-0.0098,1.0220,-0.1221,0.5493,-0.4272,1,477,908,3397
2286258927,450710,-0.0269,-0.0112,1.0215,-0.0610,0.6104,-0.2441,1,481,865,3397
2286263927,450711,-0.0278,-0.0107,1.0215,-0.0610,0.6104,-0.3662,1,469,866,3397
2286268926,450712,-0.0288,-0.0093,1.0215,0.0000,0.5493,-0.3052,1,474,876,3397
2286273925,450713,-0.0293,-0.0083,1.0205,-0.0610,0.5493,-0.3052,1,482,810,3397
2286278941,450714,-0.0293,-0.0088,1.0195,-0.0610,0.3052,-0.3662,1,482,856,3397
2286283927,450715,-0.0288,-0.0093,1.0210,0.0610,0.1221,-0.3052,1,483,854,3397
2286288924,450716,-0.0278,-0.0103,1.0225,0.0000,0.2441,-0.2441,1,493,866,3397
2286293927,450717,-0.0269,-0.0107,1.0234,0.0000,0.0610,-0.2441,1,483,834,3397
2286298924,450718,-0.0264,-0.0093,1.0234,0.0610,0.1221,-0.2441,1,464,785,3397
2286303922,450719,-0.0259,-0.0078,1.0239,0.0610,0.2441,-0.2441,1,471,854,3397
2286308924,450720,-0.0259,-0.0083,1.0234,0.0000,0.1221,-0.3052,1,485,852,3397
2286313927,450721,-0.0264,-0.0093,1.0210,0.0000,0.2441,-0.3052,1,488,825,3397
2286318927,450722,-0.0269,-0.0117,1.0195,0.0000,0.3662,-0.2441,1,473,795,3397
2286323922,450723,-0.0269,-0.0132,1.0210,0.0000,0.3052,-0.2441,1,480,808,3397
2286328923,450724,-0.0273,-0.0122,1.0225,0.1221,0.3052,-0.1831,1,489,799,3397
2286333947,450725,-0.0264,-0.0107,1.0229,0.1831,0.3052,-0.2441,1,493,846,3397
2286338922,450726,-0.0249,-0.0103,1.0244,-0.0610,0.4272,-0.2441,1,466,851,3397
2286343925,450727,-0.0254,-0.0093,1.0244,-0.0610,0.3662,-0.3052,1,466,882,3397
2286348922,450728,-0.0264,-0.0078,1.0229,0.1221,0.3662,-0.3662,1,484,861,3397
2286353930,450729,-0.0273,-0.0083,1.0229,-0.0610,0.4272,-0.2441,1,465,876,3397
2286358926,450730,-0.0269,-0.0088,1.0239,-0.0610,0.4883,-0.3662,1,468,923,3397
2286363927,450731,-0.0264,-0.0098,1.0244,0.0610,0.5493,-0.2441,1,479,864,3397
2286368925,450732,-0.0254,-0.0112,1.0239,0.0610,0.5493,-0.1831,1,465,877,3397
2286373924,450733,-0.0254,-0.0112,1.0244,0.0000,0.6104,-0.2441,1,472,864,3397
2286378931,450734,-0.0264,-0.0103,1.0249,-0.0610,0.7324,-0.3052,1,479,815,3397
2286383922,450735,-0.0259,-0.0093,1.0234,-0.0610,0.9155,-0.3052,1,483,856,3397
2286388931,450736,-0.0249,-0.0093,1.0215,-0.0610,0.8545,-0.4272,1,483,853,3397
2286393925,450737,-0.0254,-0.0103,1.0210,0.1221,0.9155,-0.3662,1,466,873,3397
2286398923,450738,-0.0264,-0.0103,1.0229,0.0000,0.9155,-0.3052,1,495,871,3397
2286403927,450739,-0.0264,-0.0093,1.0254,0.0000,1.0986,-0.2441,1,493,823,3397
2286408927,450740,-0.0254,-0.0093,1.0259,-0.1221,1.0986,-0.3662,1,491,802,3397
2286413923,450741,-0.0259,-0.0093,1.0249,-0.1831,1.2207,-0.2441,1,481,846,3397
2286418930,450742,-0.0259,-0.0078,1.0254,-0.2441,1.3428,-0.2441,1,474,874,3397
2286423927,450743,-0.0249,-0.0059,1.0273,-0.2441,1.3428,-0.3052,1,476,851,3397
2286428924,450744,-0.0239,-0.0063,1.0303,-0.4272,1.6479,-0.1221,1,486,847,3397
2286433929,450745,-0.0225,-0.0078,1.0308,-0.4883,1.9531,-0.1831,1,488,847,3397
2286438922,450746,-0.0229,-0.0088,1.0269,-0.4883,2.0752,-0.2441,1,493,848,3397
2286443923,450747,-0.0273,-0.0083,1.0215,-0.5493,2.1362,-0.2441,1,484,875,3397
2286448922,450748,-0.0322,-0.0088,1.0190,-0.4883,2.0142,-0.1221,1,465,876,3397
2286453929,450749,-0.0342,-0.0107,1.0190,-0.4883,1.8311,-0.1831,1,484,815,3397
2286458927,450750,-0.0327,-0.0117,1.0220,-0.4883,1.7700,-0.1221,1,465,904,3397
2286463926,450751,-0.0283,-0.0088,1.0259,-0.3662,1.9531,-0.1221,1,474,867,3397
2286468930,450752,-0.0239,-0.0068,1.0288,-0.4883,2.1362,-0.2441,1,480,875,3397
2286473923,450753,-0.0229,-0.0083,1.0288,-0.6104,2.0752,-0.1831,1,480,885,3397
2286478928,450754,-0.0269,-0.0107,1.0264,-0.6714,2.0752,-0.1831,1,474,861,3397
2286483927,450755,-0.0308,-0.0117,1.0239,-0.6714,2.1973,-0.1221,1,468,859,3397
2286488929,450756,-0.0312,-0.0098,1.0229,-0.7324,2.2583,-0.1221,1,483,858,3397
2286493925,450757,-0.0298,-0.0088,1.0234,-0.9155,2.2583,-0.1221,1,492,886,3397
2286498925,450758,-0.0298,-0.0098,1.0234,-0.7935,2.2583,-0.0610,1,466,879,3397
2286503931,450759,-0.0312,-0.0112,1.0225,-0.7324,2.3193,-0.1221,1,486,876,3397
2286508927,450760,-0.0317,-0.0132,1.0220,-0.6714,2.1973,-0.0610,1,464,805,3397
2286513922,450761,-0.0322,-0.0127,1.0215,-0.6104,2.1362,0.0000,1,481,850,3397
2286518929,450762,-0.0317,-0.0112,1.0225,-0.6104,2.3193,0.0000,1,491,807,3397
2286523923,450763,-0.0298,-0.0112,1.0239,-0.7324,2.4414,-0.0610,1,473,807,3397
2286528927,450764,-0.0298,-0.0107,1.0220,-0.6104,2.3804,0.0000,1,490,884,3397
2286533930,450765,-0.0337,-0.0103,1.0156,-0.5493,2.3804,-0.1221,1,486,800,3397
2286538926,450766,-0.0425,-0.0122,1.0059,-0.5493,2.0752,-0.1221,1,487,848,3397
2286543927,450767,-0.0498,-0.0171,1.0005,-0.3662,1.2817,-0.1831,1,466,874,3397
2286548923,450768,-0.0474,-0.0205,1.0044,0.0000,0.4272,-0.1831,1,483,879,3397
2286553931,450769,-0.0376,-0.0186,1.0132,0.3662,0.2441,-0.3052,1,469,822,3397
2286558929,450770,-0.0293,-0.0142,1.0215,0.2441,0.3662,-0.3662,1,484,866,3397
2286563922,450771,-0.0283,-0.0122,1.0244,0.2441,0.3052,-0.3662,1,476,910,3397
2286568925,450772,-0.0312,-0.0112,1.0220,0.3662,0.1221,-0.3662,1,465,874,3397
2286573927,450773,-0.0322,-0.0103,1.0205,0.3052,0.0000,-0.3052,1,466,894,3397
2286578923,450774,-0.0303,-0.0093,1.0229,0.3052,0.1831,-0.1831,1,466,808,3397
2286583927,450775,-0.0288,-0.0093,1.0259,0.2441,0.3052,-0.3052,1,476,856,3397
2286588932,450776,-0.0283,-0.0098,1.0264,0.1831,0.3662,-0.3052,1,474,852,3397
2286593924,450777,-0.0293,-0.0093,1.0254,0.1221,0.4272,-0.1831,1,483,857,3397
2286598925,450778,-0.0303,-0.0098,1.0239,0.1831,0.5493,-0.2441,1,493,872,3397
2286603930,450779,-0.0308,-0.0112,1.0234,0.1221,0.4883,-0.3052,1,466,877,3397
2286608928,450780,-0.0332,-0.0132,1.0234,0.1831,0.6714,-0.3052,1,492,870,3397
2286613925,450781,-0.0342,-0.0132,1.0229,0.2441,0.5493,-0.1831,1,466,831,3397
2286618924,450782,-0.0317,-0.0083,1.0229,0.2441,0.5493,-0.3662,1,492,866,3397
2286623930,450783,-0.0288,-0.0068,1.0234,-0.1221,0.6714,-0.3052,1,480,858,3397
2286628926,450784,-0.0303,-0.0127,1.0225,0.0000,0.7935,-0.2441,1,481,846,3397
2286633930,450785,-0.0347,-0.0137,1.0205,0.0610,0.6104,-0.1221,1,487,801,3397
2286638925,450786,-0.0352,-0.0093,1.0200,-0.0610,0.4883,-0.3052,1,488,841,3397
2286643930,450787,-0.0332,-0.0088,1.0205,-0.1221,0.4883,-0.1831,1,492,838,3397
2286648922,450788,-0.0332,-0.0117,1.0195,-0.1221,0.4883,-0.2441,1,466,846,3397
2286653927,450789,-0.0342,-0.0127,1.0181,0.0000,0.3052,-0.2441,1,483,880,3397
2286658925,450790,-0.0347,-0.0122,1.0176,0.0000,0.3052,-0.3052,1,465,769,3397
2286663925,450791,-0.0356,-0.0117,1.0176,-0.0610,0.1831,-0.2441,1,484,854,3397
2286668925,450792,-0.0361,-0.0117,1.0176,-0.0610,0.0000,-0.2441,1,482,910,3397
2286673930,450793,-0.0347,-0.0127,1.0190,0.0000,0.0000,-0.2441,1,465,824,3397
2286678929,450794,-0.0322,-0.0137,1.0210,0.0610,-0.0610,-0.2441,1,466,768,3397
2286683929,450795,-0.0303,-0.0142,1.0234,0.0610,-0.1221,-0.1831,1,467,874,3397
2286688923,450796,-0.0303,-0.0137,1.0244,0.2441,-0.1221,-0.3052,1,474,857,3397
2286693929,450797,-0.0303,-0.0117,1.0244,0.3052,0.0610,-0.3052,1,478,854,3397
2286698923,450798,-0.0298,-0.0117,1.0239,0.3052,0.0610,-0.2441,1,484,849,3397
2286703930,450799,-0.0298,-0.0122,1.0234,0.3052,-0.1221,-0.2441,1,466,875,3397
2286708927,450800,-0.0298,-0.0117,1.0234,0.4272,0.0000,-0.2441,1,466,877,3397
2286713923,450801,-0.0288,-0.0107,1.0239,0.3662,0.1831,-0.3662,1,494,762,3397
2286718923,450802,-0.0293,-0.0112,1.0239,0.4272,0.2441,-0.3052,1,475,830,3397
2286723922,450803,-0.0308,-0.0122,1.0244,0.4272,0.1831,-0.3052,1,487,854,3397
2286728927,450804,-0.0312,-0.0103,1.0244,0.4883,0.1831,-0.2441,1,476,850,3397
2286733925,450805,-0.0317,-0.0083,1.0225,0.4272,0.1831,-0.2441,1,480,878,3397
2286738926,450806,-0.0337,-0.0117,1.0195,0.4272,0.1221,-0.3052,1,483,854,3397
2286743927,450807,-0.0347,-0.0151,1.0195,0.4883,0.0000,-0.3662,1,492,846,3397
2286748923,450808,-0.0327,-0.0122,1.0210,0.6714,0.0000,-0.4272,1,494,807,3397
2286753928,450809,-0.0312,-0.0083,1.0234,0.6104,0.0000,-0.2441,1,466,833,3397
2286758927,450810,-0.0317,-0.0083,1.0244,0.4883,-0.0610,-0.2441,1,466,847,3397
2286763923,450811,-0.0332,-0.0103,1.0220,0.6104,-0.1221,-0.2441,1,484,869,3397
2286768930,450812,-0.0332,-0.0112,1.0205,0.4883,-0.0610,-0.2441,1,466,902,3397
2286773923,450813,-0.0317,-0.0112,1.0220,0.5493,-0.1221,-0.3052,1,477,922,3397
2286778923,450814,-0.0308,-0.0117,1.0249,0.5493,-0.1221,-0.3662,1,467,875,3397
2286783929,450815,-0.0303,-0.0117,1.0269,0.6104,-0.1221,-0.3052,1,470,878,3397
2286788925,450816,-0.0298,-0.0112,1.0269,0.5493,0.0610,-0.3662,1,472,848,3397
2286793930,450817,-0.0298,-0.0112,1.0254,0.3052,0.0610,-0.2441,1,482,863,3397
2286798926,450818,-0.0308,-0.0112,1.0234,0.3662,0.1221,-0.2441,1,483,858,3397
2286803928,450819,-0.0312,-0.0112,1.0229,0.4883,0.1221,-0.3662,1,483,862,3397
2286808924,450820,-0.0312,-0.0103,1.0225,0.4883,0.1221,-0.3052,1,493,905,3397
2286813927,450821,-0.0312,-0.0103,1.0220,0.4883,0.1221,-0.1831,1,481,892,3397
2286818927,450822,-0.0303,-0.0107,1.0215,0.5493,0.1221,-0.2441,1,464,796,3397
2286823930,450823,-0.0308,-0.0117,1.0205,0.4883,0.0610,-0.2441,1,478,846,3397
2286828929,450824,-0.0317,-0.0107,1.0210,0.6104,0.0000,-0.1831,1,484,848,3397
2286833927,450825,-0.0308,-0.0073,1.0234,0.5493,0.0000,-0.1831,1,473,802,3397
2286838926,450826,-0.0293,-0.0068,1.0244,0.3662,0.1831,-0.3052,1,478,808,3397
2286843928,450827,-0.0308,-0.0088,1.0225,0.3662,0.1831,-0.2441,1,490,849,3397
2286848930,450828,-0.0327,-0.0103,1.0220,0.4272,0.0610,-0.2441,1,491,848,3397
2286853929,450829,-0.0327,-0.0103,1.0225,0.3052,-0.0610,-0.2441,1,466,851,3397
2286858928,450830,-0.0312,-0.0107,1.0220,0.3662,-0.0610,-0.2441,1,483,874,3397
2286863928,450831,-0.0308,-0.0107,1.0215,0.3662,-0.0610,-0.3662,1,465,905,3397
2286868929,450832,-0.0303,-0.0112,1.0225,0.4883,-0.1831,-0.3662,1,484,866,3397
2286873929,450833,-0.0308,-0.0103,1.0234,0.5493,-0.1831,-0.4272,1,467,908,3397
2286878924,450834,-0.0312,-0.0083,1.0239,0.6104,-0.1221,-0.3662,1,472,871,3397
2286883928,450835,-0.0308,-0.0068,1.0234,0.4883,-0.1831,-0.4272,1,480,891,3397
2286888926,450836,-0.0293,-0.0063,1.0220,0.4272,-0.0610,-0.4272,1,480,877,3397
2286893926,450837,-0.0293,-0.0088,1.0210,0.3662,0.0000,-0.4272,1,469,858,3397
2286898923,450838,-0.0308,-0.0112,1.0215,0.4272,-0.1221,-0.4272,1,468,810,3397
2286903948,450839,-0.0303,-0.0107,1.0229,0.4883,-0.0610,-0.3052,1,483,859,3397
2286908927,450840,-0.0298,-0.0088,1.0249,0.3052,0.1221,-0.3662,1,466,870,3397
2286913927,450841,-0.0308,-0.0073,1.0254,0.4883,0.0610,-0.4272,1,493,871,3397
2286918927,450842,-0.0322,-0.0078,1.0239,0.4883,0.0610,-0.3052,1,488,870,3397
2286923926,450843,-0.0332,-0.0098,1.0215,0.4272,0.0000,-0.1221,1,464,826,3397
2286928926,450844,-0.0332,-0.0107,1.0205,0.3662,-0.1831,-0.3052,1,485,799,3397
2286933931,450845,-0.0317,-0.0093,1.0215,0.4272,-0.1221,-0.4272,1,492,853,3397
2286938923,450846,-0.0303,-0.0073,1.0234,0.4272,-0.0610,-0.4272,1,486,847,3397
2286943922,450847,-0.0293,-0.0068,1.0244,0.3052,0.0000,-0.4272,1,479,849,3397
2286948927,450848,-0.0283,-0.0088,1.0249,0.3052,0.0610,-0.4272,1,489,800,3397
2286953926,450849,-0.0283,-0.0103,1.0249,0.2441,0.0000,-0.3052,1,484,846,3397
2286958930,450850,-0.0288,-0.0083,1.0249,0.2441,0.0610,-0.4272,1,493,803,3397
2286963929,450851,-0.0293,-0.0068,1.0249,0.2441,0.0610,-0.4272,1,483,882,3397
2286968929,450852,-0.0303,-0.0078,1.0234,0.2441,0.1221,-0.3662,1,465,877,3397
2286973922,450853,-0.0303,-0.0098,1.0225,0.3662,0.0610,-0.3052,1,485,866,3397
2286978924,450854,-0.0303,-0.0098,1.0210,0.4272,0.1221,-0.4883,1,466,893,3397
2286983922,450855,-0.0308,-0.0098,1.0205,0.3662,0.1221,-0.3662,1,465,856,3397
2286988922,450856,-0.0308,-0.0093,1.0195,0.4883,0.1221,-0.3662,1,470,869,3397
2286993924,450857,-0.0322,-0.0078,1.0190,0.3052,0.1221,-0.3662,1,473,870,3397
2286998926,450858,-0.0322,-0.0068,1.0210,0.3662,-0.0610,-0.3662,1,477,856,3397
2287003930,450859,-0.0312,-0.0078,1.0244,0.3662,-0.1221,-0.4272,1,481,860,3397
2287008935,450860,-0.0303,-0.0088,1.0269,0.3052,-0.1221,-0.2441,1,483,886,3397
2287013922,450861,-0.0298,-0.0078,1.0259,0.3662,-0.1221,-0.3052,1,466,866,3397
2287018928,450862,-0.0308,-0.0068,1.0234,0.3662,-0.1221,-0.3052,1,493,873,3397
2287023926,450863,-0.0317,-0.0073,1.0220,0.1831,-0.1221,-0.3052,1,478,870,3397
2287028930,450864,-0.0308,-0.0078,1.0239,0.1831,-0.1221,-0.3662,1,465,808,3397
2287033930,450865,-0.0283,-0.0078,1.0269,0.2441,-0.0610,-0.2441,1,474,829,3397
2287038926,450866,-0.0278,-0.0073,1.0278,0.1831,0.0000,-0.3662,1,475,852,3397
2287043922,450867,-0.0283,-0.0083,1.0254,0.1831,0.0610,-0.3052,1,489,830,3397
2287048925,450868,-0.0303,-0.0103,1.0234,0.1221,0.0610,-0.3662,1,480,847,3397
2287053925,450869,-0.0308,-0.0112,1.0239,0.1831,0.0000,-0.4272,1,487,845,3397
2287058928,450870,-0.0298,-0.0103,1.0249,0.1221,0.0610,-0.3662,1,488,808,3397
2287063924,450871,-0.0293,-0.0078,1.0254,0.1221,0.1221,-0.3662,1,493,846,3397
2287068929,450872,-0.0288,-0.0063,1.0244,0.0610,0.0610,-0.2441,1,483,841,3397
2287073923,450873,-0.0298,-0.0078,1.0229,-0.0610,0.3052,-0.3052,1,466,877,3397
2287078930,450874,-0.0312,-0.0088,1.0215,0.2441,0.2441,-0.3052,1,484,858,3397
2287083926,450875,-0.0308,-0.0088,1.0220,0.1831,0.1221,-0.1221,1,465,891,3397
2287088923,450876,-0.0293,-0.0088,1.0234,0.0610,0.0610,-0.2441,1,482,856,3397
2287093929,450877,-0.0278,-0.0073,1.0239,0.0610,0.3052,-0.3052,1,465,871,3397
2287098927,450878,-0.0278,-0.0073,1.0244,0.1221,0.3052,-0.3052,1,483,862,3397
2287103927,450879,-0.0293,-0.0083,1.0234,0.1221,0.3662,-0.3052,1,465,853,3397
2287108930,450880,-0.0308,-0.0083,1.0225,0.1221,0.3052,-0.1831,1,465,856,3397
2287113925,450881,-0.0298,-0.0093,1.0225,0.1831,0.1221,-0.3052,1,479,851,3397
2287118930,450882,-0.0283,-0.0098,1.0239,0.1831,0.2441,-0.2441,1,466,850,3397
2287123928,450883,-0.0283,-0.0093,1.0244,0.2441,0.3052,-0.3662,1,466,882,3397
2287128924,450884,-0.0288,-0.0078,1.0239,0.0610,0.2441,-0.1831,1,466,878,3397
2287133924,450885,-0.0293,-0.0078,1.0234,0.0610,0.3052,-0.1831,1,494,880,3397
2287138927,450886,-0.0303,-0.0083,1.0229,0.2441,0.3052,-0.2441,1,466,808,3397
2287143928,450887,-0.0303,-0.0078,1.0234,0.1221,0.3052,-0.4272,1,476,848,3397
2287148930,450888,-0.0298,-0.0078,1.0234,0.1221,0.4883,-0.3662,1,483,842,3397
2287153922,450889,-0.0293,-0.0088,1.0229,0.0610,0.5493,-0.3662,1,490,847,3397
2287158929,450890,-0.0288,-0.0078,1.0225,0.1221,0.4272,-0.3662,1,487,848,3397
2287163929,450891,-0.0288,-0.0068,1.0225,0.0610,0.5493,-0.3052,1,486,850,3397
2287168943,450892,-0.0298,-0.0068,1.0225,0.0610,0.4883,-0.2441,1,493,846,3397
2287173930,450893,-0.0303,-0.0073,1.0225,0.0000,0.6104,-0.2441,1,493,846,3397
2287178927,450894,-0.0298,-0.0083,1.0225,0.0610,0.4883,-0.3052,1,484,815,3397
2287183927,450895,-0.0293,-0.0098,1.0220,0.1831,0.4883,-0.3662,1,473,860,3397
2287188928,450896,-0.0293,-0.0103,1.0210,0.0610,0.6104,-0.4883,1,465,874,3397
2287193929,450897,-0.0293,-0.0098,1.0215,0.0610,0.4272,-0.3052,1,483,895,3397
2287198922,450898,-0.0303,-0.0103,1.0225,0.0610,0.4883,-0.4272,1,465,857,3397
2287203923,450899,-0.0308,-0.0098,1.0215,0.1221,0.3662,-0.4272,1,476,860,3397
2287208927,450900,-0.0303,-0.0093,1.0210,0.1221,0.4272,-0.4272,1,479,869,3397
2287213925,450901,-0.0298,-0.0083,1.0225,0.0000,0.3662,-0.3052,1,481,851,3397
2287218929,450902,-0.0298,-0.0093,1.0234,0.0610,0.3662,-0.3052,1,479,809,3397
2287223922,450903,-0.0293,-0.0103,1.0239,0.0000,0.4272,-0.2441,1,484,854,3397
2287228931,450904,-0.0293,-0.0083,1.0244,0.0610,0.5493,-0.3662,1,466,834,3397
2287233928,450905,-0.0298,-0.0078,1.0244,0.1221,0.5493,-0.3662,1,466,880,3397
2287238925,450906,-0.0288,-0.0088,1.0239,-0.0610,0.5493,-0.3662,1,494,877,3397
2287243929,450907,-0.0273,-0.0083,1.0239,0.0000,0.6714,-0.1831,1,493,771,3397
2287248924,450908,-0.0269,-0.0078,1.0244,0.0610,0.7324,-0.3052,1,488,807,3397
2287253925,450909,-0.0278,-0.0078,1.0249,-0.0610,0.7324,-0.3052,1,480,846,3397
2287258929,450910,-0.0283,-0.0073,1.0249,-0.1221,0.7324,-0.3052,1,488,849,3397
2287263926,450911,-0.0278,-0.0063,1.0254,0.0000,0.9155,-0.2441,1,490,870,3397
2287268922,450912,-0.0273,-0.0073,1.0259,-0.1221,0.9766,-0.1831,1,478,806,3397
2287273923,450913,-0.0269,-0.0083,1.0254,-0.3052,1.1597,-0.1831,1,477,847,3397
2287278929,450914,-0.0293,-0.0088,1.0234,-0.1831,1.4038,-0.1831,1,493,846,3397
2287283931,450915,-0.0312,-0.0088,1.0220,-0.1831,1.1597,-0.1831,1,483,879,3397
2287288930,450916,-0.0317,-0.0088,1.0220,-0.2441,1.1597,-0.2441,1,465,904,3397
2287293925,450917,-0.0312,-0.0078,1.0220,-0.1221,1.2207,-0.1221,1,484,870,3397
2287298930,450918,-0.0288,-0.0063,1.0239,-0.2441,1.2207,-0.1831,1,465,850,3397
2287303927,450919,-0.0273,-0.0068,1.0254,-0.3052,1.4038,-0.1831,1,475,926,3397
2287308923,450920,-0.0288,-0.0088,1.0249,-0.3052,1.5259,-0.1221,1,479,866,3397
2287313922,450921,-0.0293,-0.0103,1.0239,-0.4272,1.4648,-0.1831,1,466,872,3397
2287318925,450922,-0.0288,-0.0112,1.0234,-0.4272,1.5259,-0.2441,1,465,866,3397
2287323930,450923,-0.0278,-0.0112,1.0229,-0.3052,1.7700,-0.2441,1,465,871,3397
2287328924,450924,-0.0312,-0.0098,1.0190,-0.3052,1.7090,-0.1221,1,478,865,3397
2287333923,450925,-0.0376,-0.0107,1.0142,-0.2441,1.5869,-0.2441,1,466,874,3397
2287338926,450926,-0.0405,-0.0132,1.0122,-0.1831,1.1597,-0.2441,1,493,883,3397
2287343929,450927,-0.0381,-0.0127,1.0156,-0.1221,0.7935,-0.3662,1,493,883,3397
2287348928,450928,-0.0312,-0.0103,1.0225,-0.1221,0.6714,-0.2441,1,479,875,3397
2287353931,450929,-0.0273,-0.0083,1.0264,0.0000,0.7935,-0.1831,1,466,796,3397
2287358926,450930,-0.0293,-0.0078,1.0249,0.0000,0.9155,-0.1221,1,492,807,3397
2287363927,450931,-0.0327,-0.0078,1.0225,-0.1831,0.8545,-0.1831,1,481,802,3397
2287368928,450932,-0.0337,-0.0088,1.0220,-0.3052,0.9155,-0.3052,1,487,852,3397
2287373927,450933,-0.0327,-0.0098,1.0225,-0.0610,0.9766,-0.2441,1,483,867,3397
2287378927,450934,-0.0308,-0.0103,1.0229,0.0000,1.0986,-0.3052,1,492,845,3397
2287383923,450935,-0.0303,-0.0093,1.0234,-0.1831,1.1597,-0.1221,1,472,798,3397
2287388927,450936,-0.0317,-0.0083,1.0244,-0.3052,1.1597,-0.1831,1,493,845,3397
2287393922,450937,-0.0322,-0.0083,1.0244,-0.1831,1.0986,-0.1831,1,483,878,3397
2287398922,450938,-0.0303,-0.0083,1.0239,-0.2441,1.2207,-0.1831,1,465,886,3397
2287403925,450939,-0.0283,-0.0083,1.0254,-0.3052,1.4648,-0.1831,1,484,871,3397
2287408929,450940,-0.0283,-0.0073,1.0264,-0.3662,1.6479,-0.2441,1,466,879,3397
2287413923,450941,-0.0298,-0.0063,1.0254,-0.3662,1.5869,-0.3662,1,469,925,3397
2287418922,450942,-0.0303,-0.0059,1.0259,-0.5493,1.5869,-0.1831,1,474,871,3397
2287423929,450943,-0.0288,-0.0073,1.0273,-0.4883,1.8921,-0.1831,1,475,866,3397
2287428930,450944,-0.0283,-0.0083,1.0273,-0.4883,2.0752,-0.2441,1,471,879,3397
2287433925,450945,-0.0293,-0.0078,1.0249,-0.4883,2.1362,-0.1831,1,470,864,3397
2287438927,450946,-0.0332,-0.0073,1.0210,-0.6104,2.3193,-0.2441,1,473,866,3397
2287443934,450947,-0.0371,-0.0093,1.0181,-0.6714,2.1973,-0.1831,1,483,862,3397
2287448927,450948,-0.0381,-0.0112,1.0190,-0.4883,1.9531,-0.1221,1,465,875,3397
2287453929,450949,-0.0356,-0.0112,1.0225,-0.5493,1.8921,-0.1221,1,493,876,3397
2287458928,450950,-0.0332,-0.0103,1.0249,-0.6714,2.0752,-0.1221,1,474,878,3397
2287463925,450951,-0.0327,-0.0093,1.0249,-0.6104,1.9531,-0.1221,1,493,776,3397
2287468924,450952,-0.0356,-0.0093,1.0195,-0.5493,2.0752,-0.1221,1,490,772,3397
2287473930,450953,-0.0425,-0.0107,1.0122,-0.5493,1.7700,-0.2441,1,490,849,3397
2287478927,450954,-0.0469,-0.0142,1.0073,-0.3662,1.3428,-0.2441,1,490,857,3397
2287483926,450955,-0.0444,-0.0156,1.0098,-0.1831,0.9155,-0.1221,1,478,872,3397
2287488922,450956,-0.0391,-0.0122,1.0166,-0.0610,0.7935,-0.2441,1,488,850,3397
2287493929,450957,-0.0342,-0.0083,1.0210,0.0000,0.7935,-0.2441,1,474,849,3397
2287498948,450958,-0.0327,-0.0078,1.0215,-0.1831,0.7935,-0.2441,1,494,800,3397
2287503927,450959,-0.0347,-0.0093,1.0205,0.0000,0.7935,-0.1831,1,493,854,3397
2287508929,450960,-0.0356,-0.0112,1.0205,0.1831,0.6104,-0.1831,1,465,817,3397
2287513925,450961,-0.0337,-0.0107,1.0215,0.1831,0.5493,-0.1831,1,477,871,3397
2287518922,450962,-0.0317,-0.0083,1.0225,0.1221,0.6714,-0.1831,1,466,833,3397
2287523922,450963,-0.0322,-0.0068,1.0225,0.0000,0.8545,-0.2441,1,468,930,3397
2287528927,450964,-0.0332,-0.0083,1.0210,0.0000,0.7935,-0.3052,1,470,822,3397
2287533929,450965,-0.0337,-0.0098,1.0205,0.0610,0.7935,-0.1831,1,469,825,3397
2287538925,450966,-0.0342,-0.0103,1.0215,0.1221,0.9155,-0.1831,1,469,871,3397
2287543929,450967,-0.0342,-0.0098,1.0229,0.0610,1.0376,-0.2441,1,474,858,3397
2287548922,450968,-0.0347,-0.0093,1.0220,-0.0610,0.9766,-0.3052,1,468,856,3397
2287553945,450969,-0.0347,-0.0098,1.0220,0.0000,1.0376,-0.2441,1,483,850,3397
2287558929,450970,-0.0342,-0.0107,1.0225,-0.1221,1.0376,-0.2441,1,466,826,3397
2287563923,450971,-0.0342,-0.0117,1.0225,-0.1221,1.1597,-0.2441,1,492,876,3397
2287568923,450972,-0.0337,-0.0122,1.0225,0.1221,0.9766,-0.1221,1,480,876,3397
2287573927,450973,-0.0327,-0.0107,1.0234,0.0000,1.0376,-0.2441,1,493,869,3397
2287578923,450974,-0.0332,-0.0098,1.0249,0.0000,1.1597,-0.2441,1,464,808,3397
2287583929,450975,-0.0332,-0.0078,1.0259,0.0000,1.1597,-0.2441,1,489,807,3397
2287588931,450976,-0.0337,-0.0083,1.0249,-0.1221,1.2817,-0.3052,1,488,805,3397
2287593929,450977,-0.0347,-0.0088,1.0234,-0.0610,1.4038,-0.2441,1,492,848,3397
2287598926,450978,-0.0352,-0.0088,1.0225,-0.0610,1.4038,-0.1831,1,476,849,3397
2287603924,450979,-0.0347,-0.0098,1.0225,-0.0610,1.2817,-0.1831,1,483,846,3397
2287608935,450980,-0.0342,-0.0107,1.0229,0.0000,1.4648,-0.1831,1,479,847,3397
2287613929,450981,-0.0337,-0.0103,1.0249,-0.1221,1.7700,-0.1221,1,492,810,3397
2287618930,450982,-0.0327,-0.0103,1.0249,-0.1831,1.8921,-0.3052,1,484,871,3397
2287623930,450983,-0.0332,-0.0103,1.0254,-0.0610,1.7700,-0.3052,1,465,867,3397
2287628927,450984,-0.0342,-0.0083,1.0264,-0.1221,1.8311,-0.1831,1,484,861,3397
2287633926,450985,-0.0347,-0.0083,1.0259,-0.2441,2.0142,-0.1831,1,465,901,3397
2287638923,450986,-0.0356,-0.0107,1.0239,-0.1831,2.0142,-0.1831,1,482,921,3397
2287643923,450987,-0.0376,-0.0122,1.0205,-0.0610,2.0142,-0.3052,1,483,875,3397
2287648925,450988,-0.0381,-0.0132,1.0195,-0.1831,1.7700,-0.2441,1,483,864,3397
2287653922,450989,-0.0371,-0.0137,1.0205,0.0000,1.8921,-0.1831,1,481,834,3397
2287658926,450990,-0.0371,-0.0117,1.0205,0.0610,1.9531,-0.1221,1,482,815,3397
2287663922,450991,-0.0371,-0.0093,1.0215,-0.0610,1.8921,-0.1831,1,473,860,3397
2287668952,450992,-0.0356,-0.0083,1.0215,-0.1221,1.8921,-0.1831,1,484,856,3397
2287673927,450993,-0.0361,-0.0093,1.0195,0.0610,2.0142,-0.1831,1,466,858,3397
2287678931,450994,-0.0381,-0.0112,1.0171,0.0610,1.8921,-0.1221,1,492,876,3397
2287683924,450995,-0.0376,-0.0122,1.0176,0.1831,1.6479,-0.3052,1,466,867,3397
2287688922,450996,-0.0371,-0.0112,1.0195,0.1831,1.6479,-0.2441,1,494,878,3397
2287693924,450997,-0.0376,-0.0098,1.0200,0.1221,1.7090,-0.1221,1,475,825,3397
2287698925,450998,-0.0376,-0.0093,1.0190,0.1831,1.7090,-0.1831,1,478,836,3397
2287703922,450999,-0.0376,-0.0103,1.0195,0.1831,1.5869,-0.1831,1,481,847,3397
2287708922,451000,-0.0371,-0.0117,1.0215,0.3052,1.5869,-0.2441,1,483,855,3397
2287713930,451001,-0.0371,-0.0122,1.0225,0.3052,1.6479,-0.0610,1,490,852,3397
2287718927,451002,-0.0366,-0.0107,1.0210,0.2441,1.5869,0.0000,1,490,850,3397
2287723948,451003,-0.0376,-0.0103,1.0181,0.2441,1.7700,-0.1221,1,493,806,3397
2287728923,451004,-0.0386,-0.0112,1.0171,0.1831,1.7090,-0.1221,1,493,843,3397
2287733931,451005,-0.0386,-0.0117,1.0186,0.3662,1.6479,0.0000,1,465,872,3397
2287738925,451006,-0.0386,-0.0107,1.0205,0.3662,1.6479,-0.1221,1,467,779,3397
2287743927,451007,-0.0381,-0.0103,1.0210,0.4272,1.6479,-0.0610,1,484,867,3397
2287748928,451008,-0.0381,-0.0083,1.0210,0.6104,1.6479,0.0000,1,478,901,3397
2287753927,451009,-0.0371,-0.0083,1.0229,0.4272,1.6479,0.0000,1,479,824,3397
2287758925,451010,-0.0361,-0.0112,1.0239,0.4883,1.8921,0.0000,1,479,835,3397
2287763928,451011,-0.0381,-0.0127,1.0234,0.4883,1.8311,-0.0610,1,480,817,3397
2287768924,451012,-0.0405,-0.0127,1.0225,0.5493,1.6479,0.0000,1,482,854,3397
2287773924,451013,-0.0410,-0.0142,1.0210,0.6714,1.5259,0.0000,1,465,817,3397
2287778922,451014,-0.0405,-0.0127,1.0200,0.7324,1.5259,0.0000,1,483,808,3397
2287783925,451015,-0.0400,-0.0098,1.0200,0.7935,1.4648,0.1221,1,466,829,3397
2287788930,451016,-0.0405,-0.0093,1.0195,0.7324,1.3428,0.1221,1,492,868,3397
2287793923,451017,-0.0405,-0.0112,1.0186,0.9155,1.3428,0.0610,1,466,874,3397
2287798927,451018,-0.0396,-0.0132,1.0195,1.0376,1.2207,0.0610,1,493,877,3397
2287803929,451019,-0.0381,-0.0127,1.0210,1.0376,1.2207,-0.1221,1,471,772,3397
2287808926,451020,-0.0381,-0.0103,1.0205,1.0986,1.2207,-0.1221,1,489,851,3397
2287813929,451021,-0.0391,-0.0117,1.0195,1.0986,1.1597,0.0000,1,478,845,3397
2287818923,451022,-0.0396,-0.0142,1.0205,1.2207,1.0986,0.0610,1,483,804,3397
2287823926,451023,-0.0376,-0.0127,1.0239,1.4038,1.1597,0.1221,1,477,848,3397
2287828922,451024,-0.0361,-0.0083,1.0269,1.3428,1.2817,0.1221,1,478,849,3397
2287833945,451025,-0.0366,-0.0068,1.0264,1.2817,1.5259,0.1831,1,492,850,3397
2287838930,451026,-0.0396,-0.0063,1.0234,1.2817,1.3428,0.1831,1,492,854,3397
2287843924,451027,-0.0410,-0.0063,1.0210,1.2207,1.0376,0.3052,1,484,881,3397
2287848927,451028,-0.0430,-0.0078,1.0205,1.0986,0.9155,0.3052,1,475,858,3397
2287853926,451029,-0.0376,-0.0122,1.0239,1.0986,0.4272,0.4272,1,484,816,3397
2287858927,451030,-0.0371,-0.0103,1.0249,1.5259,1.5869,0.4272,1,481,912,3397
2287863931,451031,-0.0376,-0.0073,1.0249,1.4038,0.9766,0.5493,1,479,873,3397
2287868926,451032,-0.0347,-0.0088,1.0254,1.3428,1.8921,0.3052,1,477,876,3397
2287873926,451033,-0.0371,-0.0083,1.0205,1.5259,2.0142,0.4883,1,465,867,3397
2287878927,451034,-0.0391,-0.0068,1.0176,1.5869,2.0142,0.4883,1,482,859,3397
2287883923,451035,-0.0415,-0.0073,1.0161,1.5259,2.0142,0.4272,1,466,854,3397
2287888922,451036,-0.0415,-0.0103,1.0166,1.4648,1.7090,0.4883,1,483,862,3397
2287893927,451037,-0.0410,-0.0098,1.0176,1.6479,2.1362,0.6104,1,466,878,3397
2287898929,451038,-0.0420,-0.0063,1.0190,1.5259,1.8311,0.4272,1,492,875,3397
2287903930,451039,-0.0381,-0.0098,1.0244,1.6479,1.8311,0.3662,1,466,875,3397
2287908930,451040,-0.0371,-0.0142,1.0254,1.9531,2.4414,0.3662,1,474,874,3397
2287913926,451041,-0.0405,-0.0137,1.0205,2.1362,2.3193,0.4883,1,493,834,3397
2287918925,451042,-0.0425,-0.0093,1.0171,2.0752,2.2583,0.4883,1,486,836,3397
2287923928,451043,-0.0400,-0.0068,1.0190,2.0142,2.0142,0.6104,1,473,843,3397
2287928924,451044,-0.0342,-0.0078,1.0229,2.1973,2.4414,0.6104,1,478,841,3397
2287933924,451045,-0.0347,-0.0068,1.0220,2.3193,2.9297,0.6714,1,488,850,3397
2287938930,451046,-0.0386,-0.0034,1.0181,2.1973,2.7466,0.7324,1,472,850,3397
2287943923,451047,-0.0366,-0.0044,1.0176,2.0752,3.1128,0.9155,1,485,849,3397
2287948925,451048,-0.0352,-0.0083,1.0166,2.3193,3.9673,0.8545,1,493,848,3397
2287953928,451049,-0.0396,-0.0073,1.0151,2.5024,4.0894,0.9155,1,483,852,3397
2287958929,451050,-0.0425,-0.0049,1.0176,2.3804,4.0894,0.9766,1,465,879,3397
2287963923,451051,-0.0435,-0.0044,1.0215,2.2583,4.0894,0.9766,1,485,858,3397
2287968930,451052,-0.0391,-0.0059,1.0264,2.3804,3.9062,1.0986,1,466,902,3397
2287973929,451053,-0.0322,-0.0063,1.0308,2.5024,4.8218,1.1597,1,475,859,3397
2287978924,451054,-0.0327,-0.0029,1.0283,2.6855,5.3711,1.1597,1,475,868,3397
2287983926,451055,-0.0371,0.0024,1.0239,2.3804,5.6763,1.2207,1,483,880,3397
2287988926,451056,-0.0425,0.0039,1.0220,2.0752,6.0425,1.2207,1,483,835,3397
2287993924,451057,-0.0425,-0.0020,1.0200,2.0142,5.6763,1.2817,1,482,855,3397
2287998928,451058,-0.0366,-0.0088,1.0195,2.2583,6.3477,1.4038,1,478,857,3397
2288003928,451059,-0.0381,-0.0073,1.0186,2.6855,7.3853,1.2817,1,483,866,3397
2288008923,451060,-0.0469,-0.0010,1.0146,2.5024,7.4463,1.1597,1,466,883,3397
2288013923,451061,-0.0503,0.0010,1.0151,2.6245,6.8970,1.2207,1,492,872,3397
2288018923,451062,-0.0415,-0.0029,1.0205,2.8076,7.3853,1.1597,1,466,874,3397
2288023931,451063,-0.0381,-0.0063,1.0210,3.1738,8.7891,1.0376,1,493,879,3397
2288028929,451064,-0.0498,-0.0039,1.0127,3.2959,9.0332,0.8545,1,469,855,3397
2288033923,451065,-0.0581,-0.0010,1.0083,3.2349,8.3008,0.8545,1,480,861,3397
2288038922,451066,-0.0532,-0.0005,1.0151,3.4180,8.3618,0.8545,1,490,842,3397
2288043929,451067,-0.0464,0.0015,1.0215,3.4790,8.9111,0.7935,1,488,849,3397
2288048924,451068,-0.0469,0.0029,1.0225,3.4790,9.1553,0.7935,1,487,848,3397
2288053930,451069,-0.0503,0.0005,1.0229,3.2349,9.0332,0.8545,1,474,845,3397
2288058940,451070,-0.0503,0.0000,1.0244,3.3569,9.2773,0.9155,1,489,843,3397
2288063924,451071,-0.0508,0.0078,1.0259,3.2959,9.5215,0.7935,1,493,814,3397
2288068922,451072,-0.0557,0.0156,1.0269,2.6855,9.3384,0.7935,1,465,872,3397
2288073926,451073,-0.0596,0.0146,1.0234,2.1362,9.0332,0.7935,1,477,870,3397
2288078928,451074,-0.0640,0.0083,1.0132,2.0142,9.0332,0.7324,1,484,876,3397
2288083926,451075,-0.0771,0.0044,1.0000,1.9531,8.6670,0.6714,1,472,906,3397
2288088928,451076,-0.0874,0.0034,0.9946,1.6479,7.3853,0.6104,1,474,862,3397
2288093923,451077,-0.0820,0.0039,1.0020,1.7090,6.1646,0.3052,1,471,876,3397
2288098929,451078,-0.0684,0.0068,1.0146,1.8311,5.7373,0.0000,1,475,821,3397
2288103922,451079,-0.0610,0.0112,1.0205,1.7090,5.4321,-0.1221,1,470,816,3397
2288108924,451080,-0.0659,0.0156,1.0171,1.4648,5.2490,-0.3052,1,475,861,3397
2288113926,451081,-0.0732,0.0166,1.0137,1.0986,4.5166,-0.4883,1,484,862,3397
2288118947,451082,-0.0718,0.0122,1.0176,0.6104,3.9673,-0.6104,1,466,866,3397
2288123930,451083,-0.0659,0.0088,1.0229,0.4272,3.9062,-0.7935,1,466,872,3397
2288128930,451084,-0.0625,0.0063,1.0249,0.3052,3.8452,-0.9155,1,493,880,3397
2288133929,451085,-0.0625,0.0029,1.0229,0.1831,3.6621,-0.9155,1,477,878,3397
2288138927,451086,-0.0640,0.0010,1.0205,0.2441,3.3569,-0.7935,1,492,882,3397
2288143925,451087,-0.0654,0.0010,1.0186,0.4272,3.1738,-0.6714,1,464,856,3397
2288148925,451088,-0.0664,-0.0010,1.0146,0.4272,2.9297,-0.8545,1,492,847,3397
2288153926,451089,-0.0659,-0.0049,1.0107,0.7324,2.8076,-0.8545,1,476,848,3397
2288158927,451090,-0.0674,-0.0063,1.0068,1.2817,2.7466,-0.7935,1,479,872,3397
2288163923,451091,-0.0723,-0.0073,1.0015,1.6479,2.5635,-0.7324,1,488,851,3397
2288168924,451092,-0.0801,-0.0117,0.9937,2.3804,2.0752,-0.9155,1,472,851,3397
2288173926,451093,-0.0859,-0.0151,0.9863,3.1738,1.0376,-1.0376,1,488,844,3397
2288178929,451094,-0.0864,-0.0137,0.9868,3.8452,0.4272,-1.0986,1,493,854,3397
2288183928,451095,-0.0806,-0.0122,0.9980,4.2114,-0.3662,-1.0986,1,465,885,3397
2288188924,451096,-0.0659,-0.0122,1.0127,4.8218,-0.6714,-1.1597,1,484,873,3397
2288193926,451097,-0.0576,-0.0088,1.0176,5.6152,-0.3662,-1.1597,1,465,882,3397
2288198928,451098,-0.0664,-0.0049,1.0103,6.0425,-0.4272,-1.4038,1,470,923,3397
2288203928,451099,-0.0771,-0.0049,1.0044,6.4087,-1.5869,-1.4648,1,469,864,3397
2288208930,451100,-0.0757,-0.0054,1.0078,6.8970,-2.1362,-1.3428,1,472,869,3397
2288213931,451101,-0.0679,-0.0063,1.0151,7.3242,-2.5635,-1.1597,1,471,878,3397
2288218922,451102,-0.0649,-0.0054,1.0166,7.8125,-2.8076,-1.2207,1,472,865,3397
2288223925,451103,-0.0669,-0.0010,1.0142,8.2397,-3.1738,-1.0986,1,478,865,3397
2288228938,451104,-0.0654,0.0049,1.0166,8.3618,-4.1504,-0.9155,1,484,860,3397
2288233930,451105,-0.0649,0.0088,1.0181,8.4229,-4.2725,-0.8545,1,466,881,3397
2288238925,451106,-0.0664,0.0093,1.0161,8.4229,-4.6997,-0.9155,1,492,875,3397
2288243929,451107,-0.0649,0.0088,1.0166,8.7280,-5.3101,-0.9155,1,466,884,3397
2288248929,451108,-0.0610,0.0112,1.0200,8.8501,-5.6763,-1.0376,1,490,879,3397
2288253931,451109,-0.0576,0.0142,1.0244,8.6670,-5.8594,-0.9766,1,465,828,3397
2288258928,451110,-0.0566,0.0156,1.0273,8.6060,-5.9204,-0.9155,1,483,866,3397
2288263926,451111,-0.0557,0.0166,1.0278,8.4839,-6.0425,-1.0376,1,491,860,3397
2288268926,451112,-0.0581,0.0156,1.0220,8.3618,-6.4087,-1.1597,1,481,854,3397
2288273922,451113,-0.0669,0.0117,1.0117,8.4229,-6.7139,-1.2817,1,480,856,3397
2288278926,451114,-0.0776,0.0083,1.0020,8.9111,-7.5684,-1.4648,1,492,857,3397
2288283931,451115,-0.0806,0.0063,1.0000,9.2773,-8.3618,-1.8921,1,488,856,3397
2288288925,451116,-0.0732,0.0083,1.0063,9.7656,-9.1553,-2.0142,1,493,845,3397
2288293930,451117,-0.0645,0.0171,1.0137,10.0708,-9.3994,-2.4414,1,466,882,3397
2288298924,451118,-0.0601,0.0249,1.0200,9.8267,-9.8877,-2.6245,1,480,896,3397
2288303931,451119,-0.0537,0.0264,1.0259,9.5215,-10.3149,-2.6245,1,465,883,3397
2288308925,451120,-0.0469,0.0234,1.0293,9.4604,-10.3149,-2.5024,1,465,934,3397
2288313928,451121,-0.0474,0.0229,1.0273,9.3994,-10.2539,-2.5024,1,472,889,3397
2288318929,451122,-0.0537,0.0278,1.0200,9.3384,-10.3760,-2.3193,1,472,896,3397
2288323923,451123,-0.0571,0.0322,1.0151,8.9722,-10.6812,-2.3193,1,472,903,3397
2288328929,451124,-0.0566,0.0342,1.0151,8.6060,-10.7422,-2.3193,1,483,906,3397
2288333923,451125,-0.0562,0.0366,1.0156,8.6060,-11.0474,-2.4414,1,473,885,3397
2288338926,451126,-0.0557,0.0337,1.0156,8.2397,-11.4746,-2.5635,1,483,886,3397
2288343923,451127,-0.0581,0.0288,1.0137,8.2397,-11.5356,-2.7466,1,466,907,3397
2288348929,451128,-0.0615,0.0278,1.0093,8.1787,-12.0850,-3.0518,1,492,910,3397
2288353928,451129,-0.0610,0.0327,1.0068,8.0566,-12.7563,-3.4180,1,466,901,3397
2288358922,451130,-0.0562,0.0425,1.0103,7.6294,-13.3057,-3.7231,1,494,906,3397
2288363922,451131,-0.0522,0.0469,1.0171,6.9580,-13.3667,-4.1504,1,478,823,3397
2288368926,451132,-0.0576,0.0464,1.0171,6.5918,-13.6719,-4.5166,1,485,847,3397
2288373925,451133,-0.0693,0.0449,1.0103,5.9204,-15.0757,-4.9438,1,486,873,3397
2288378929,451134,-0.0737,0.0444,1.0078,5.3711,-16.9067,-5.2490,1,485,874,3397
2288383924,451135,-0.0674,0.0479,1.0103,4.8218,-18.0664,-5.5542,1,490,889,3397
2288388928,451136,-0.0562,0.0488,1.0146,4.0283,-19.0430,-5.9814,1,478,860,3397
2288393931,451137,-0.0444,0.0493,1.0190,3.7842,-19.8364,-6.4087,1,493,868,3397
2288398923,451138,-0.0410,0.0493,1.0195,3.2349,-20.1416,-6.8359,1,493,868,3397
2288403930,451139,-0.0420,0.0449,1.0181,2.6245,-21.2402,-7.2021,1,465,902,3397
2288408928,451140,-0.0381,0.0396,1.0181,2.5635,-21.9727,-7.2021,1,480,900,3397
2288413922,451141,-0.0386,0.0371,1.0195,2.3804,-22.8271,-7.6294,1,465,885,3397
2288418930,451142,-0.0405,0.0386,1.0205,2.1973,-24.4751,-7.6904,1,471,933,3397
2288423925,451143,-0.0396,0.0371,1.0186,2.0142,-25.5737,-7.9956,1,483,954,3397
2288428927,451144,-0.0435,0.0391,1.0117,2.0142,-26.3062,-8.2397,1,467,893,3397
2288433927,451145,-0.0488,0.0444,1.0063,1.6479,-28.0762,-8.2397,1,466,894,3397
2288438922,451146,-0.0464,0.0420,1.0083,1.2817,-29.9072,-8.3618,1,465,904,3397
2288443927,451147,-0.0430,0.0317,1.0088,1.4038,-31.1890,-8.3618,1,466,885,3397
2288448927,451148,-0.0508,0.0273,1.0044,1.6479,-32.5928,-8.1787,1,484,882,3397
2288453953,451149,-0.0674,0.0347,0.9990,1.8921,-35.2783,-8.1177,1,466,894,3397
2288458929,451150,-0.0781,0.0415,0.9980,1.8311,-38.4521,-8.1177,1,466,893,3397
2288463928,451151,-0.0791,0.0444,1.0103,1.4648,-41.5039,-8.0566,1,493,895,3397
2288468926,451152,-0.0620,0.0493,1.0259,0.9766,-45.1660,-7.5684,1,483,904,3397
2288473923,451153,-0.0342,0.0537,1.0332,0.4272,-47.2412,-7.2632,1,466,899,3397
2288478928,451154,-0.0195,0.0493,1.0337,-0.4272,-48.7061,-7.2021,1,468,830,3397
2288483929,451155,-0.0112,0.0503,1.0352,-0.5493,-50.7202,-6.7139,1,488,854,3397
2288488925,451156,0.0093,0.0591,1.0439,-1.7090,-52.1851,-6.1646,1,488,869,3397
2288493922,451157,0.0249,0.0620,1.0508,-3.1128,-52.4292,-5.6763,1,492,862,3397
2288498930,451158,0.0205,0.0596,1.0483,-4.0283,-52.6733,-5.1270,1,475,872,3397
2288503925,451159,0.0088,0.0562,1.0459,-4.8828,-54.1992,-3.9673,1,471,877,3397
2288508934,451160,0.0098,0.0537,1.0532,-6.3477,-55.1147,-2.8687,1,491,872,3397
2288513924,451161,0.0415,0.0537,1.0630,-7.6294,-55.7251,-0.7324,1,493,873,3397
2288518928,451162,0.0654,0.0601,1.0688,-8.6670,-53.6499,1.0986,1,483,873,3397
2288523927,451163,0.0444,0.0645,1.0850,-11.0474,-55.2978,2.9297,1,466,898,3397
2288528928,451164,0.0176,0.0620,1.0952,-12.7563,-65.1855,4.5776,1,484,919,3397
2288533927,451165,-0.0039,0.0547,1.0869,-14.2212,-70.5566,5.4932,1,465,863,3397
2288538922,451166,-0.0308,0.0464,1.0752,-15.2588,-75.7446,6.8970,1,482,910,3397
2288543930,451167,-0.0439,0.0396,1.0635,-14.7705,-82.8857,9.1553,1,466,900,3397
2288548925,451168,-0.0508,0.0327,1.0576,-14.8315,-86.6089,10.1929,1,479,911,3397
2288553922,451169,-0.1035,0.0332,1.0610,-14.3433,-90.6372,10.4370,1,481,933,3397
2288558928,451170,-0.2163,0.0420,1.0698,-13.8550,-101.9287,11.2915,1,465,937,3397
2288563927,451171,-0.3301,0.0547,1.0864,-13.9160,-119.0185,11.2305,1,474,932,3397
2288568934,451172,-0.4258,0.0659,1.1094,-14.6484,-144.8975,12.1460,1,484,920,3397
2288573956,451173,-0.5400,0.0742,1.1470,-15.7471,-174.4385,12.8784,1,466,939,3397
2288578927,451174,-0.6851,0.0840,1.2134,-17.2119,-215.6372,13.6108,1,466,944,3397
2288583923,451175,-0.7925,0.1064,1.2827,-17.3340,-264.7095,15.3198,1,493,936,3397
2288588922,451176,-0.8799,0.1104,1.3794,-23.7427,-313.9648,14.7095,1,494,935,3397
2288593924,451177,-1.0024,0.0776,1.5703,-34.0576,-365.3564,11.9629,1,464,831,3397
2288598925,451178,-1.0767,0.0366,1.7783,-39.3066,-425.1709,10.7422,1,490,838,3397
2288603922,451179,-0.9424,-0.0244,1.8638,-46.2646,-487.1216,6.7749,1,474,917,3397
2288608926,451180,-0.7241,-0.0488,1.8745,-48.2178,-528.0762,-1.2207,1,475,904,3397
2288613928,451181,-1.0586,0.0449,2.0161,-64.8804,-615.4175,-14.4043,1,474,917,3397
2288618929,451182,-1.1450,0.0562,1.8208,-71.6553,-666.9311,-15.3198,1,478,901,3397
2288623943,451183,-0.9604,-0.0703,1.4370,-74.2188,-697.2656,-21.0571,1,481,911,3397
2288628927,451184,-0.7295,-0.3198,1.0679,-65.1245,-712.6464,-35.5225,1,492,947,3397
2288633922,451185,-0.6865,-0.6084,0.7832,-38.1470,-737.1826,-41.6260,1,484,937,3397
2288638926,451186,-0.7686,-0.6421,0.5820,0.3052,-778.6865,-39.3677,1,481,941,3397
2288643927,451187,-0.5347,-0.1440,0.7109,21.7285,-804.9926,-32.1655,1,466,903,3397
2288648925,451188,0.8125,0.2563,1.5073,20.9961,-751.5869,-2.8687,1,481,934,3397
2288653928,451189,2.9946,-0.1802,3.3940,-24.1699,-618.5913,11.5356,1,466,965,3397
2288658924,451190,3.9849,-1.0640,5.5293,-39.0625,-409.8510,-10.4980,1,465,940,3397
2288663922,451191,2.6602,-1.5132,6.0996,16.1743,-216.7969,-14.9536,1,470,936,3397
2288668930,451192,0.2349,-1.2095,5.0435,38.6353,-93.3838,-11.3525,1,475,943,3397
2288673924,451193,-1.4849,-0.6138,3.6372,29.6020,-35.5225,-7.8125,1,465,916,3397
2288678928,451194,-1.8540,-0.2393,2.7065,26.3062,-4.4556,-3.7842,1,483,902,3397
2288683923,451195,-1.5405,-0.1270,2.2109,34.9121,26.3672,-6.7749,1,466,906,3397
2288688925,451196,-1.3174,-0.0693,1.8540,43.5181,45.6543,-11.9629,1,466,924,3397
2288693927,451197,-1.3232,0.0132,1.5459,46.0205,51.0864,-18.7378,1,465,939,3397
2288698929,451198,-1.3550,0.0869,1.3457,45.3491,52.9175,-27.0386,1,494,933,3397
2288703923,451199,-1.3008,0.1265,1.2881,41.7480,59.0210,-36.3159,1,464,942,3397
2288708927,451200,-1.1909,0.1367,1.3403,36.0718,70.0073,-46.3867,1,481,824,3397
2288713928,451201,-1.0781,0.1240,1.4482,28.9307,84.6558,-56.3354,1,484,882,3397
2288718928,451202,-0.9800,0.0938,1.5640,22.3389,102.5391,-65.9180,1,488,926,3397
2288723929,451203,-0.8916,0.0527,1.6616,16.4185,122.8638,-74.5239,1,490,930,3397
2288728924,451204,-0.8013,0.0093,1.7358,12.2070,144.9585,-82.0312,1,476,931,3397
2288733934,451205,-0.7017,-0.0420,1.7842,9.8877,168.0298,-88.5010,1,481,904,3397
2288738925,451206,-0.5996,-0.1152,1.7983,9.8267,191.2842,-92.9565,1,493,888,3397
2288743931,451207,-0.5039,-0.2139,1.7642,12.6953,213.8672,-95.2148,1,511,908,3397
2288748927,451208,-0.4292,-0.3232,1.6704,18.1885,234.9853,-95.2759,1,465,950,3397
2288753924,451209,-0.3877,-0.4219,1.5259,24.9023,252.9297,-92.8955,1,484,942,3397
2288758927,451210,-0.3760,-0.4985,1.3540,32.1045,265.5029,-87.7075,1,472,936,3397
2288763923,451211,-0.3760,-0.5464,1.1855,38.7573,273.1934,-80.3833,1,474,932,3397
2288768923,451212,-0.3623,-0.5615,1.0469,43.6401,276.6724,-71.9604,1,481,924,3397
2288773930,451213,-0.3237,-0.5430,0.9502,46.0815,278.0762,-63.1714,1,480,925,3397
2288778930,451214,-0.2715,-0.4971,0.8896,45.4102,278.6255,-55.1758,1,476,925,3397
2288783924,451215,-0.2222,-0.4331,0.8481,41.5039,278.5034,-48.6450,1,477,934,3397
2288788931,451216,-0.1802,-0.3633,0.8184,34.3018,277.7710,-43.7622,1,484,926,3397
2288793923,451217,-0.1475,-0.2974,0.8008,24.1699,276.9775,-40.1001,1,466,924,3397
2288798922,451218,-0.1250,-0.2456,0.7944,11.9019,275.8789,-37.2925,1,466,922,3397
2288803929,451219,-0.1099,-0.2129,0.7964,-1.4648,274.4751,-35.0952,1,465,936,3397
2288808928,451220,-0.0986,-0.2061,0.8140,-15.0757,272.7661,-32.7759,1,488,913,3397
2288813929,451221,-0.0845,-0.2280,0.8574,-27.8931,270.9351,-29.3579,1,493,929,3397
2288818923,451222,-0.0693,-0.2671,0.9272,-38.3911,269.5312,-24.5361,1,473,862,3397
2288823925,451223,-0.0640,-0.2974,1.0176,-46.1426,268.6157,-18.2495,1,485,867,3397
2288828925,451224,-0.0620,-0.3018,1.1211,-52.1851,267.6392,-11.1084,1,488,904,3397
2288833927,451225,-0.0493,-0.2808,1.2324,-57.4341,268.0664,-3.7231,1,471,900,3397
2288838925,451226,-0.0312,-0.2412,1.3433,-62.2559,270.6909,3.4180,1,473,895,3397
2288843927,451227,-0.0112,-0.1875,1.4448,-66.7725,273.8647,10.0098,1,474,920,3397
2288848929,451228,0.0200,-0.1284,1.5278,-71.7163,278.9307,16.1133,1,494,894,3397
2288853923,451229,0.0620,-0.0649,1.5801,-75.9277,285.8887,21.4844,1,510,898,3397
2288858927,451230,0.1001,0.0029,1.5928,-78.7964,293.5181,25.5127,1,465,926,3397
2288863929,451231,0.1260,0.0737,1.5771,-81.1768,300.3540,28.5034,1,484,916,3397
2288868929,451232,0.1475,0.1431,1.5518,-82.8857,305.3589,30.1514,1,465,927,3397
2288873924,451233,0.1694,0.2095,1.5244,-83.3130,309.3262,30.8838,1,480,924,3397
2288878928,451234,0.1899,0.2729,1.4966,-82.7637,311.8896,30.5176,1,465,925,3397
2288883928,451235,0.2104,0.3281,1.4746,-81.8481,313.5986,29.2969,1,482,932,3397
2288888922,451236,0.2300,0.3662,1.4590,-80.2002,314.4531,27.6489,1,465,946,3397
2288893922,451237,0.2456,0.3809,1.4395,-77.3926,314.8804,26.0620,1,472,930,3397
2288898927,451238,0.2529,0.3794,1.4102,-73.8525,314.5752,24.8413,1,483,909,3397
2288903947,451239,0.2480,0.3716,1.3760,-70.1294,313.3545,24.1089,1,466,918,3397
2288908923,451240,0.2329,0.3618,1.3442,-65.9790,310.9741,24.1699,1,466,928,3397
2288913927,451241,0.2153,0.3569,1.3223,-62.0117,307.4341,24.5361,1,466,941,3397
2288918927,451242,0.2017,0.3589,1.3223,-58.7158,303.0396,25.2686,1,466,940,3397
2288923923,451243,0.1943,0.3628,1.3501,-56.3354,299.1943,25.8789,1,494,933,3397
2288928922,451244,0.1924,0.3569,1.3970,-54.1382,296.2036,26.4893,1,470,879,3397
2288933930,451245,0.1895,0.3350,1.4517,-51.9409,293.8232,27.2827,1,480,835,3397
2288938924,451246,0.1709,0.3018,1.5156,-49.5605,292.2974,28.1372,1,477,893,3397
2288943925,451247,0.1245,0.2739,1.6079,-46.9971,289.5508,28.8696,1,481,909,3397
2288948924,451248,0.0767,0.2607,1.7480,-44.9829,285.1562,29.2969,1,485,912,3397
2288953929,451249,0.0732,0.2529,1.9258,-43.5791,282.1655,29.6020,1,490,948,3397
2288958928,451250,0.1230,0.2368,2.1030,-42.5415,283.6304,29.2969,1,488,910,3397
2288963927,451251,0.1938,0.2109,2.2373,-41.1377,289.4287,28.3203,1,511,912,3397
2288968922,451252,0.2510,0.1865,2.3105,-39.4897,297.1802,26.8555,1,465,946,3397
2288973929,451253,0.2856,0.1670,2.3301,-38.5742,305.2368,24.8413,1,484,931,3397
2288978923,451254,0.3081,0.1431,2.3018,-37.7197,311.9507,22.6440,1,466,923,3397
2288983928,451255,0.3379,0.1143,2.2251,-36.6821,316.4062,20.8130,1,475,879,3397
2288988930,451256,0.3711,0.0859,2.1123,-36.2549,318.9087,18.6768,1,470,965,3397
2288993922,451257,0.3896,0.0610,2.0020,-37.5366,317.9932,16.4795,1,470,911,3397
2288998928,451258,0.4097,0.0352,1.9390,-40.8325,313.2935,15.1978,1,481,922,3397
2289003928,451259,0.4722,-0.0137,1.9341,-45.2270,307.9834,14.7705,1,474,885,3397
2289008922,451260,0.5767,-0.0874,1.9517,-49.0723,305.1147,15.8691,1,467,914,3397
2289013922,451261,0.6719,-0.1528,1.9565,-53.2837,303.8940,18.7378,1,483,920,3397
2289018946,451262,0.7305,-0.1958,1.9487,-59.3262,301.3306,23.0103,1,466,933,3397
2289023929,451263,0.7842,-0.2314,1.9404,-65.2466,296.2036,28.9307,1,466,931,3397
2289028925,451264,0.8726,-0.2646,1.9243,-69.5190,290.7104,36.3770,1,493,933,3397
2289033928,451265,0.9902,-0.2925,1.8867,-72.8149,286.1328,44.7998,1,477,929,3397
2289038930,451266,1.1138,-0.3101,1.8247,-74.2188,280.5176,53.7109,1,494,941,3397
2289043928,451267,1.2310,-0.3110,1.7476,-73.3032,273.2544,62.5610,1,465,964,3397
2289048924,451268,1.3438,-0.2886,1.6650,-70.3125,264.4653,70.3125,1,483,830,3397
2289053931,451269,1.4678,-0.2378,1.5796,-66.0400,253.4180,76.2939,1,490,899,3397
2289058927,451270,1.6216,-0.1489,1.4946,-61.3403,240.9668,79.6509,1,490,905,3397
2289063925,451271,1.8027,-0.0205,1.4097,-57.6782,228.4546,78.9185,1,475,934,3397
2289068930,451272,1.9902,0.1333,1.3110,-55.4810,215.7593,73.4863,1,482,931,3397
2289073923,451273,2.1606,0.2964,1.1841,-54.6265,202.6977,63.2935,1,493,915,3397
2289078925,451274,2.3145,0.4487,1.0220,-54.6875,187.9272,48.8892,1,510,917,3397
2289083930,451275,2.4565,0.5688,0.8237,-55.4810,171.6919,31.0059,1,465,949,3397
2289088925,451276,2.5723,0.6475,0.6074,-56.0303,152.7710,11.4746,1,485,944,3397
2289093926,451277,2.6543,0.6851,0.4106,-55.8472,129.8218,-8.4839,1,465,925,3397
2289098926,451278,2.7168,0.6709,0.2812,-54.0161,103.6377,-27.5879,1,472,918,3397
2289103922,451279,2.7754,0.5952,0.2402,-48.6450,75.9277,-44.1894,1,472,971,3397
2289108923,451280,2.8394,0.4590,0.2681,-39.0625,48.4009,-56.8848,1,477,932,3397
2289113928,451281,2.8970,0.2690,0.3125,-23.6816,22.3999,-65.0024,1,477,926,3397
2289118922,451282,2.9209,0.0615,0.3276,-1.8921,-3.6621,-68.7256,1,475,938,3397
2289123923,451283,2.8994,-0.1030,0.3115,22.8882,-31.1279,-69.2139,1,479,882,3397
2289128926,451284,3.0718,-0.0327,0.0288,41.7480,-88.2568,-68.6646,1,483,923,3397
2289133927,451285,3.1167,0.4209,-1.4004,51.6357,-268.6768,-52.2461,1,466,938,3397
2289138922,451286,1.7280,0.4438,-2.5308,11.2305,-354.4922,-64.8804,1,492,932,3397
2289143928,451287,0.5483,-0.1943,-1.0776,-17.1509,-385.5591,-81.2378,1,494,937,3397
2289148928,451288,0.9727,-0.7710,1.4521,1.2817,-337.5244,-61.2183,1,481,941,3397
2289153928,451289,0.0728,-1.3613,2.7754,21.9727,-218.2617,-85.5713,1,464,928,3397
2289158926,451290,-2.4648,-2.3594,2.5864,4.8828,-214.7827,-74.5850,1,491,949,3397
2289163925,451291,-3.6001,-3.0376,1.5444,82.7637,-344.1162,-25.7568,1,478,917,3397
2289168922,451292,-2.0903,-2.5342,0.3262,153.1372,-450.3174,25.2075,1,487,927,3397
2289173924,451293,0.5186,-1.4360,-0.5063,117.3706,-466.6748,58.9600,1,475,917,3397
2289178927,451294,1.8413,-0.5195,-0.4253,53.7720,-439.0258,80.0781,1,491,944,3397
2289183925,451295,1.4150,0.0371,0.7471,15.4419,-447.5708,100.0976,1,492,911,3397
2289188925,451296,0.6045,0.3984,2.5562,-0.9766,-455.8105,110.4736,1,492,914,3397
2289193925,451297,0.5093,0.8506,4.1338,15.0146,-431.7016,108.5815,1,466,930,3397
2289198923,451298,1.1143,1.5308,4.7476,42.0532,-376.7090,90.4541,1,482,947,3397
2289203928,451299,1.6216,2.1860,4.3262,47.8516,-301.9409,53.3447,1,466,929,3397
2289208924,451300,1.4751,2.4102,3.4009,34.5459,-244.7510,14.2822,1,465,933,3397
2289213926,451301,0.9121,2.0142,2.5664,15.0757,-215.3320,-13.1226,1,472,963,3397
2289218928,451302,0.3853,1.1094,2.0293,-3.1738,-195.0073,-28.3813,1,471,940,3397
2289223926,451303,0.0483,0.0469,1.6333,-12.4512,-180.9082,-32.5317,1,469,928,3397
2289228931,451304,-0.2344,-0.8745,1.2446,-13.5498,-176.2695,-23.8647,1,473,934,3397
2289233927,451305,-0.6538,-1.6641,1.2017,-5.4321,-174.1943,6.2866,1,465,957,3397
2289238930,451306,-0.6265,-2.1182,1.6045,32.4097,-220.0317,43.1519,1,484,898,3397
2289243942,451307,0.1025,-2.0815,1.9629,68.6646,-220.9473,62.8662,1,466,934,3397
2289248925,451308,0.6411,-1.6665,2.0352,100.4028,-177.9785,67.2607,1,466,941,3397
2289253924,451309,0.5713,-0.8491,1.9932,143.9819,-158.9966,66.4673,1,492,950,3397
2289258924,451310,0.3394,0.1987,2.0513,160.8276,-158.0200,60.9131,1,483,936,3397
2289263930,451311,0.2656,1.1250,2.2231,137.3291,-139.0991,42.7856,1,464,935,3397
2289268923,451312,0.3389,1.5938,2.3081,98.2056,-118.8965,21.9727,1,473,948,3397
2289273922,451313,0.4712,1.3560,2.0942,60.2417,-93.4448,7.3853,1,485,868,3397
2289278925,451314,0.4214,0.5391,1.6904,35.5225,-60.5469,-0.8545,1,484,898,3397
2289283922,451315,0.1865,-0.2090,1.3496,36.0107,-49.4385,0.9155,1,488,880,3397
2289288930,451316,0.0200,-0.3252,1.1919,44.7998,-48.7061,4.9438,1,478,890,3397
2289293948,451317,0.0015,0.0767,1.2041,38.8794,-40.1611,3.6621,1,469,890,3397
2289298928,451318,0.0332,0.4702,1.2656,22.5220,-32.3486,1.3428,1,492,881,3397
2289303927,451319,0.0400,0.5107,1.2603,7.0190,-27.3437,0.4272,1,465,919,3397
2289308924,451320,0.0117,0.2778,1.1948,-2.0142,-23.7427,0.8545,1,479,899,3397
2289313923,451321,-0.0146,0.0562,1.1372,-4.0283,-21.8506,2.2583,1,465,892,3397
2289318923,451322,-0.0176,-0.0093,1.1128,-5.3711,-19.1650,2.5024,1,483,856,3397
2289323923,451323,-0.0146,0.0200,1.1050,-8.4229,-15.9912,2.0752,1,482,880,3397
2289328929,451324,-0.0156,0.0464,1.0967,-11.0474,-13.8550,2.0142,1,483,891,3397
2289333924,451325,-0.0195,0.0425,1.0879,-13.3057,-11.6577,1.7090,1,476,911,3397
2289338929,451326,-0.0312,0.0195,1.0771,-14.8315,-9.4604,1.2817,1,483,915,3397
2289343923,451327,-0.0459,-0.0093,1.0640,-15.1978,-8.9722,0.6104,1,482,933,3397
2289348923,451328,-0.0508,-0.0396,1.0557,-15.1367,-8.9722,-0.4272,1,484,873,3397
2289353935,451329,-0.0562,-0.0708,1.0459,-13.1836,-8.4229,-1.7090,1,466,899,3397
2289358926,451330,-0.0791,-0.0933,1.0215,-9.9487,-9.2163,-2.6245,1,466,897,3397
2289363922,451331,-0.0972,-0.0947,1.0029,-7.3242,-11.5967,-3.0518,1,492,891,3397
2289368928,451332,-0.0840,-0.0820,1.0068,-5.3711,-13.1836,-3.0518,1,472,900,3397
2289373928,451333,-0.0581,-0.0601,1.0186,-3.7842,-12.8784,-2.9907,1,494,895,3397
2289378926,451334,-0.0547,-0.0142,1.0244,-2.6855,-12.7563,-2.8076,1,465,798,3397
2289383925,451335,-0.0601,-0.0161,1.0234,-2.2583,-13.1836,-2.9907,1,476,860,3397
2289388925,451336,-0.0557,-0.0347,1.0234,-1.5259,-13.6108,-3.3569,1,485,878,3397
2289393926,451337,-0.0527,-0.0557,1.0205,0.0610,-13.4888,-3.9673,1,492,876,3397
2289398924,451338,-0.0571,-0.0610,1.0166,1.8311,-13.9770,-4.5166,1,480,871,3397
2289403928,451339,-0.0581,-0.0474,1.0161,2.9297,-14.5874,-4.8218,1,490,877,3397
2289408929,451340,-0.0508,-0.0264,1.0195,3.5400,-14.5874,-5.1270,1,479,878,3397
2289413923,451341,-0.0415,-0.0166,1.0249,3.6621,-14.2212,-5.4321,1,509,873,3397
2289418924,451342,-0.0327,-0.0220,1.0293,4.0283,-13.7939,-5.5542,1,465,913,3397
2289423922,451343,-0.0254,-0.0303,1.0322,4.6387,-12.8174,-5.6763,1,484,894,3397
2289428925,451344,-0.0264,-0.0386,1.0288,5.5542,-11.3525,-5.9814,1,466,851,3397
2289433924,451345,-0.0342,-0.0439,1.0210,6.5308,-10.9863,-6.1035,1,479,935,3397
2289438930,451346,-0.0342,-0.0366,1.0181,7.6294,-10.4980,-6.0425,1,479,890,3397
2289443922,451347,-0.0234,-0.0249,1.0220,8.1787,-9.2163,-6.1646,1,474,894,3397
2289448923,451348,-0.0181,-0.0225,1.0249,8.6060,-7.0801,-6.5308,1,465,888,3397
2289453931,451349,-0.0195,-0.0254,1.0269,9.6436,-5.9814,-6.8359,1,467,854,3397
2289458928,451350,-0.0195,-0.0264,1.0254,10.5591,-4.7607,-7.3853,1,478,871,3397
2289463922,451351,-0.0259,-0.0327,1.0137,11.4746,-3.4790,-7.8735,1,484,880,3397
2289468928,451352,-0.0483,-0.0391,0.9946,12.8784,-2.6855,-8.4839,1,466,909,3397
2289473929,451353,-0.0728,-0.0376,0.9795,14.2212,-4.0894,-9.0942,1,492,906,3397
2289478922,451354,-0.0820,-0.0420,0.9707,15.5640,-5.7373,-9.7046,1,492,897,3397
2289483923,451355,-0.0957,-0.0664,0.9561,17.0288,-7.1411,-10.0098,1,481,899,3397
2289488922,451356,-0.1211,-0.0952,0.9409,20.3247,-10.8643,-9.8877,1,466,798,3397
2289493929,451357,-0.1304,-0.1011,0.9429,23.7427,-15.9912,-9.3994,1,475,843,3397
2289498924,451358,-0.1157,-0.0781,0.9629,26.4893,-19.9585,-9.3384,1,473,893,3397
2289503928,451359,-0.0874,-0.0352,0.9927,27.8320,-23.2544,-9.4604,1,487,887,3397
2289508927,451360,-0.0547,0.0005,1.0210,28.0762,-25.4517,-9.5215,1,488,890,3397
2289513925,451361,-0.0249,0.0171,1.0415,27.8320,-26.1841,-9.6436,1,487,875,3397
2289518925,451362,-0.0044,0.0249,1.0537,27.1606,-25.7568,-9.5215,1,492,889,3397
2289523930,451363,0.0073,0.0337,1.0601,26.0620,-25.1465,-9.2163,1,492,891,3397
2289528929,451364,0.0137,0.0396,1.0601,24.5361,-24.3530,-8.7891,1,465,911,3397
2289533923,451365,0.0132,0.0386,1.0522,23.3765,-23.2544,-8.4229,1,479,911,3397
2289538927,451366,0.0088,0.0352,1.0410,22.3999,-22.3389,-8.0566,1,465,907,3397
2289543930,451367,-0.0029,0.0342,1.0303,21.6675,-21.4233,-8.0566,1,465,914,3397
2289548924,451368,-0.0156,0.0317,1.0254,20.9351,-21.6064,-8.3008,1,465,904,3397
2289553928,451369,-0.0151,0.0337,1.0293,20.2637,-21.9727,-8.3008,1,473,902,3397
2289558930,451370,-0.0024,0.0400,1.0356,19.1650,-22.0947,-8.3008,1,472,902,3397
2289563930,451371,0.0107,0.0449,1.0386,18.0664,-21.4233,-8.3008,1,472,905,3397
2289568923,451372,0.0210,0.0518,1.0415,16.9067,-20.8740,-8.2397,1,470,892,3397
2289573928,451373,0.0332,0.0571,1.0459,15.3198,-19.8364,-7.6294,1,484,893,3397
2289578936,451374,0.0410,0.0586,1.0479,13.6108,-18.0054,-6.7139,1,466,920,3397
2289583924,451375,0.0347,0.0615,1.0425,12.0239,-16.7236,-5.5542,1,466,906,3397
2289588926,451376,0.0205,0.0659,1.0342,10.2539,-16.0522,-4.2114,1,493,914,3397
2289593927,451377,0.0078,0.0708,1.0283,8.4229,-15.6250,-3.0518,1,473,916,3397
2289598928,451378,-0.0005,0.0708,1.0264,6.7749,-15.6860,-2.1973,1,494,896,3397
2289603922,451379,-0.0117,0.0640,1.0244,5.4321,-16.2354,-1.7700,1,481,792,3397
2289608930,451380,-0.0298,0.0566,1.0161,4.6387,-17.5781,-1.6479,1,490,848,3397
2289613928,451381,-0.0391,0.0449,1.0098,4.0894,-19.8975,-1.6479,1,479,871,3397
2289618927,451382,-0.0381,0.0396,1.0098,3.8452,-21.9116,-1.5259,1,489,859,3397
2289623925,451383,-0.0405,0.0430,1.0078,3.4790,-24.0478,-1.7090,1,473,870,3397
2289628926,451384,-0.0527,0.0454,1.0049,3.1128,-26.8555,-1.9531,1,477,868,3397
2289633931,451385,-0.0674,0.0498,1.0044,2.9297,-30.7617,-2.1973,1,493,874,3397
2289638922,451386,-0.0688,0.0474,1.0063,2.4414,-35.0342,-2.5024,1,510,871,3397
2289643929,451387,-0.0610,0.0396,1.0132,2.3804,-38.7573,-2.9297,1,466,893,3397
2289648923,451388,-0.0566,0.0415,1.0229,2.5635,-43.1519,-3.2349,1,484,882,3397
2289653924,451389,-0.0449,0.0532,1.0298,2.0142,-48.4009,-3.4180,1,466,895,3397
2289658925,451390,-0.0186,0.0664,1.0361,1.4038,-51.2085,-4.0283,1,479,925,3397
2289663928,451391,0.0078,0.0752,1.0425,0.3662,-53.4668,-4.7607,1,480,891,3397
2289668929,451392,0.0195,0.0757,1.0439,-0.9155,-55.3589,-4.8828,1,477,895,3397
2289673922,451393,0.0161,0.0742,1.0405,-2.0752,-56.8848,-4.5776,1,477,904,3397
2289678927,451394,0.0049,0.0767,1.0386,-3.5400,-59.4482,-3.8452,1,465,887,3397
2289683926,451395,-0.0103,0.0850,1.0479,-5.4932,-62.6221,-3.2349,1,477,882,3397
2289688930,451396,-0.0142,0.0952,1.0684,-8.3618,-72.0215,-2.2583,1,484,878,3397
2289693952,451397,0.0117,0.0972,1.0811,-11.3525,-81.6650,-0.6714,1,466,898,3397
2289698927,451398,0.0552,0.0938,1.0830,-13.4277,-86.5478,0.9766,1,466,914,3397
2289703922,451399,0.0811,0.0923,1.0859,-15.2588,-90.2710,2.1973,1,493,945,3397
2289708924,451400,0.0859,0.0854,1.0854,-16.2964,-93.8721,3.6621,1,492,913,3397
2289713927,451401,0.0493,0.0693,1.0791,-15.7471,-94.1772,5.9814,1,494,914,3397
2289718928,451402,-0.0542,0.0610,1.0767,-14.8315,-94.6045,8.6060,1,470,851,3397
2289723925,451403,-0.2227,0.0723,1.0806,-14.5874,-104.3701,10.6812,1,478,898,3397
2289728922,451404,-0.4521,0.0986,1.0962,-15.8081,-124.9390,11.4136,1,487,912,3397
2289733927,451405,-0.7271,0.1328,1.1274,-18.9209,-159.9731,11.2915,1,473,919,3397
2289738922,451406,-0.9746,0.1929,1.1714,-23.3765,-209.7778,12.6343,1,471,931,3397
2289743947,451407,-1.1699,0.2861,1.2529,-36.0107,-266.8457,13.6719,1,476,919,3397
2289748923,451408,-1.3062,0.4092,1.3765,-57.1289,-337.5244,15.6250,1,478,913,3397
2289753922,451409,-1.6758,0.5913,1.5933,-77.3926,-388.0615,16.1133,1,466,942,3397
2289758926,451410,-1.9893,0.6729,1.9121,-106.2622,-469.9096,31.1890,1,478,931,3397
2289763927,451411,-1.5562,0.5957,2.1714,-138.4277,-580.7495,34.6680,1,466,950,3397
2289768930,451412,-1.0044,0.5698,2.3115,-165.2222,-659.1186,22.9492,1,481,927,3397
2289773929,451413,-1.1133,0.5288,2.3350,-191.8945,-721.9238,22.5220,1,481,877,3397
2289778925,451414,-1.5845,0.3472,2.2085,-197.8760,-800.1708,31.4941,1,482,998,3397
2289783928,451415,-1.9458,0.1201,1.9131,-191.0400,-872.8637,40.2222,1,471,937,3397
2289788928,451416,-2.0503,-0.0806,1.4570,-188.1714,-932.8002,42.2363,1,472,948,3397
2289793922,451417,-1.8462,-0.3501,0.9033,-179.6875,-985.5956,30.9448,1,471,927,3397
2289798925,451418,-1.6245,-0.7495,0.3364,-152.8320,-1022.2778,8.9722,1,484,932,3397
2289803952,451419,-1.4570,-0.7656,0.0063,-102.1118,-1091.3696,-6.8970,1,466,937,3397
2289808930,451420,0.1177,0.3208,0.7271,-75.6836,-1140.0757,-2.9297,1,466,934,3397
2289813926,451421,3.7593,1.2202,3.0166,-96.3745,-1005.7983,-10.1929,1,492,913,3397
2289818930,451422,6.3574,0.6914,6.1816,-132.5073,-676.7578,-79.6509,1,465,954,3397
2289823931,451423,5.3047,-0.1094,8.1675,-77.9419,-392.4560,-122.2534,1,493,947,3397
2289828926,451424,1.9229,-0.3091,7.7339,-45.2270,-191.9556,-146.9727,1,473,947,3397
2289833925,451425,-1.1143,-0.1846,6.0913,-60.8520,-74.5850,-170.5932,1,482,874,3397
2289838930,451426,-2.2129,-0.1636,4.7505,-58.4106,-13.0005,-178.2837,1,490,895,3397
2289843923,451427,-1.7075,-0.3306,4.0918,-52.4902,60.1807,-179.3823,1,483,915,3397
2289848922,451428,-0.9819,-0.5874,3.6089,-39.8560,135.8643,-174.7436,1,475,914,3397
2289853945,451429,-0.8599,-0.8159,2.8867,-20.6299,186.6455,-163.0249,1,478,915,3397
2289858923,451430,-1.1772,-0.9229,2.0659,0.9766,208.1909,-146.4233,1,479,922,3397
2289863925,451431,-1.4297,-0.9146,1.4595,21.3013,211.7309,-127.0752,1,511,900,3397
2289868923,451432,-1.3770,-0.8472,1.1694,39.2456,213.5620,-109.1919,1,471,946,3397
2289873928,451433,-1.1284,-0.7705,1.0923,54.7485,220.7031,-94.8486,1,484,948,3397
2289878922,451434,-0.8804,-0.7031,1.0845,66.7114,231.8115,-83.4351,1,472,941,3397
2289883931,451435,-0.7183,-0.6318,1.0674,74.5850,242.9809,-74.0967,1,480,936,3397
2289888929,451436,-0.6030,-0.5488,1.0371,77.5146,253.9062,-66.7114,1,473,921,3397
2289893925,451437,-0.4673,-0.4702,1.0220,76.8433,266.8457,-61.2793,1,476,930,3397
2289898931,451438,-0.3184,-0.4136,1.0293,74.9512,284.2407,-58.1665,1,483,923,3397
2289903928,451439,-0.2241,-0.3696,1.0425,72.1436,302.8564,-57.4951,1,477,930,3397
2289908929,451440,-0.1973,-0.3188,1.0488,67.4438,317.4438,-57.6782,1,483,921,3397
2289913925,451441,-0.1782,-0.2656,1.0518,59.4482,328.0029,-58.1665,1,466,943,3397
2289918928,451442,-0.1167,-0.2441,1.0498,49.6826,337.7075,-59.0210,1,466,949,3397
2289923923,451443,-0.0264,-0.2783,1.0244,41.6260,348.3886,-59.1431,1,466,945,3397
2289928923,451444,0.0405,-0.3501,0.9575,36.8042,358.7036,-58.2275,1,466,946,3397
2289933928,451445,0.0571,-0.4233,0.8633,33.7524,365.7837,-55.7251,1,494,932,3397
2289938928,451446,0.0415,-0.4746,0.7808,31.4331,368.4692,-51.1475,1,466,940,3397
2289943931,451447,0.0288,-0.4980,0.7397,28.8086,367.9809,-45.1050,1,488,948,3397
2289948927,451448,0.0356,-0.5015,0.7446,25.2686,366.6992,-38.2080,1,485,840,3397
2289953930,451449,0.0566,-0.4937,0.7930,20.8740,365.1123,-30.9448,1,476,906,3397
2289958925,451450,0.0928,-0.4775,0.8765,15.4419,364.2578,-23.4985,1,481,915,3397
2289963929,451451,0.1519,-0.4561,0.9785,9.0942,364.9902,-15.9912,1,471,915,3397
2289968922,451452,0.2295,-0.4331,1.0737,2.1973,368.8965,-8.7280,1,490,899,3397
2289973924,451453,0.3047,-0.4062,1.1382,-5.1880,375.6714,-2.0752,1,511,885,3397
2289978928,451454,0.3521,-0.3691,1.1646,-12.8174,383.2397,3.4180,1,466,930,3397
2289983929,451455,0.3511,-0.3193,1.1689,-21.3013,389.0991,7.8735,1,484,929,3397
2289988922,451456,0.3193,-0.2607,1.1924,-30.6396,390.6250,11.6577,1,465,868,3397
2289993923,451457,0.3013,-0.2041,1.2661,-40.5273,390.1367,14.8315,1,466,900,3397
2289998924,451458,0.3203,-0.1641,1.3853,-49.4995,390.1977,17.4561,1,482,974,3397
2290003926,451459,0.3691,-0.1440,1.5171,-56.6406,392.2119,19.2261,1,482,925,3397
2290008926,451460,0.4272,-0.1313,1.6289,-61.8896,396.5454,20.2637,1,481,933,3397
2290013930,451461,0.4673,-0.1167,1.7095,-65.9180,402.3437,21.1182,1,482,950,3397
2290018924,451462,0.4829,-0.1006,1.7705,-69.4580,407.6538,21.8506,1,475,917,3397
2290023925,451463,0.4971,-0.0928,1.8228,-71.8994,412.4145,23.0713,1,483,914,3397
2290028951,451464,0.5181,-0.0942,1.8574,-72.5708,417.3584,24.7192,1,466,935,3397
2290033928,451465,0.5381,-0.0928,1.8682,-71.7773,421.5088,26.4282,1,466,938,3397
2290038924,451466,0.5342,-0.0781,1.8579,-70.0684,423.8281,28.0151,1,493,934,3397
2290043922,451467,0.5005,-0.0444,1.8462,-68.9697,423.0346,29.5410,1,494,931,3397
2290048927,451468,0.4775,0.0000,1.8633,-69.0918,419.7998,30.7007,1,494,937,3397
2290053926,451469,0.4951,0.0366,1.9194,-70.0073,417.9687,31.4941,1,483,837,3397
2290058924,451470,0.5312,0.0552,1.9878,-70.4956,418.8232,31.5552,1,471,926,3397
2290063930,451471,0.5435,0.0620,2.0337,-70.0684,420.6543,30.7617,1,485,938,3397
2290068925,451472,0.5151,0.0713,2.0527,-69.1528,421.1425,29.6020,1,490,901,3397
2290073940,451473,0.4658,0.0874,2.0713,-68.6646,419.9218,27.6489,1,480,935,3397
2290078922,451474,0.4268,0.1045,2.1182,-68.6035,417.4194,25.2075,1,489,914,3397
2290083927,451475,0.4160,0.1123,2.1919,-67.6880,415.4663,21.9116,1,510,909,3397
2290088927,451476,0.4243,0.1011,2.2744,-66.1621,414.6118,17.6392,1,475,943,3397
2290093922,451477,0.4424,0.0728,2.3486,-63.5986,413.9404,13.1226,1,465,923,3397
2290098923,451478,0.4727,0.0400,2.4019,-60.8520,413.6963,8.6060,1,471,888,3397
2290103925,451479,0.5151,0.0176,2.4282,-58.3496,413.4521,3.7842,1,474,976,3397
2290108929,451480,0.5581,0.0093,2.4316,-57.4951,412.6587,-1.5869,1,476,924,3397
2290113926,451481,0.5957,0.0112,2.4263,-59.2041,409.6679,-7.4463,1,472,930,3397
2290118930,451482,0.6528,0.0166,2.4316,-63.9648,404.3579,-13.1836,1,479,880,3397
2290123929,451483,0.7520,0.0210,2.4590,-70.9229,398.8037,-18.7378,1,473,932,3397
2290128927,451484,0.8843,0.0239,2.4995,-79.9561,394.1040,-24.2920,1,484,905,3397
2290133952,451485,1.0337,0.0186,2.5303,-90.6982,389.9536,-29.1748,1,466,937,3397
2290138929,451486,1.1914,-0.0020,2.5244,-101.2573,385.6811,-32.4707,1,466,942,3397
2290143922,451487,1.3584,-0.0337,2.4609,-110.9619,380.6762,-33.5693,1,493,949,3397
2290148923,451488,1.5288,-0.0664,2.3252,-118.5303,374.2065,-32.3486,1,466,948,3397
2290153928,451489,1.7979,-0.1128,1.8701,-126.3428,350.2807,-23.4375,1,494,951,3397
2290158924,451490,1.9155,-0.1118,1.6294,-125.6714,330.1391,-16.2354,1,473,950,3397
2290163922,451491,2.0771,-0.0938,1.4136,-120.9717,306.7017,-8.6060,1,487,844,3397
2290168925,451492,2.2949,-0.0562,1.2178,-110.7788,281.8604,-3.1128,1,476,917,3397
2290173930,451493,2.5596,0.0215,1.0205,-95.6421,255.0049,-2.1362,1,480,900,3397
2290178924,451494,2.8516,0.1797,0.8008,-79.2236,226.1352,-6.8359,1,473,915,3397
