t_us, seq, ax, ay, az, gx, gy, gz, valid, t_imu_us, t_serial_us, missed
252934725,42063,-0.0757,-0.1177,1.0151,-0.1221,0.1831,-0.2441,1,484,820,712
252939727,42064,-0.0757,-0.1187,1.0146,-0.1221,0.1221,-0.1221,1,466,880,712
252944733,42065,-0.0747,-0.1187,1.0137,-0.0610,0.1221,-0.1831,1,466,871,712
252949726,42066,-0.0728,-0.1177,1.0137,0.0000,0.1831,-0.2441,1,466,879,712
252954742,42067,-0.0723,-0.1182,1.0137,0.0610,0.2441,-0.1831,1,466,833,712
252959732,42068,-0.0732,-0.1191,1.0146,-0.0610,0.3052,-0.2441,1,466,877,712
252964727,42069,-0.0752,-0.1196,1.0151,0.0610,0.1221,-0.1221,1,466,880,712
252969733,42070,-0.0757,-0.1187,1.0146,0.0610,0.0610,-0.1831,1,465,873,712
252974733,42071,-0.0747,-0.1187,1.0142,0.0610,0.1831,-0.3052,1,494,876,712
252979730,42072,-0.0737,-0.1191,1.0127,0.0610,0.2441,-0.2441,1,474,856,712
252984732,42073,-0.0737,-0.1187,1.0127,0.0610,0.2441,-0.3662,1,490,855,712
252989725,42074,-0.0742,-0.1187,1.0137,0.0000,0.2441,-0.3052,1,475,851,712
252994732,42075,-0.0732,-0.1177,1.0151,0.0610,0.3662,-0.3662,1,494,791,712
252999726,42076,-0.0718,-0.1162,1.0171,0.0610,0.2441,-0.2441,1,491,842,712
253004728,42077,-0.0728,-0.1157,1.0176,0.0000,0.3052,-0.1831,1,482,848,712
253009729,42078,-0.0747,-0.1177,1.0151,-0.1221,0.3052,-0.2441,1,494,792,712
253014725,42079,-0.0737,-0.1196,1.0137,-0.1221,0.3662,-0.3662,1,474,866,712
253019731,42080,-0.0723,-0.1187,1.0146,0.0000,0.3662,-0.3052,1,483,881,712
253024733,42081,-0.0718,-0.1177,1.0161,-0.1221,0.3052,-0.3052,1,482,813,712
253029726,42082,-0.0723,-0.1177,1.0161,-0.0610,0.3052,-0.2441,1,465,852,712
253034725,42083,-0.0747,-0.1172,1.0151,0.0000,0.3662,-0.2441,1,483,858,712
253039733,42084,-0.0762,-0.1172,1.0151,0.0610,0.3052,-0.3052,1,465,838,712
253044726,42085,-0.0767,-0.1177,1.0156,0.0610,0.3662,-0.2441,1,465,870,712
253049729,42086,-0.0757,-0.1187,1.0151,0.0610,0.2441,-0.1831,1,466,880,712
253054727,42087,-0.0747,-0.1187,1.0146,0.0000,0.3662,-0.1831,1,465,881,712
253059754,42088,-0.0732,-0.1187,1.0146,-0.0610,0.3052,-0.2441,1,466,838,712
253064727,42089,-0.0728,-0.1187,1.0146,0.0000,0.3052,-0.2441,1,466,878,712
253069731,42090,-0.0723,-0.1182,1.0137,-0.0610,0.3662,-0.3052,1,466,764,712
253074733,42091,-0.0732,-0.1177,1.0127,-0.0610,0.3052,-0.2441,1,493,872,712
253079730,42092,-0.0747,-0.1172,1.0132,-0.1831,0.3052,-0.2441,1,464,857,712
253084732,42093,-0.0757,-0.1167,1.0142,0.1221,0.2441,-0.2441,1,478,850,712
253089731,42094,-0.0757,-0.1172,1.0142,0.0000,0.3052,-0.2441,1,483,849,712
253094729,42095,-0.0752,-0.1187,1.0142,-0.0610,0.1831,-0.1831,1,494,788,712
253099727,42096,-0.0742,-0.1196,1.0146,0.0000,0.2441,-0.1831,1,476,838,712
253104726,42097,-0.0732,-0.1191,1.0142,-0.0610,0.2441,-0.1831,1,508,810,712
253109726,42098,-0.0728,-0.1182,1.0137,0.0000,0.2441,-0.3052,1,499,882,712
253114728,42099,-0.0728,-0.1172,1.0132,-0.0610,0.1831,-0.3662,1,478,824,712
253119730,42100,-0.0732,-0.1167,1.0122,0.0610,0.1831,-0.3662,1,482,874,712
253124732,42101,-0.0732,-0.1172,1.0132,0.0610,0.2441,-0.2441,1,465,836,712
253129728,42102,-0.0732,-0.1182,1.0146,0.0610,0.1831,-0.2441,1,467,862,712
253134733,42103,-0.0732,-0.1191,1.0146,0.0610,0.1831,-0.3052,1,472,864,712
253139728,42104,-0.0732,-0.1196,1.0142,0.0000,0.1221,-0.3662,1,484,862,712
253144727,42105,-0.0737,-0.1196,1.0132,0.0610,0.1831,-0.3052,1,466,834,712
253149731,42106,-0.0728,-0.1187,1.0132,0.0000,0.1831,-0.3662,1,466,878,712
253154734,42107,-0.0728,-0.1167,1.0142,0.1831,0.0610,-0.2441,1,466,833,712
253159725,42108,-0.0742,-0.1157,1.0151,0.1221,0.1831,-0.2441,1,466,878,712
253164733,42109,-0.0742,-0.1167,1.0156,0.1221,0.0610,-0.1831,1,466,885,712
253169725,42110,-0.0728,-0.1177,1.0156,0.0000,0.1831,-0.1831,1,492,878,712
253174727,42111,-0.0723,-0.1182,1.0166,-0.0610,0.3662,-0.3052,1,485,732,712
253179731,42112,-0.0732,-0.1177,1.0166,0.0000,0.2441,-0.2441,1,465,818,712
253184725,42113,-0.0732,-0.1167,1.0156,0.0000,0.1221,-0.1831,1,482,810,712
253189727,42114,-0.0723,-0.1162,1.0146,-0.0610,0.2441,-0.1831,1,475,804,712
253194731,42115,-0.0723,-0.1167,1.0146,0.0000,0.1831,-0.2441,1,506,855,712
253199731,42116,-0.0718,-0.1182,1.0156,-0.0610,0.1831,-0.1831,1,483,749,712
253204725,42117,-0.0713,-0.1182,1.0166,0.0610,0.3052,-0.1221,1,495,840,712
253209726,42118,-0.0723,-0.1167,1.0161,-0.0610,0.4272,-0.1831,1,492,868,712
253214733,42119,-0.0742,-0.1157,1.0142,-0.1221,0.4883,-0.2441,1,469,868,712
253219731,42120,-0.0747,-0.1157,1.0132,-0.2441,0.5493,-0.3052,1,465,876,712
253224729,42121,-0.0747,-0.1162,1.0137,-0.2441,0.4272,-0.3052,1,472,880,712
253229730,42122,-0.0747,-0.1182,1.0137,-0.1831,0.3052,-0.2441,1,480,864,712
253234726,42123,-0.0742,-0.1196,1.0142,-0.2441,0.4272,-0.3662,1,482,861,712
253239730,42124,-0.0742,-0.1196,1.0142,-0.1831,0.3662,-0.3662,1,484,867,712
253244727,42125,-0.0747,-0.1187,1.0146,-0.1221,0.3052,-0.2441,1,466,886,712
253249729,42126,-0.0747,-0.1172,1.0146,-0.1831,0.2441,-0.3662,1,466,878,712
253254728,42127,-0.0742,-0.1177,1.0151,-0.1221,0.3052,-0.3662,1,466,887,712
253259748,42128,-0.0732,-0.1187,1.0161,-0.2441,0.3052,-0.4272,1,466,878,712
253264733,42129,-0.0732,-0.1177,1.0176,-0.3052,0.4272,-0.3662,1,466,881,712
253269725,42130,-0.0728,-0.1182,1.0181,-0.2441,0.4272,-0.3052,1,466,878,712
253274731,42131,-0.0718,-0.1187,1.0156,-0.1831,0.3662,-0.3662,1,466,873,712
253279727,42132,-0.0728,-0.1177,1.0146,-0.2441,0.3052,-0.3662,1,493,882,712
253284726,42133,-0.0747,-0.1172,1.0142,-0.3052,0.3052,-0.2441,1,478,874,712
253289737,42134,-0.0752,-0.1182,1.0146,-0.3662,0.3662,-0.2441,1,490,845,712
253294725,42135,-0.0757,-0.1196,1.0146,-0.3052,0.4883,-0.3052,1,487,856,712
253299727,42136,-0.0767,-0.1196,1.0142,-0.3052,0.3662,-0.3052,1,499,845,712
253304729,42137,-0.0752,-0.1182,1.0142,-0.2441,0.3662,-0.3052,1,482,834,712
253309729,42138,-0.0737,-0.1177,1.0146,-0.3052,0.4272,-0.3662,1,491,796,712
253314727,42139,-0.0728,-0.1172,1.0156,-0.3052,0.3052,-0.3052,1,500,879,712
253319726,42140,-0.0718,-0.1167,1.0142,-0.4272,0.1831,-0.3052,1,483,855,712
253324731,42141,-0.0723,-0.1177,1.0127,-0.2441,0.3662,-0.1831,1,465,866,712
253329728,42142,-0.0732,-0.1182,1.0137,-0.3662,0.3052,-0.1831,1,466,835,712
253334726,42143,-0.0742,-0.1187,1.0146,-0.3052,0.3662,-0.2441,1,471,861,712
253339725,42144,-0.0747,-0.1191,1.0146,-0.1831,0.3052,-0.2441,1,471,863,712
253344728,42145,-0.0742,-0.1182,1.0137,-0.2441,0.3662,-0.3052,1,483,867,712
253349729,42146,-0.0747,-0.1177,1.0132,-0.2441,0.3662,-0.2441,1,466,879,712
253354728,42147,-0.0752,-0.1187,1.0137,-0.3052,0.3052,-0.2441,1,466,885,712
253359733,42148,-0.0742,-0.1191,1.0146,-0.3662,0.4272,-0.2441,1,466,872,712
253364732,42149,-0.0737,-0.1187,1.0151,-0.1831,0.3662,-0.1221,1,466,890,712
253369729,42150,-0.0747,-0.1182,1.0156,-0.1221,0.2441,-0.1831,1,465,882,712
253374733,42151,-0.0742,-0.1177,1.0156,-0.0610,0.3052,-0.2441,1,492,881,712
253379734,42152,-0.0728,-0.1172,1.0142,-0.1221,0.3662,-0.1831,1,466,877,712
253384729,42153,-0.0728,-0.1177,1.0137,-0.2441,0.3052,-0.1831,1,494,877,712
253389730,42154,-0.0732,-0.1182,1.0142,-0.1831,0.3052,-0.1831,1,487,857,712
253394749,42155,-0.0732,-0.1187,1.0146,-0.0610,0.3052,-0.3052,1,475,850,712
253399731,42156,-0.0742,-0.1182,1.0142,-0.1221,0.4272,-0.2441,1,482,844,712
253404726,42157,-0.0752,-0.1177,1.0142,-0.0610,0.2441,-0.2441,1,509,850,712
253409730,42158,-0.0752,-0.1182,1.0156,-0.1221,0.2441,-0.1831,1,504,839,712
253414729,42159,-0.0757,-0.1191,1.0166,-0.1831,0.3662,-0.1831,1,487,848,712
253419730,42160,-0.0752,-0.1187,1.0166,-0.1221,0.2441,-0.1831,1,503,897,712
253424730,42161,-0.0742,-0.1182,1.0146,-0.1221,0.2441,-0.1831,1,479,869,712
253429731,42162,-0.0747,-0.1191,1.0137,-0.1831,0.3052,-0.2441,1,465,872,712
253434728,42163,-0.0742,-0.1196,1.0137,-0.1831,0.3052,-0.2441,1,467,864,712
253439729,42164,-0.0742,-0.1206,1.0146,-0.0610,0.1831,-0.2441,1,475,864,712
253444725,42165,-0.0752,-0.1201,1.0151,-0.1221,0.3052,-0.1831,1,484,866,712
253449727,42166,-0.0762,-0.1196,1.0146,-0.2441,0.1831,-0.2441,1,466,875,712
253454729,42167,-0.0747,-0.1196,1.0151,-0.1831,0.2441,-0.2441,1,466,888,712
253459726,42168,-0.0737,-0.1187,1.0161,-0.1221,0.2441,-0.1831,1,466,892,712
253464731,42169,-0.0747,-0.1177,1.0156,-0.1831,0.1831,-0.1831,1,466,884,712
253469727,42170,-0.0757,-0.1172,1.0151,-0.1221,0.2441,-0.1831,1,466,886,712
253474729,42171,-0.0752,-0.1182,1.0156,-0.1221,0.2441,-0.1831,1,465,880,712
253479728,42172,-0.0737,-0.1187,1.0156,-0.1831,0.2441,-0.2441,1,466,878,712
253484728,42173,-0.0732,-0.1182,1.0156,-0.0610,0.2441,-0.1221,1,494,887,712
253489728,42174,-0.0737,-0.1182,1.0156,-0.1221,0.3052,-0.1831,1,474,859,712
253494742,42175,-0.0742,-0.1187,1.0151,-0.1831,0.3052,-0.1221,1,489,858,712
253499727,42176,-0.0742,-0.1187,1.0156,-0.1831,0.1831,-0.1221,1,488,848,712
253504728,42177,-0.0747,-0.1177,1.0161,-0.1221,0.2441,-0.1831,1,510,852,712
253509726,42178,-0.0752,-0.1182,1.0151,-0.1831,0.1831,-0.1831,1,500,841,712
253514731,42179,-0.0757,-0.1187,1.0151,-0.2441,0.1831,-0.1831,1,487,853,712
253519727,42180,-0.0737,-0.1196,1.0166,-0.2441,0.2441,-0.1831,1,502,896,712
253524732,42181,-0.0713,-0.1196,1.0186,-0.1831,0.3052,-0.1831,1,467,877,712
253529729,42182,-0.0713,-0.1187,1.0186,-0.1831,0.3662,-0.2441,1,470,877,712
253534728,42183,-0.0728,-0.1177,1.0166,-0.1831,0.4272,-0.3052,1,481,863,712
253539729,42184,-0.0742,-0.1177,1.0142,-0.0610,0.4272,-0.3052,1,465,860,712
253544725,42185,-0.0752,-0.1177,1.0127,-0.1221,0.3662,-0.2441,1,483,857,712
253549725,42186,-0.0752,-0.1177,1.0132,-0.0610,0.3052,-0.1831,1,466,877,712
253554731,42187,-0.0737,-0.1172,1.0146,-0.0610,0.3662,-0.1221,1,466,873,712
253559729,42188,-0.0732,-0.1172,1.0151,-0.1831,0.3662,-0.2441,1,466,880,712
253564729,42189,-0.0742,-0.1177,1.0156,-0.1831,0.3052,-0.1221,1,466,887,712
253569728,42190,-0.0747,-0.1196,1.0151,-0.1831,0.2441,-0.1221,1,465,877,712
253574726,42191,-0.0757,-0.1201,1.0151,-0.1221,0.3052,-0.1831,1,492,885,712
253579731,42192,-0.0762,-0.1187,1.0146,-0.1831,0.3662,-0.1221,1,482,874,712
253584726,42193,-0.0767,-0.1187,1.0137,-0.2441,0.1831,-0.1221,1,466,804,712
253589730,42194,-0.0776,-0.1196,1.0127,-0.2441,0.3052,-0.1831,1,490,848,712
253594731,42195,-0.0771,-0.1196,1.0127,-0.2441,0.2441,-0.2441,1,477,853,712
253599732,42196,-0.0757,-0.1191,1.0137,-0.1221,0.2441,-0.1831,1,508,860,712
253604733,42197,-0.0732,-0.1187,1.0137,0.0000,0.3052,-0.1831,1,489,840,712
253609732,42198,-0.0737,-0.1191,1.0132,0.0000,0.2441,-0.0610,1,503,830,712
253614732,42199,-0.0757,-0.1191,1.0132,0.0000,0.1831,-0.1831,1,502,795,712
253619732,42200,-0.0752,-0.1191,1.0142,-0.1221,0.1831,-0.3052,1,481,804,712
253624732,42201,-0.0732,-0.1191,1.0156,-0.0610,0.1221,-0.1831,1,466,864,712
253629726,42202,-0.0718,-0.1191,1.0161,-0.0610,0.3052,-0.2441,1,472,879,712
253634732,42203,-0.0723,-0.1187,1.0151,-0.0610,0.1831,-0.3052,1,465,860,712
253639734,42204,-0.0742,-0.1187,1.0151,-0.0610,0.2441,-0.3052,1,478,857,712
253644725,42205,-0.0762,-0.1187,1.0166,-0.0610,0.4883,-0.3052,1,466,861,712
253649725,42206,-0.0752,-0.1187,1.0171,0.0610,0.3052,-0.1831,1,465,873,712
253654729,42207,-0.0737,-0.1182,1.0176,-0.0610,0.1831,-0.1831,1,466,871,712
253659727,42208,-0.0737,-0.1182,1.0161,-0.0610,0.3052,-0.3052,1,466,880,712
253664732,42209,-0.0737,-0.1187,1.0142,-0.0610,0.4272,-0.3052,1,466,873,712
253669729,42210,-0.0728,-0.1191,1.0142,0.0000,0.3052,-0.1831,1,492,875,712
253674731,42211,-0.0723,-0.1187,1.0142,-0.1221,0.4272,-0.3052,1,466,752,712
253679727,42212,-0.0732,-0.1187,1.0137,-0.2441,0.5493,-0.3052,1,494,869,712
253684733,42213,-0.0742,-0.1182,1.0137,-0.1221,0.3662,-0.3052,1,476,873,712
253689749,42214,-0.0737,-0.1177,1.0146,-0.1221,0.4883,-0.2441,1,486,846,712
253694726,42215,-0.0737,-0.1177,1.0146,-0.1221,0.5493,-0.3052,1,483,851,712
253699725,42216,-0.0742,-0.1182,1.0142,-0.1221,0.4883,-0.2441,1,477,838,712
253704725,42217,-0.0747,-0.1187,1.0142,-0.1831,0.4883,-0.3052,1,507,789,712
253709730,42218,-0.0747,-0.1191,1.0142,0.0000,0.5493,-0.2441,1,489,874,712
253714731,42219,-0.0747,-0.1196,1.0137,-0.0610,0.4272,-0.3662,1,471,799,712
253719730,42220,-0.0747,-0.1201,1.0142,-0.1221,0.3052,-0.4272,1,476,871,712
253724729,42221,-0.0747,-0.1196,1.0142,-0.1221,0.3662,-0.3052,1,480,874,712
253729727,42222,-0.0752,-0.1187,1.0151,-0.1221,0.4883,-0.3052,1,469,859,712
253734730,42223,-0.0747,-0.1187,1.0161,-0.0610,0.5493,-0.2441,1,473,853,712
253739726,42224,-0.0737,-0.1196,1.0156,0.0000,0.4883,-0.2441,1,483,865,712
253744728,42225,-0.0732,-0.1187,1.0151,-0.1221,0.5493,-0.2441,1,466,840,712
253749726,42226,-0.0737,-0.1172,1.0156,-0.2441,0.4272,-0.3052,1,466,883,712
253754733,42227,-0.0737,-0.1172,1.0156,-0.2441,0.4883,-0.2441,1,465,881,712
253759749,42228,-0.0742,-0.1177,1.0156,-0.1831,0.4883,-0.2441,1,466,884,712
253764729,42229,-0.0742,-0.1187,1.0156,-0.1221,0.4272,-0.1221,1,466,884,712
253769728,42230,-0.0737,-0.1196,1.0142,-0.1831,0.6104,-0.2441,1,494,875,712
253774734,42231,-0.0732,-0.1201,1.0132,-0.1831,0.5493,-0.3052,1,468,880,712
253779732,42232,-0.0732,-0.1206,1.0142,-0.1831,0.5493,-0.1831,1,494,879,712
253784728,42233,-0.0747,-0.1206,1.0146,-0.1831,0.6104,-0.2441,1,484,837,712
253789725,42234,-0.0757,-0.1196,1.0137,-0.1831,0.4883,-0.2441,1,475,855,712
253794730,42235,-0.0752,-0.1196,1.0132,-0.1831,0.5493,-0.1221,1,509,852,712
253799733,42236,-0.0747,-0.1201,1.0137,-0.1221,0.4883,-0.1831,1,472,839,712
253804725,42237,-0.0732,-0.1206,1.0137,-0.1221,0.4272,-0.2441,1,494,793,712
253809725,42238,-0.0732,-0.1196,1.0142,-0.2441,0.5493,-0.2441,1,487,877,712
253814729,42239,-0.0737,-0.1182,1.0142,-0.2441,0.5493,-0.1221,1,501,847,712
253819728,42240,-0.0742,-0.1182,1.0142,-0.0610,0.6104,-0.1221,1,475,876,712
253824728,42241,-0.0747,-0.1196,1.0151,-0.1221,0.6104,-0.2441,1,466,869,712
253829733,42242,-0.0747,-0.1201,1.0156,-0.1831,0.3662,-0.1221,1,472,862,712
253834728,42243,-0.0737,-0.1191,1.0151,-0.1221,0.4272,-0.1221,1,471,864,712
253839730,42244,-0.0732,-0.1187,1.0151,-0.1831,0.6104,-0.1221,1,483,861,712
253844731,42245,-0.0747,-0.1187,1.0151,-0.1221,0.5493,-0.2441,1,466,879,712
253849727,42246,-0.0757,-0.1191,1.0142,-0.1221,0.4883,-0.1831,1,466,883,712
253854730,42247,-0.0747,-0.1201,1.0142,-0.1221,0.4272,-0.1831,1,465,879,712
253859750,42248,-0.0732,-0.1201,1.0156,-0.1221,0.4272,-0.2441,1,466,880,712
253864727,42249,-0.0732,-0.1191,1.0166,0.0000,0.5493,-0.1221,1,466,882,712
253869730,42250,-0.0747,-0.1191,1.0156,-0.1221,0.3662,-0.0610,1,466,835,712
253874729,42251,-0.0762,-0.1201,1.0146,-0.1831,0.4272,-0.1831,1,465,880,712
253879730,42252,-0.0762,-0.1201,1.0151,-0.0610,0.4272,-0.1831,1,493,813,712
253884734,42253,-0.0752,-0.1196,1.0151,-0.1221,0.3662,-0.1831,1,491,875,712
253889727,42254,-0.0742,-0.1201,1.0151,-0.2441,0.3052,-0.1831,1,478,853,712
253894728,42255,-0.0752,-0.1206,1.0156,-0.1221,0.4272,-0.2441,1,501,876,712
253899728,42256,-0.0757,-0.1201,1.0156,-0.1221,0.4272,-0.2441,1,489,840,712
253904726,42257,-0.0752,-0.1191,1.0146,-0.1831,0.4272,-0.1831,1,490,841,712
253909725,42258,-0.0752,-0.1187,1.0146,-0.1221,0.4272,-0.1831,1,500,884,712
253914732,42259,-0.0757,-0.1177,1.0151,-0.1831,0.4883,-0.1221,1,466,866,712
253919726,42260,-0.0762,-0.1177,1.0146,-0.2441,0.3662,-0.1831,1,466,865,712
253924732,42261,-0.0757,-0.1187,1.0137,-0.1831,0.3052,-0.1221,1,476,837,712
253929732,42262,-0.0757,-0.1191,1.0137,-0.3052,0.3052,-0.1221,1,479,854,712
253934728,42263,-0.0767,-0.1196,1.0142,-0.1221,0.4272,-0.2441,1,480,851,712
253939729,42264,-0.0762,-0.1196,1.0146,-0.1221,0.4272,-0.2441,1,466,861,712
253944728,42265,-0.0737,-0.1196,1.0146,-0.1221,0.3052,-0.0610,1,466,881,712
253949727,42266,-0.0732,-0.1191,1.0137,-0.1831,0.3662,-0.2441,1,466,876,712
253954733,42267,-0.0747,-0.1196,1.0117,0.0000,0.3662,-0.1831,1,466,889,712
253959757,42268,-0.0757,-0.1191,1.0112,-0.0610,0.4272,-0.1831,1,466,843,712
253964733,42269,-0.0752,-0.1191,1.0117,-0.0610,0.3662,-0.1221,1,466,882,712
253969732,42270,-0.0742,-0.1191,1.0132,-0.0610,0.1831,-0.1831,1,493,877,712
253974730,42271,-0.0737,-0.1191,1.0137,0.0000,0.1831,-0.2441,1,468,882,712
253979730,42272,-0.0757,-0.1187,1.0137,0.0610,0.4272,-0.2441,1,493,782,712
253984731,42273,-0.0767,-0.1187,1.0142,0.0000,0.3052,-0.1831,1,476,849,712
253989732,42274,-0.0747,-0.1191,1.0151,-0.1221,0.2441,-0.1831,1,488,799,712
253994729,42275,-0.0728,-0.1187,1.0156,-0.0610,0.2441,-0.2441,1,500,877,712
253999727,42276,-0.0728,-0.1177,1.0166,0.0000,0.1831,-0.1221,1,493,841,712
254004727,42277,-0.0747,-0.1187,1.0156,-0.0610,0.2441,-0.0610,1,480,867,712
254009726,42278,-0.0762,-0.1196,1.0137,-0.0610,0.2441,-0.1221,1,494,904,712
254014726,42279,-0.0752,-0.1201,1.0142,0.0000,0.3052,-0.1831,1,474,864,712
254019733,42280,-0.0747,-0.1196,1.0151,-0.0610,0.3662,-0.1221,1,482,826,712
254024727,42281,-0.0752,-0.1191,1.0156,-0.0610,0.3052,-0.1831,1,482,879,712
254029731,42282,-0.0752,-0.1191,1.0161,0.0000,0.3052,-0.0610,1,474,859,712
254034732,42283,-0.0757,-0.1196,1.0166,0.0610,0.1831,-0.1831,1,483,812,712
254039729,42284,-0.0757,-0.1206,1.0146,0.0610,0.3662,-0.1221,1,466,883,712
254044729,42285,-0.0757,-0.1201,1.0122,0.0610,0.4272,-0.1221,1,466,877,712
254049725,42286,-0.0762,-0.1182,1.0122,0.0610,0.3052,-0.1221,1,466,878,712
254054731,42287,-0.0762,-0.1182,1.0127,-0.0610,0.2441,-0.2441,1,466,870,712
254059727,42288,-0.0752,-0.1187,1.0137,-0.1221,0.2441,-0.2441,1,466,878,712
254064726,42289,-0.0742,-0.1187,1.0146,-0.0610,0.3052,-0.0610,1,492,877,712
254069730,42290,-0.0752,-0.1191,1.0151,-0.1221,0.3662,-0.1831,1,469,874,712
254074731,42291,-0.0757,-0.1191,1.0151,-0.0610,0.3662,-0.2441,1,490,880,712
254079729,42292,-0.0752,-0.1196,1.0137,-0.0610,0.1831,-0.1831,1,464,817,712
254084748,42293,-0.0747,-0.1196,1.0127,-0.1221,0.1831,-0.1831,1,492,862,712
254089732,42294,-0.0747,-0.1191,1.0142,-0.1221,0.3052,-0.3052,1,482,854,712
254094731,42295,-0.0752,-0.1196,1.0151,-0.1221,0.2441,-0.1831,1,510,842,712
254099725,42296,-0.0747,-0.1191,1.0142,0.0000,0.3052,-0.1831,1,501,842,712
254104731,42297,-0.0747,-0.1191,1.0122,-0.1831,0.2441,-0.2441,1,491,793,712
254109734,42298,-0.0762,-0.1182,1.0122,-0.1221,0.0000,-0.2441,1,502,900,712
254114729,42299,-0.0771,-0.1182,1.0137,-0.1221,0.0610,-0.2441,1,479,819,712
254119733,42300,-0.0767,-0.1196,1.0146,-0.0610,0.1831,-0.1831,1,467,875,712
254124725,42301,-0.0747,-0.1206,1.0161,-0.1221,0.1831,-0.1221,1,471,865,712
254129726,42302,-0.0742,-0.1201,1.0151,-0.0610,0.1221,-0.2441,1,465,860,712
254134732,42303,-0.0742,-0.1191,1.0137,0.0000,0.1831,-0.3662,1,484,861,712
254139726,42304,-0.0752,-0.1177,1.0137,0.0000,0.1831,-0.2441,1,465,838,712
254144727,42305,-0.0762,-0.1172,1.0142,0.0610,0.1221,-0.1221,1,466,833,712
254149726,42306,-0.0762,-0.1177,1.0142,0.0000,0.1831,-0.2441,1,466,868,712
254154729,42307,-0.0762,-0.1182,1.0137,0.0000,0.2441,-0.2441,1,466,833,712
254159726,42308,-0.0752,-0.1182,1.0137,0.0610,0.1221,-0.1221,1,466,833,712
254164727,42309,-0.0747,-0.1182,1.0146,-0.0610,0.1831,-0.2441,1,492,867,712
254169729,42310,-0.0752,-0.1191,1.0142,0.0610,0.1831,-0.2441,1,465,884,712
254174734,42311,-0.0747,-0.1196,1.0142,-0.0610,0.1831,-0.2441,1,494,879,712
254179727,42312,-0.0737,-0.1187,1.0142,0.0000,0.1831,-0.1831,1,464,779,712
254184740,42313,-0.0737,-0.1182,1.0132,0.0000,0.1221,-0.2441,1,485,807,712
254189726,42314,-0.0742,-0.1182,1.0122,0.0000,0.1221,-0.2441,1,482,802,712
254194728,42315,-0.0742,-0.1182,1.0127,-0.0610,0.1221,-0.2441,1,507,794,712
254199732,42316,-0.0742,-0.1182,1.0142,-0.0610,0.0610,-0.3662,1,492,836,712
254204727,42317,-0.0742,-0.1182,1.0156,-0.0610,0.0610,-0.3052,1,473,875,712
254209729,42318,-0.0737,-0.1187,1.0166,-0.0610,-0.0610,-0.2441,1,494,833,712
254214728,42319,-0.0732,-0.1187,1.0166,-0.0610,-0.0610,-0.2441,1,470,841,712
254219729,42320,-0.0732,-0.1191,1.0151,0.0000,0.0610,-0.2441,1,477,868,712
254224725,42321,-0.0732,-0.1196,1.0137,0.0610,0.1831,-0.1831,1,482,820,712
254229726,42322,-0.0742,-0.1191,1.0132,0.0000,0.2441,-0.1831,1,470,865,712
254234732,42323,-0.0752,-0.1191,1.0132,0.0000,0.1831,-0.3052,1,483,821,712
254239726,42324,-0.0742,-0.1187,1.0127,0.0610,0.1831,-0.2441,1,466,830,712
254244732,42325,-0.0732,-0.1182,1.0137,0.0000,0.2441,-0.2441,1,465,880,712
254249728,42326,-0.0732,-0.1187,1.0142,0.0000,0.1221,-0.2441,1,466,836,712
254254730,42327,-0.0732,-0.1196,1.0156,0.1221,0.0610,-0.1831,1,466,833,712
254259760,42328,-0.0732,-0.1196,1.0166,0.0610,0.0000,-0.2441,1,466,881,712
254264731,42329,-0.0737,-0.1182,1.0166,0.1831,0.2441,-0.2441,1,466,838,712
254269730,42330,-0.0747,-0.1177,1.0146,0.1221,0.1831,-0.3052,1,466,886,712
254274732,42331,-0.0747,-0.1187,1.0127,0.1221,0.1831,-0.2441,1,494,875,712
254279725,42332,-0.0747,-0.1191,1.0122,0.0000,0.1221,-0.2441,1,493,768,712
254284736,42333,-0.0747,-0.1191,1.0132,0.0610,0.2441,-0.3662,1,481,807,712
254289734,42334,-0.0737,-0.1187,1.0146,0.1221,0.3052,-0.3052,1,482,854,712
254294731,42335,-0.0732,-0.1182,1.0142,0.1221,0.1831,-0.3052,1,497,842,712
254299730,42336,-0.0752,-0.1187,1.0127,0.1221,0.2441,-0.3052,1,490,834,712
254304730,42337,-0.0762,-0.1191,1.0132,0.1221,0.1221,-0.2441,1,479,869,712
254309731,42338,-0.0752,-0.1201,1.0137,0.1831,0.2441,-0.2441,1,501,834,712
254314727,42339,-0.0757,-0.1196,1.0137,0.1831,0.1831,-0.1831,1,479,842,712
254319732,42340,-0.0757,-0.1177,1.0142,0.1221,0.0000,-0.1831,1,469,883,712
254324733,42341,-0.0732,-0.1172,1.0166,0.0610,0.0000,-0.2441,1,474,810,712
254329733,42342,-0.0718,-0.1167,1.0186,0.0610,0.1831,-0.2441,1,479,817,712
254334730,42343,-0.0737,-0.1167,1.0181,0.0000,0.1831,-0.2441,1,483,860,712
254339733,42344,-0.0752,-0.1177,1.0156,-0.0610,0.3052,-0.2441,1,466,833,712
254344729,42345,-0.0757,-0.1187,1.0137,-0.0610,0.1831,-0.2441,1,466,875,712
254349728,42346,-0.0747,-0.1177,1.0137,0.0000,0.1831,-0.1831,1,466,878,712
254354734,42347,-0.0732,-0.1167,1.0137,0.0610,0.3052,-0.2441,1,466,836,712
254359733,42348,-0.0728,-0.1167,1.0137,-0.1221,0.1221,-0.1831,1,466,875,712
254364728,42349,-0.0732,-0.1172,1.0132,-0.1221,0.1221,-0.2441,1,466,872,712
254369733,42350,-0.0732,-0.1182,1.0137,0.0000,0.2441,-0.3052,1,466,874,712
254374726,42351,-0.0732,-0.1177,1.0146,0.0000,0.1831,-0.2441,1,493,722,712
254379732,42352,-0.0732,-0.1172,1.0146,-0.0610,0.2441,-0.1221,1,464,810,712
254384749,42353,-0.0747,-0.1172,1.0142,0.0000,0.1221,-0.1831,1,483,849,712
254389731,42354,-0.0752,-0.1182,1.0151,0.0610,0.0610,-0.1831,1,476,801,712
254394733,42355,-0.0747,-0.1182,1.0151,0.0000,0.1221,-0.1831,1,482,872,712
254399726,42356,-0.0737,-0.1182,1.0146,0.0610,0.1221,-0.2441,1,493,802,712
254404732,42357,-0.0732,-0.1177,1.0151,0.1221,0.1831,-0.2441,1,484,876,712
254409733,42358,-0.0732,-0.1167,1.0151,-0.0610,0.1831,-0.2441,1,498,908,712
254414727,42359,-0.0742,-0.1177,1.0137,-0.0610,0.1831,-0.3052,1,475,843,712
254419729,42360,-0.0747,-0.1191,1.0132,0.1221,0.1221,-0.3052,1,466,874,712
254424727,42361,-0.0742,-0.1187,1.0142,0.0610,0.0610,-0.2441,1,471,854,712
254429727,42362,-0.0737,-0.1177,1.0156,0.1221,0.0610,-0.1221,1,475,859,712
254434734,42363,-0.0752,-0.1177,1.0161,0.0000,0.0610,-0.2441,1,484,854,712
254439725,42364,-0.0762,-0.1182,1.0146,-0.0610,0.1221,-0.2441,1,466,831,712
254444732,42365,-0.0757,-0.1182,1.0132,0.0610,0.1831,-0.2441,1,466,875,712
254449732,42366,-0.0742,-0.1187,1.0146,0.0000,0.1221,-0.1831,1,466,877,712
254454727,42367,-0.0732,-0.1191,1.0156,0.0000,0.1221,-0.2441,1,466,835,712
254459741,42368,-0.0737,-0.1187,1.0156,0.0000,0.2441,-0.1831,1,466,836,712
254464732,42369,-0.0757,-0.1177,1.0161,-0.0610,0.1831,-0.2441,1,466,838,712
254469733,42370,-0.0762,-0.1172,1.0151,-0.0610,0.1831,-0.2441,1,493,879,712
254474730,42371,-0.0747,-0.1177,1.0137,0.0610,0.1831,-0.2441,1,469,880,712
254479732,42372,-0.0742,-0.1187,1.0137,0.0000,0.1831,-0.2441,1,494,879,712
254484726,42373,-0.0747,-0.1182,1.0156,0.0610,0.3052,-0.1831,1,464,808,712
254489750,42374,-0.0757,-0.1157,1.0161,0.0610,0.1831,-0.2441,1,492,848,712
254494727,42375,-0.0747,-0.1157,1.0161,0.0000,0.1221,-0.3052,1,475,854,712
254499729,42376,-0.0728,-0.1182,1.0146,0.0000,0.1221,-0.3052,1,482,745,712
254504733,42377,-0.0728,-0.1201,1.0127,0.0000,0.1831,-0.1831,1,489,796,712
254509725,42378,-0.0742,-0.1196,1.0127,0.0610,0.3662,-0.1221,1,491,845,712
254514732,42379,-0.0762,-0.1187,1.0146,0.0000,0.2441,-0.1831,1,493,905,712
254519725,42380,-0.0752,-0.1187,1.0166,0.0000,0.1221,-0.3052,1,465,797,712
254524727,42381,-0.0737,-0.1182,1.0171,0.0610,0.2441,-0.2441,1,477,823,712
254529725,42382,-0.0732,-0.1172,1.0156,0.0610,0.1221,-0.2441,1,479,877,712
254534728,42383,-0.0728,-0.1172,1.0151,0.0000,0.1831,-0.2441,1,466,859,712
254539729,42384,-0.0723,-0.1177,1.0146,0.0000,0.3052,-0.2441,1,482,818,712
254544727,42385,-0.0737,-0.1182,1.0137,-0.0610,0.2441,-0.3052,1,466,812,712
254549725,42386,-0.0752,-0.1182,1.0146,-0.0610,0.1221,-0.3052,1,466,875,712
254554729,42387,-0.0752,-0.1177,1.0151,-0.1221,0.0000,-0.2441,1,466,872,712
254559728,42388,-0.0742,-0.1182,1.0146,0.0000,0.1831,-0.2441,1,466,832,712
254564726,42389,-0.0742,-0.1187,1.0151,-0.0610,0.3052,-0.2441,1,466,838,712
254569728,42390,-0.0742,-0.1172,1.0151,-0.0610,0.3052,-0.2441,1,465,878,712
254574728,42391,-0.0732,-0.1172,1.0146,-0.0610,0.1831,-0.2441,1,492,878,712
254579730,42392,-0.0728,-0.1182,1.0142,-0.1831,0.2441,-0.1831,1,493,884,712
254584729,42393,-0.0747,-0.1182,1.0137,-0.0610,0.3052,-0.1831,1,481,880,712
254589728,42394,-0.0762,-0.1182,1.0137,0.0000,0.1831,-0.1831,1,466,800,712
254594733,42395,-0.0757,-0.1182,1.0137,-0.0610,0.1221,-0.3662,1,475,804,712
254599728,42396,-0.0728,-0.1172,1.0151,-0.1221,0.1831,-0.1831,1,476,844,712
254604733,42397,-0.0732,-0.1177,1.0151,0.0000,0.1221,-0.3052,1,509,850,712
254609732,42398,-0.0737,-0.1187,1.0151,0.0610,0.0000,-0.2441,1,491,742,712
254614731,42399,-0.0737,-0.1191,1.0156,-0.0610,0.1221,-0.1831,1,491,835,712
254619732,42400,-0.0737,-0.1182,1.0151,-0.0610,0.1221,-0.3052,1,474,891,712
254624725,42401,-0.0747,-0.1167,1.0151,0.0000,0.1221,-0.1831,1,495,834,712
254629726,42402,-0.0742,-0.1162,1.0156,0.0000,0.1221,-0.2441,1,479,831,712
254634727,42403,-0.0732,-0.1162,1.0156,-0.1831,0.1831,-0.2441,1,480,818,712
254639732,42404,-0.0732,-0.1167,1.0151,-0.1831,0.3662,-0.1831,1,465,871,712
254644731,42405,-0.0742,-0.1172,1.0146,-0.1831,0.4272,-0.2441,1,482,870,712
254649730,42406,-0.0747,-0.1182,1.0142,-0.1221,0.2441,-0.1831,1,484,868,712
254654733,42407,-0.0752,-0.1182,1.0151,-0.0610,0.3662,-0.2441,1,466,880,712
254659725,42408,-0.0752,-0.1177,1.0161,-0.2441,0.1831,-0.2441,1,466,880,712
254664732,42409,-0.0742,-0.1172,1.0161,-0.3052,0.1831,-0.2441,1,465,884,712
254669728,42410,-0.0728,-0.1172,1.0156,-0.1831,0.2441,-0.1221,1,466,883,712
254674753,42411,-0.0728,-0.1177,1.0166,-0.1831,0.3662,-0.1221,1,466,880,712
254679728,42412,-0.0737,-0.1182,1.0161,-0.1221,0.3662,-0.1831,1,466,881,712
254684730,42413,-0.0737,-0.1182,1.0146,-0.2441,0.4272,-0.1831,1,492,881,712
254689729,42414,-0.0742,-0.1182,1.0151,-0.3052,0.4272,-0.1221,1,470,887,712
254694726,42415,-0.0752,-0.1177,1.0146,-0.3052,0.4272,-0.1221,1,494,767,712
254699729,42416,-0.0752,-0.1177,1.0137,-0.2441,0.4272,-0.1221,1,473,846,712
254704733,42417,-0.0732,-0.1177,1.0137,-0.1831,0.4272,-0.3052,1,480,848,712
254709730,42418,-0.0728,-0.1187,1.0146,-0.1221,0.3052,-0.3052,1,509,849,712
254714728,42419,-0.0732,-0.1187,1.0156,-0.1221,0.2441,-0.1831,1,490,829,712
254719731,42420,-0.0737,-0.1177,1.0142,-0.1221,0.2441,-0.1831,1,504,797,712
254724733,42421,-0.0757,-0.1177,1.0132,-0.0610,0.2441,-0.1831,1,484,890,712
254729730,42422,-0.0771,-0.1177,1.0137,-0.1221,0.2441,-0.2441,1,504,839,712
254734729,42423,-0.0767,-0.1167,1.0146,-0.1831,0.1831,-0.1831,1,482,877,712
254739725,42424,-0.0752,-0.1162,1.0156,-0.1831,0.1831,-0.2441,1,467,838,712
254744728,42425,-0.0742,-0.1172,1.0151,-0.0610,0.2441,-0.2441,1,479,868,712
254749727,42426,-0.0742,-0.1177,1.0146,-0.0610,0.3052,-0.2441,1,476,865,712
254754726,42427,-0.0747,-0.1172,1.0151,-0.1221,0.3662,-0.2441,1,484,860,712
254759730,42428,-0.0747,-0.1182,1.0151,-0.1831,0.3662,-0.2441,1,466,881,712
254764731,42429,-0.0737,-0.1191,1.0146,-0.1221,0.3662,-0.0610,1,466,888,712
254769726,42430,-0.0728,-0.1182,1.0146,-0.1831,0.4272,-0.1831,1,466,882,712
254774733,42431,-0.0737,-0.1172,1.0156,-0.1831,0.4272,-0.1831,1,466,885,712
254779745,42432,-0.0747,-0.1177,1.0156,-0.1831,0.3052,-0.2441,1,466,885,712
254784731,42433,-0.0737,-0.1182,1.0156,-0.2441,0.4883,-0.2441,1,466,881,712
254789733,42434,-0.0732,-0.1182,1.0161,-0.1221,0.3662,-0.0610,1,493,885,712
254794728,42435,-0.0732,-0.1187,1.0156,-0.1831,0.3662,-0.1221,1,490,877,712
254799730,42436,-0.0732,-0.1196,1.0151,-0.2441,0.3662,-0.1831,1,466,834,712
254804748,42437,-0.0732,-0.1187,1.0142,-0.0610,0.4883,-0.1831,1,491,871,712
254809732,42438,-0.0737,-0.1172,1.0132,-0.1831,0.4272,-0.0610,1,483,849,712
254814730,42439,-0.0747,-0.1182,1.0132,-0.3052,0.3662,-0.1831,1,500,850,712
254819727,42440,-0.0757,-0.1187,1.0137,-0.1831,0.3662,-0.1221,1,489,839,712
254824727,42441,-0.0762,-0.1191,1.0146,-0.1831,0.4883,-0.1831,1,478,877,712
254829727,42442,-0.0762,-0.1191,1.0146,-0.1221,0.4272,-0.1831,1,501,895,712
254834725,42443,-0.0747,-0.1182,1.0127,-0.2441,0.3662,-0.1831,1,478,869,712
254839729,42444,-0.0737,-0.1187,1.0122,-0.1831,0.3052,-0.2441,1,466,874,712
254844725,42445,-0.0737,-0.1191,1.0132,-0.0610,0.3662,-0.2441,1,466,864,712
254849727,42446,-0.0747,-0.1191,1.0142,-0.1221,0.4272,-0.3052,1,472,865,712
254854726,42447,-0.0752,-0.1187,1.0151,-0.2441,0.4272,-0.3052,1,483,858,712
254859734,42448,-0.0752,-0.1187,1.0146,-0.2441,0.3662,-0.3052,1,466,877,712
254864730,42449,-0.0752,-0.1182,1.0146,-0.1831,0.4272,-0.2441,1,466,878,712
254869730,42450,-0.0752,-0.1182,1.0146,-0.1831,0.3662,-0.1831,1,466,883,712
254874728,42451,-0.0747,-0.1182,1.0151,-0.1831,0.3052,-0.1221,1,466,884,712
254879726,42452,-0.0732,-0.1191,1.0142,-0.1221,0.3052,-0.3052,1,466,876,712
254884726,42453,-0.0723,-0.1187,1.0142,-0.1831,0.3662,-0.3052,1,466,872,712
254889734,42454,-0.0737,-0.1182,1.0151,-0.1221,0.3662,-0.1831,1,466,876,712
254894727,42455,-0.0757,-0.1187,1.0156,-0.2441,0.4272,-0.2441,1,466,880,712
254899731,42456,-0.0757,-0.1191,1.0146,-0.0610,0.3052,-0.2441,1,494,882,712
254904729,42457,-0.0752,-0.1187,1.0137,-0.1221,0.4272,-0.1831,1,466,859,712
254909734,42458,-0.0757,-0.1187,1.0132,-0.1221,0.3052,-0.1831,1,479,858,712
254914734,42459,-0.0752,-0.1187,1.0137,-0.2441,0.3052,-0.1831,1,478,842,712
254919725,42460,-0.0747,-0.1182,1.0137,-0.2441,0.3052,-0.1221,1,484,847,712
254924731,42461,-0.0747,-0.1187,1.0127,-0.3662,0.4272,-0.2441,1,499,834,712
254929726,42462,-0.0742,-0.1191,1.0137,-0.1831,0.4272,-0.1831,1,480,854,712
254934729,42463,-0.0737,-0.1187,1.0146,-0.1221,0.3662,-0.1831,1,502,897,712
254939729,42464,-0.0747,-0.1187,1.0151,-0.1831,0.3052,-0.1221,1,474,870,712
254944726,42465,-0.0752,-0.1187,1.0151,-0.2441,0.3662,-0.2441,1,477,865,712
254949729,42466,-0.0742,-0.1182,1.0156,-0.2441,0.2441,-0.1221,1,482,837,712
254954729,42467,-0.0737,-0.1187,1.0151,-0.2441,0.4272,-0.2441,1,465,863,712
254959726,42468,-0.0742,-0.1187,1.0146,-0.1831,0.4272,-0.3052,1,484,868,712
254964729,42469,-0.0742,-0.1187,1.0146,-0.1831,0.4272,-0.1831,1,466,862,712
254969726,42470,-0.0747,-0.1187,1.0146,-0.2441,0.5493,-0.1831,1,466,886,712
254974727,42471,-0.0742,-0.1187,1.0151,-0.2441,0.4883,-0.2441,1,466,888,712
254979725,42472,-0.0742,-0.1187,1.0156,-0.1221,0.5493,-0.1831,1,466,885,712
254984730,42473,-0.0742,-0.1182,1.0161,-0.1221,0.3662,-0.1831,1,466,883,712
254989756,42474,-0.0737,-0.1182,1.0161,-0.3662,0.4272,-0.1221,1,465,882,712
254994732,42475,-0.0742,-0.1187,1.0156,-0.3052,0.4883,-0.1831,1,466,881,712
254999731,42476,-0.0737,-0.1182,1.0146,-0.2441,0.4883,-0.2441,1,465,877,712
255004728,42477,-0.0737,-0.1177,1.0127,-0.1831,0.5493,-0.1831,1,493,885,712
255009731,42478,-0.0747,-0.1182,1.0122,-0.1831,0.6104,-0.1831,1,470,809,712
255014727,42479,-0.0762,-0.1187,1.0122,-0.2441,0.5493,-0.3052,1,476,863,712
255019725,42480,-0.0762,-0.1201,1.0117,-0.2441,0.4272,-0.2441,1,483,850,712
255024731,42481,-0.0757,-0.1211,1.0122,-0.1221,0.3662,-0.3662,1,489,856,712
255029727,42482,-0.0747,-0.1196,1.0142,-0.1221,0.3052,-0.3052,1,492,838,712
255034727,42483,-0.0747,-0.1177,1.0142,-0.1221,0.3052,-0.1831,1,484,870,712
255039732,42484,-0.0752,-0.1167,1.0151,-0.1831,0.3052,-0.1831,1,497,834,712
255044726,42485,-0.0752,-0.1167,1.0156,-0.1221,0.4883,-0.2441,1,465,866,712
255049732,42486,-0.0737,-0.1187,1.0156,-0.1831,0.3662,-0.2441,1,477,865,712
255054728,42487,-0.0737,-0.1211,1.0142,-0.2441,0.3662,-0.3662,1,474,840,712
255059729,42488,-0.0747,-0.1211,1.0132,-0.2441,0.3052,-0.3052,1,482,864,712
255064727,42489,-0.0747,-0.1201,1.0142,-0.0610,0.4272,-0.3052,1,479,854,712
255069734,42490,-0.0742,-0.1196,1.0146,-0.2441,0.4883,-0.2441,1,466,858,712
255074727,42491,-0.0752,-0.1196,1.0151,-0.2441,0.4272,-0.2441,1,466,886,712
255079725,42492,-0.0762,-0.1187,1.0156,-0.1221,0.3662,-0.2441,1,466,887,712
255084726,42493,-0.0762,-0.1167,1.0161,-0.1221,0.4272,-0.1831,1,466,879,712
255089728,42494,-0.0752,-0.1167,1.0161,-0.1831,0.4883,-0.2441,1,466,880,712
255094758,42495,-0.0752,-0.1182,1.0156,-0.1221,0.3052,-0.1831,1,466,882,712
255099726,42496,-0.0732,-0.1191,1.0146,-0.1221,0.1831,-0.2441,1,466,873,712
255104727,42497,-0.0728,-0.1196,1.0146,-0.1831,0.3052,-0.3052,1,466,884,712
255109733,42498,-0.0747,-0.1187,1.0156,-0.1831,0.4272,-0.3052,1,494,875,712
255114727,42499,-0.0762,-0.1187,1.0156,-0.1831,0.4883,-0.2441,1,470,805,712
255119729,42500,-0.0767,-0.1187,1.0137,-0.0610,0.4272,-0.2441,1,478,862,712
255124732,42501,-0.0757,-0.1187,1.0127,-0.1221,0.4272,-0.2441,1,490,849,712
255129726,42502,-0.0747,-0.1191,1.0127,-0.1221,0.3662,-0.1831,1,491,847,712
255134733,42503,-0.0737,-0.1191,1.0137,-0.0610,0.3662,-0.2441,1,508,842,712
255139731,42504,-0.0742,-0.1196,1.0142,-0.1221,0.1831,-0.2441,1,491,852,712
255144732,42505,-0.0747,-0.1191,1.0127,-0.1221,0.3662,-0.3052,1,507,893,712
255149725,42506,-0.0742,-0.1187,1.0117,-0.0610,0.4272,-0.3052,1,510,836,712
255154725,42507,-0.0747,-0.1196,1.0127,0.0000,0.3662,-0.1831,1,477,874,712
255159727,42508,-0.0747,-0.1201,1.0137,-0.0610,0.3662,-0.2441,1,482,820,712
255164726,42509,-0.0757,-0.1191,1.0137,-0.0610,0.3052,-0.2441,1,465,864,712
255169728,42510,-0.0762,-0.1187,1.0146,-0.0610,0.3052,-0.2441,1,484,857,712
255174725,42511,-0.0752,-0.1196,1.0151,0.0000,0.3662,-0.1831,1,466,875,712
255179732,42512,-0.0747,-0.1206,1.0156,-0.1221,0.4272,-0.1831,1,466,838,712
255184730,42513,-0.0742,-0.1201,1.0156,-0.0610,0.4272,-0.1831,1,466,883,712
255189725,42514,-0.0762,-0.1182,1.0146,0.0000,0.3052,-0.1831,1,465,885,712
255194742,42515,-0.0786,-0.1167,1.0132,0.0610,0.3052,-0.2441,1,466,830,712
255199729,42516,-0.0786,-0.1162,1.0132,-0.0610,0.1831,-0.2441,1,466,875,712
255204730,42517,-0.0767,-0.1167,1.0132,-0.0610,0.0000,-0.2441,1,493,884,712
255209727,42518,-0.0747,-0.1177,1.0132,0.0000,0.1831,-0.2441,1,488,829,712
255214729,42519,-0.0747,-0.1187,1.0142,-0.0610,0.1221,-0.1831,1,464,817,712
255219725,42520,-0.0762,-0.1191,1.0142,-0.0610,0.1221,-0.1221,1,483,857,712
255224733,42521,-0.0762,-0.1187,1.0142,0.0000,0.1831,-0.2441,1,483,842,712
255229727,42522,-0.0752,-0.1191,1.0146,0.0000,0.0610,-0.0610,1,503,793,712
255234729,42523,-0.0742,-0.1196,1.0146,0.0000,0.1831,-0.1831,1,498,802,712
255239726,42524,-0.0742,-0.1191,1.0137,0.0000,0.1221,-0.2441,1,484,801,712
255244730,42525,-0.0747,-0.1182,1.0117,-0.0610,0.1831,-0.2441,1,507,795,712
255249730,42526,-0.0752,-0.1191,1.0117,-0.1221,0.1831,-0.2441,1,509,844,712
255254725,42527,-0.0742,-0.1201,1.0137,0.0000,0.2441,-0.2441,1,467,878,712
255259725,42528,-0.0747,-0.1196,1.0142,0.1221,0.1831,-0.1831,1,477,819,712
255264731,42529,-0.0771,-0.1187,1.0142,0.0000,0.1831,-0.1831,1,482,864,712
255269725,42530,-0.0771,-0.1177,1.0146,-0.0610,0.1831,-0.1831,1,484,817,712
255274729,42531,-0.0752,-0.1172,1.0151,0.0000,0.0610,-0.2441,1,466,883,712
255279728,42532,-0.0747,-0.1177,1.0146,0.0610,0.1221,-0.1831,1,466,832,712
255284732,42533,-0.0747,-0.1182,1.0142,0.0610,0.1831,-0.1221,1,466,879,712
255289728,42534,-0.0737,-0.1187,1.0142,0.0610,0.1831,-0.1831,1,465,876,712
255294740,42535,-0.0737,-0.1187,1.0142,0.1221,0.1221,-0.3052,1,466,880,712
255299727,42536,-0.0742,-0.1191,1.0146,0.0000,0.1221,-0.2441,1,466,868,712
255304731,42537,-0.0752,-0.1191,1.0142,0.0610,0.1831,-0.1221,1,493,836,712
255309730,42538,-0.0747,-0.1191,1.0146,0.0610,0.1831,-0.3052,1,483,874,712
255314725,42539,-0.0742,-0.1187,1.0146,0.0000,0.1831,-0.2441,1,464,777,712
255319747,42540,-0.0742,-0.1187,1.0151,0.0610,0.2441,-0.1831,1,482,811,712
255324730,42541,-0.0747,-0.1201,1.0156,0.0610,0.2441,-0.3662,1,491,864,712
255329730,42542,-0.0747,-0.1211,1.0146,0.0610,0.1831,-0.2441,1,479,854,712
255334730,42543,-0.0747,-0.1191,1.0142,0.0610,0.2441,-0.2441,1,489,841,712
255339731,42544,-0.0747,-0.1177,1.0142,0.0000,0.2441,-0.1831,1,479,881,712
255344732,42545,-0.0757,-0.1182,1.0137,0.0000,0.1831,-0.2441,1,502,796,712
255349731,42546,-0.0776,-0.1187,1.0127,0.0000,0.1831,-0.3052,1,509,794,712
255354728,42547,-0.0781,-0.1191,1.0127,0.0610,0.0610,-0.3662,1,469,812,712
255359726,42548,-0.0771,-0.1187,1.0127,0.0000,0.1221,-0.3052,1,481,861,712
255364729,42549,-0.0757,-0.1182,1.0132,0.0610,0.0000,-0.3052,1,465,809,712
255369731,42550,-0.0747,-0.1177,1.0137,0.0610,-0.1221,-0.2441,1,483,806,712
255374729,42551,-0.0742,-0.1177,1.0146,0.1221,-0.0610,-0.1831,1,465,877,712
255379726,42552,-0.0732,-0.1187,1.0156,0.2441,0.0610,-0.1831,1,466,880,712
255384726,42553,-0.0732,-0.1191,1.0146,0.1221,0.0000,-0.2441,1,466,883,712
255389733,42554,-0.0737,-0.1191,1.0142,0.1221,-0.0610,-0.2441,1,466,838,712
255394732,42555,-0.0747,-0.1191,1.0142,0.0000,0.0610,-0.2441,1,466,879,712
255399732,42556,-0.0752,-0.1187,1.0137,0.0000,0.0000,-0.3052,1,466,835,712
255404726,42557,-0.0747,-0.1182,1.0132,0.1221,0.0610,-0.3662,1,493,704,712
255409731,42558,-0.0732,-0.1187,1.0142,0.0610,0.0610,-0.3662,1,484,874,712
255414734,42559,-0.0737,-0.1187,1.0151,0.0610,0.0000,-0.2441,1,466,773,712
255419747,42560,-0.0732,-0.1187,1.0151,0.0000,0.0000,-0.2441,1,469,806,712
255424732,42561,-0.0713,-0.1187,1.0156,0.0000,0.1831,-0.1831,1,488,750,712
255429729,42562,-0.0728,-0.1191,1.0166,0.0000,0.2441,-0.3052,1,509,795,712
255434728,42563,-0.0752,-0.1182,1.0171,-0.1221,0.2441,-0.3662,1,480,803,712
255439726,42564,-0.0767,-0.1182,1.0156,-0.0610,0.2441,-0.1831,1,493,842,712
255444725,42565,-0.0757,-0.1187,1.0137,-0.0610,0.3052,-0.2441,1,495,891,712
255449732,42566,-0.0747,-0.1182,1.0132,0.0610,0.1831,-0.3052,1,472,834,712
255454726,42567,-0.0747,-0.1182,1.0137,0.0000,0.3662,-0.1831,1,472,862,712
255459730,42568,-0.0742,-0.1182,1.0146,0.1221,0.3052,-0.1831,1,465,818,712
255464727,42569,-0.0732,-0.1182,1.0146,0.1221,0.3052,-0.1221,1,465,857,712
255469728,42570,-0.0732,-0.1182,1.0142,0.0000,0.1831,-0.2441,1,483,854,712
255474727,42571,-0.0737,-0.1187,1.0127,-0.1221,0.1831,-0.2441,1,466,836,712
255479727,42572,-0.0732,-0.1187,1.0132,0.0000,0.0610,-0.3052,1,466,879,712
255484732,42573,-0.0742,-0.1187,1.0146,-0.0610,0.0610,-0.1831,1,466,826,712
255489733,42574,-0.0762,-0.1182,1.0151,0.0000,0.1221,-0.1831,1,466,879,712
255494725,42575,-0.0767,-0.1177,1.0142,0.0000,0.2441,-0.3052,1,466,830,712
255499732,42576,-0.0757,-0.1172,1.0137,-0.1831,0.1831,-0.3662,1,466,829,712
255504733,42577,-0.0747,-0.1182,1.0132,-0.1221,0.0610,-0.4883,1,492,880,712
255509732,42578,-0.0752,-0.1191,1.0137,-0.0610,0.1221,-0.3052,1,466,872,712
255514733,42579,-0.0747,-0.1182,1.0146,0.1221,0.1221,-0.1831,1,494,870,712
255519731,42580,-0.0742,-0.1177,1.0156,0.0000,0.2441,-0.2441,1,481,773,712
255524729,42581,-0.0742,-0.1177,1.0156,0.0000,0.1221,-0.2441,1,485,810,712
255529733,42582,-0.0742,-0.1172,1.0156,0.1221,0.1831,-0.3052,1,497,794,712
255534729,42583,-0.0742,-0.1172,1.0146,0.0610,0.1831,-0.3052,1,483,835,712
255539730,42584,-0.0747,-0.1172,1.0146,0.1221,0.1221,-0.1221,1,499,838,712
255544730,42585,-0.0747,-0.1167,1.0146,0.0000,0.1221,-0.1831,1,485,832,712
255549728,42586,-0.0742,-0.1167,1.0146,0.0610,0.2441,-0.2441,1,465,795,712
255554730,42587,-0.0737,-0.1182,1.0146,0.0000,0.2441,-0.2441,1,477,880,712
255559732,42588,-0.0732,-0.1187,1.0146,-0.1221,0.1221,-0.3052,1,480,820,712
255564726,42589,-0.0737,-0.1191,1.0146,-0.1221,0.0610,-0.2441,1,465,854,712
255569725,42590,-0.0747,-0.1187,1.0146,0.0610,0.1221,-0.1221,1,484,863,712
255574729,42591,-0.0752,-0.1182,1.0156,0.0000,0.2441,-0.1831,1,466,872,712
255579732,42592,-0.0742,-0.1191,1.0156,0.0610,0.1221,-0.3052,1,466,834,712
255584728,42593,-0.0737,-0.1196,1.0146,0.0000,0.0610,-0.2441,1,466,876,712
255589729,42594,-0.0728,-0.1187,1.0146,0.0000,0.1831,-0.2441,1,465,839,712
255594725,42595,-0.0728,-0.1172,1.0146,0.0000,0.2441,-0.1221,1,466,837,712
255599727,42596,-0.0747,-0.1157,1.0151,0.0610,0.2441,-0.2441,1,466,832,712
255604732,42597,-0.0757,-0.1162,1.0151,0.0000,0.1831,-0.2441,1,493,884,712
255609728,42598,-0.0742,-0.1172,1.0146,-0.0610,0.1221,-0.1831,1,470,763,712
255614726,42599,-0.0737,-0.1182,1.0142,-0.0610,0.1221,-0.2441,1,493,877,712
255619743,42600,-0.0737,-0.1187,1.0137,-0.0610,0.1831,-0.1221,1,476,820,712
255624733,42601,-0.0737,-0.1187,1.0151,-0.1221,0.1831,-0.2441,1,483,847,712
255629731,42602,-0.0737,-0.1187,1.0156,0.0610,0.1831,-0.1831,1,503,854,712
255634727,42603,-0.0737,-0.1182,1.0146,-0.0610,0.2441,-0.1831,1,493,869,712
255639725,42604,-0.0747,-0.1187,1.0142,-0.0610,0.3052,-0.1831,1,484,853,712
255644731,42605,-0.0762,-0.1187,1.0146,-0.0610,0.2441,-0.1831,1,487,835,712
255649725,42606,-0.0762,-0.1182,1.0146,0.0000,0.1831,-0.2441,1,493,841,712
255654730,42607,-0.0747,-0.1182,1.0146,0.0000,0.2441,-0.1221,1,479,832,712
255659730,42608,-0.0737,-0.1182,1.0151,-0.0610,0.1831,-0.1831,1,480,815,712
255664733,42609,-0.0742,-0.1182,1.0151,0.1221,0.1221,-0.1831,1,465,864,712
255669731,42610,-0.0747,-0.1187,1.0146,0.1221,0.2441,-0.2441,1,482,859,712
255674733,42611,-0.0742,-0.1187,1.0137,0.0000,0.0610,-0.2441,1,466,864,712
255679732,42612,-0.0742,-0.1196,1.0132,0.0610,0.1221,-0.2441,1,466,832,712
255684731,42613,-0.0737,-0.1196,1.0142,0.0000,0.1831,-0.1831,1,466,878,712
255689728,42614,-0.0732,-0.1191,1.0151,0.0000,0.2441,-0.3052,1,466,840,712
255694733,42615,-0.0742,-0.1182,1.0151,-0.0610,0.1831,-0.2441,1,465,837,712
255699748,42616,-0.0742,-0.1172,1.0142,0.0000,0.1221,-0.1831,1,466,882,712
255704729,42617,-0.0742,-0.1167,1.0146,0.1221,0.0610,-0.2441,1,466,830,712
255709725,42618,-0.0752,-0.1177,1.0156,0.0610,0.0610,-0.3052,1,494,878,712
255714729,42619,-0.0752,-0.1187,1.0156,0.0000,0.0610,-0.3662,1,494,869,712
255719729,42620,-0.0737,-0.1182,1.0137,-0.0610,0.1221,-0.3052,1,466,812,712
255724749,42621,-0.0728,-0.1177,1.0127,-0.0610,0.2441,-0.3052,1,481,852,712
255729727,42622,-0.0728,-0.1172,1.0132,-0.1221,0.3052,-0.2441,1,491,844,712
255734725,42623,-0.0737,-0.1162,1.0142,-0.1221,0.2441,-0.3662,1,479,852,712
255739731,42624,-0.0737,-0.1182,1.0142,-0.0610,0.1831,-0.2441,1,491,842,712
255744729,42625,-0.0732,-0.1191,1.0146,0.0000,0.3052,-0.3052,1,493,850,712
255749727,42626,-0.0742,-0.1191,1.0151,-0.0610,0.3052,-0.1831,1,496,791,712
255754726,42627,-0.0747,-0.1182,1.0156,-0.1221,0.3052,-0.1831,1,506,840,712
255759729,42628,-0.0752,-0.1172,1.0151,-0.0610,0.3052,-0.1831,1,465,874,712
255764733,42629,-0.0747,-0.1172,1.0146,0.0000,0.2441,-0.2441,1,465,857,712
255769733,42630,-0.0723,-0.1177,1.0146,-0.1221,0.3052,-0.1831,1,465,820,712
255774730,42631,-0.0713,-0.1177,1.0151,0.0000,0.2441,-0.2441,1,484,857,712
255779732,42632,-0.0718,-0.1191,1.0146,0.0000,0.3662,-0.3052,1,466,836,712
255784727,42633,-0.0732,-0.1196,1.0142,-0.0610,0.3662,-0.2441,1,466,833,712
255789728,42634,-0.0747,-0.1182,1.0142,0.0000,0.1831,-0.1831,1,466,884,712
255794728,42635,-0.0757,-0.1172,1.0137,-0.0610,0.2441,-0.3052,1,466,836,712
255799731,42636,-0.0752,-0.1172,1.0132,-0.1221,0.1831,-0.3052,1,465,873,712
255804725,42637,-0.0752,-0.1182,1.0156,0.0000,0.1221,-0.2441,1,466,870,712
255809731,42638,-0.0752,-0.1177,1.0161,0.0000,0.1221,-0.2441,1,466,831,712
255814727,42639,-0.0747,-0.1177,1.0146,-0.1221,0.1221,-0.2441,1,466,762,712
255819726,42640,-0.0742,-0.1187,1.0127,0.0610,0.0610,-0.2441,1,494,878,712
255824732,42641,-0.0737,-0.1191,1.0127,0.0610,-0.0610,-0.3052,1,464,821,712
255829730,42642,-0.0728,-0.1196,1.0137,-0.0610,-0.1221,-0.2441,1,483,845,712
255834730,42643,-0.0718,-0.1201,1.0142,-0.0610,0.1221,-0.3662,1,495,848,712
255839733,42644,-0.0732,-0.1201,1.0146,0.0610,0.0610,-0.3662,1,486,833,712
255844726,42645,-0.0732,-0.1187,1.0161,0.0610,0.0000,-0.1831,1,496,785,712
255849729,42646,-0.0728,-0.1187,1.0161,0.0000,0.1221,-0.3052,1,487,795,712
255854731,42647,-0.0723,-0.1182,1.0146,0.0000,0.0000,-0.3052,1,495,786,712
255859733,42648,-0.0723,-0.1182,1.0132,0.0000,0.0000,-0.2441,1,472,762,712
255864731,42649,-0.0732,-0.1191,1.0127,-0.1221,-0.0610,-0.3662,1,474,766,712
255869726,42650,-0.0742,-0.1187,1.0137,-0.0610,-0.0610,-0.3052,1,482,861,712
255874728,42651,-0.0742,-0.1172,1.0156,-0.0610,-0.0610,-0.3662,1,484,854,712
255879728,42652,-0.0732,-0.1177,1.0161,0.0610,-0.0610,-0.3052,1,466,879,712
255884725,42653,-0.0732,-0.1182,1.0161,0.1831,-0.0610,-0.1831,1,466,873,712
255889726,42654,-0.0732,-0.1177,1.0171,0.1221,-0.0610,-0.1831,1,466,884,712
255894731,42655,-0.0728,-0.1177,1.0176,0.0000,0.0000,-0.3052,1,466,875,712
255899729,42656,-0.0723,-0.1191,1.0171,-0.0610,0.0000,-0.3052,1,466,779,712
255904733,42657,-0.0732,-0.1206,1.0161,-0.0610,0.0000,-0.4272,1,466,825,712
255909730,42658,-0.0732,-0.1196,1.0146,0.0610,0.1831,-0.2441,1,466,835,712
255914728,42659,-0.0723,-0.1191,1.0132,-0.0610,0.0610,-0.3662,1,465,885,712
255919727,42660,-0.0713,-0.1187,1.0127,-0.0610,0.0610,-0.3052,1,494,876,712
255924734,42661,-0.0718,-0.1182,1.0127,0.1221,0.2441,-0.2441,1,464,850,712
255929734,42662,-0.0737,-0.1172,1.0137,-0.0610,0.3052,-0.3052,1,483,848,712
255934732,42663,-0.0742,-0.1162,1.0151,-0.1221,0.3052,-0.3052,1,492,841,712
255939729,42664,-0.0732,-0.1162,1.0166,0.0610,0.1831,-0.2441,1,484,834,712
255944733,42665,-0.0732,-0.1182,1.0166,0.0000,0.2441,-0.3052,1,496,845,712
255949728,42666,-0.0732,-0.1196,1.0161,-0.1221,0.2441,-0.2441,1,500,793,712
255954734,42667,-0.0728,-0.1191,1.0161,-0.1221,0.1831,-0.1221,1,493,845,712
255959733,42668,-0.0718,-0.1187,1.0156,0.0610,0.3052,-0.1831,1,465,866,712
255964726,42669,-0.0718,-0.1182,1.0156,-0.0610,0.3052,-0.1831,1,469,871,712
255969728,42670,-0.0732,-0.1182,1.0146,-0.1221,0.4883,-0.1221,1,482,856,712
255974726,42671,-0.0742,-0.1177,1.0142,-0.1831,0.4272,-0.3052,1,478,856,712
255979732,42672,-0.0747,-0.1177,1.0142,-0.2441,0.3052,-0.2441,1,484,859,712
255984727,42673,-0.0747,-0.1177,1.0142,-0.1221,0.2441,-0.2441,1,466,878,712
255989725,42674,-0.0747,-0.1177,1.0151,-0.0610,0.1831,-0.1831,1,466,880,712
255994730,42675,-0.0737,-0.1177,1.0156,-0.0610,0.2441,-0.1831,1,466,883,712
255999730,42676,-0.0737,-0.1177,1.0146,-0.1221,0.2441,-0.1221,1,466,882,712
256004742,42677,-0.0742,-0.1182,1.0137,0.0000,0.1831,-0.1831,1,466,878,712
256009733,42678,-0.0732,-0.1182,1.0132,0.0610,0.0610,-0.3052,1,466,835,712
256014726,42679,-0.0718,-0.1182,1.0132,-0.0610,0.0610,-0.1831,1,493,871,712
256019726,42680,-0.0713,-0.1182,1.0137,-0.1831,0.1831,-0.3052,1,481,872,712
256024731,42681,-0.0728,-0.1191,1.0137,0.0000,0.1831,-0.2441,1,464,802,712
256029748,42682,-0.0742,-0.1196,1.0142,0.0610,0.3052,-0.1831,1,469,808,712
256034728,42683,-0.0747,-0.1191,1.0151,0.0000,0.1831,-0.2441,1,485,847,712
256039727,42684,-0.0737,-0.1196,1.0166,0.0000,0.1831,-0.3662,1,491,828,712
256044727,42685,-0.0723,-0.1191,1.0166,-0.0610,0.1831,-0.4272,1,505,746,712
256049729,42686,-0.0723,-0.1182,1.0156,-0.1221,0.2441,-0.2441,1,491,851,712
256054726,42687,-0.0723,-0.1167,1.0156,-0.1221,0.2441,-0.1221,1,492,840,712
256059727,42688,-0.0728,-0.1167,1.0146,-0.2441,0.1831,-0.2441,1,502,835,712
256064733,42689,-0.0732,-0.1177,1.0146,-0.1221,0.1831,-0.3052,1,478,882,712
256069730,42690,-0.0732,-0.1182,1.0142,-0.0610,0.1831,-0.2441,1,475,874,712
256074730,42691,-0.0728,-0.1177,1.0146,0.0000,0.2441,-0.3052,1,482,862,712
256079726,42692,-0.0728,-0.1177,1.0151,-0.0610,0.2441,-0.3052,1,478,813,712
256084731,42693,-0.0732,-0.1182,1.0161,-0.0610,0.2441,-0.3052,1,466,857,712
256089729,42694,-0.0737,-0.1187,1.0161,-0.2441,0.2441,-0.2441,1,466,877,712
256094732,42695,-0.0742,-0.1182,1.0156,-0.1831,0.1831,-0.1831,1,466,888,712
256099730,42696,-0.0732,-0.1177,1.0146,-0.1831,0.2441,-0.2441,1,466,886,712
256104729,42697,-0.0723,-0.1172,1.0137,-0.1831,0.3052,-0.2441,1,466,887,712
256109737,42698,-0.0732,-0.1177,1.0137,-0.1221,0.2441,-0.3052,1,466,877,712
256114726,42699,-0.0732,-0.1187,1.0146,-0.1221,0.2441,-0.1831,1,466,876,712
256119730,42700,-0.0728,-0.1191,1.0151,-0.1221,0.1831,-0.2441,1,493,882,712
256124727,42701,-0.0723,-0.1187,1.0142,-0.1831,0.3052,-0.2441,1,483,882,712
256129725,42702,-0.0732,-0.1177,1.0137,0.0000,0.3052,-0.1221,1,494,876,712
256134729,42703,-0.0737,-0.1177,1.0142,-0.1221,0.3052,-0.1831,1,480,797,712
256139729,42704,-0.0737,-0.1187,1.0142,-0.1221,0.3052,-0.2441,1,492,845,712
256144730,42705,-0.0728,-0.1191,1.0137,-0.1831,0.2441,-0.3052,1,476,855,712
256149731,42706,-0.0723,-0.1182,1.0142,-0.1221,0.3052,-0.2441,1,510,840,712
256154733,42707,-0.0723,-0.1187,1.0156,0.0000,0.1831,-0.1831,1,473,883,712
256159733,42708,-0.0723,-0.1191,1.0161,-0.0610,0.1831,-0.2441,1,493,795,712
256164725,42709,-0.0718,-0.1187,1.0156,-0.0610,0.1221,-0.2441,1,504,844,712
256169725,42710,-0.0723,-0.1182,1.0137,-0.1831,0.2441,-0.4272,1,467,874,712
256174731,42711,-0.0737,-0.1187,1.0127,-0.1831,0.2441,-0.1831,1,472,863,712
256179725,42712,-0.0742,-0.1187,1.0127,-0.0610,0.3662,-0.1831,1,470,867,712
256184727,42713,-0.0737,-0.1172,1.0146,-0.0610,0.3052,-0.1831,1,483,862,712
256189726,42714,-0.0718,-0.1167,1.0161,-0.1221,0.2441,-0.1221,1,466,877,712
256194731,42715,-0.0713,-0.1172,1.0151,-0.1221,0.3052,-0.1221,1,466,874,712
256199733,42716,-0.0713,-0.1182,1.0132,-0.1831,0.2441,-0.2441,1,466,870,712
256204725,42717,-0.0713,-0.1191,1.0137,-0.1221,0.3662,-0.1831,1,466,882,712
256209731,42718,-0.0728,-0.1191,1.0151,-0.0610,0.3662,-0.1221,1,466,880,712
256214759,42719,-0.0747,-0.1196,1.0151,-0.1221,0.3052,-0.1221,1,466,879,712
256219725,42720,-0.0752,-0.1191,1.0142,-0.1221,0.3052,-0.2441,1,466,878,712
256224729,42721,-0.0747,-0.1182,1.0146,-0.1221,0.3662,-0.2441,1,466,873,712
256229729,42722,-0.0737,-0.1172,1.0161,-0.0610,0.3662,-0.3052,1,472,881,712
256234725,42723,-0.0728,-0.1167,1.0156,0.0000,0.2441,-0.1221,1,494,805,712
256239726,42724,-0.0728,-0.1172,1.0146,-0.1221,0.1831,-0.2441,1,476,803,712
256244734,42725,-0.0737,-0.1172,1.0142,-0.0610,0.3052,-0.3052,1,507,850,712
256249731,42726,-0.0747,-0.1182,1.0132,0.0000,0.3052,-0.2441,1,491,850,712
256254727,42727,-0.0757,-0.1191,1.0127,0.0000,0.1831,-0.2441,1,507,856,712
256259728,42728,-0.0747,-0.1187,1.0132,0.0610,0.2441,-0.2441,1,494,797,712
256264733,42729,-0.0732,-0.1177,1.0142,0.0000,0.1831,-0.2441,1,499,841,712
256269728,42730,-0.0732,-0.1172,1.0151,0.0000,0.1831,-0.1831,1,465,832,712
256274731,42731,-0.0737,-0.1182,1.0151,-0.0610,0.3662,-0.2441,1,474,818,712
256279728,42732,-0.0737,-0.1196,1.0142,-0.0610,0.3052,-0.0610,1,477,864,712
256284728,42733,-0.0737,-0.1196,1.0142,-0.1221,0.1831,-0.2441,1,480,856,712
256289732,42734,-0.0732,-0.1182,1.0142,-0.2441,0.2441,-0.3662,1,466,864,712
256294729,42735,-0.0718,-0.1182,1.0151,-0.0610,0.3052,-0.1221,1,466,885,712
256299730,42736,-0.0723,-0.1191,1.0156,-0.1221,0.3662,-0.2441,1,466,870,712
256304725,42737,-0.0732,-0.1187,1.0161,-0.1221,0.5493,-0.4272,1,466,882,712
256309732,42738,-0.0737,-0.1187,1.0161,-0.1221,0.4272,-0.2441,1,466,882,712
256314739,42739,-0.0732,-0.1182,1.0151,0.0000,0.3662,-0.1221,1,466,882,712
256319727,42740,-0.0723,-0.1182,1.0151,0.0000,0.3662,-0.2441,1,466,833,712
256324725,42741,-0.0723,-0.1187,1.0156,-0.0610,0.4883,-0.3052,1,493,836,712
256329729,42742,-0.0728,-0.1191,1.0151,-0.1221,0.5493,-0.2441,1,466,871,712
256334732,42743,-0.0732,-0.1182,1.0142,-0.1221,0.5493,-0.3052,1,494,882,712
256339751,42744,-0.0737,-0.1172,1.0142,-0.1221,0.5493,-0.3052,1,467,855,712
256344733,42745,-0.0732,-0.1172,1.0146,0.0610,0.6104,-0.2441,1,483,845,712
256349728,42746,-0.0732,-0.1177,1.0146,-0.1221,0.4883,-0.1831,1,508,849,712
256354726,42747,-0.0737,-0.1177,1.0146,-0.1831,0.6714,-0.1221,1,499,839,712
256359728,42748,-0.0728,-0.1182,1.0146,-0.2441,0.4883,-0.3052,1,481,877,712
256364727,42749,-0.0737,-0.1196,1.0137,-0.2441,0.7324,-0.1831,1,489,837,712
256369733,42750,-0.0742,-0.1196,1.0137,-0.1831,0.7324,-0.1831,1,504,846,712
256374730,42751,-0.0742,-0.1187,1.0137,-0.1831,0.5493,-0.1221,1,477,883,712
256379727,42752,-0.0762,-0.1172,1.0122,-0.2441,0.6104,-0.1831,1,482,877,712
256384732,42753,-0.0791,-0.1172,1.0122,-0.1221,0.4883,-0.1831,1,466,861,712
256389729,42754,-0.0776,-0.1191,1.0142,-0.0610,0.3052,-0.2441,1,478,861,712
256394728,42755,-0.0747,-0.1191,1.0161,-0.0610,0.3052,-0.1831,1,465,861,712
256399730,42756,-0.0732,-0.1177,1.0171,0.0000,0.3052,-0.1831,1,466,881,712
256404726,42757,-0.0752,-0.1177,1.0151,-0.0610,0.3662,-0.1831,1,466,829,712
256409729,42758,-0.0757,-0.1187,1.0142,-0.1831,0.1831,-0.2441,1,466,881,712
256414732,42759,-0.0737,-0.1187,1.0146,-0.1221,0.1221,-0.2441,1,466,881,712
256419732,42760,-0.0723,-0.1187,1.0151,-0.1221,0.1831,-0.1831,1,466,879,712
256424754,42761,-0.0737,-0.1187,1.0151,-0.0610,0.1221,-0.3052,1,466,880,712
256429731,42762,-0.0742,-0.1187,1.0146,0.0000,0.1831,-0.3052,1,466,873,712
256434727,42763,-0.0728,-0.1182,1.0151,-0.1221,0.2441,-0.2441,1,493,833,712
256439728,42764,-0.0723,-0.1177,1.0156,-0.1831,0.2441,-0.3662,1,494,879,712
256444737,42765,-0.0732,-0.1182,1.0156,-0.1221,0.1831,-0.3662,1,466,827,712
256449730,42766,-0.0742,-0.1187,1.0156,-0.1221,0.1221,-0.2441,1,483,862,712
256454727,42767,-0.0737,-0.1187,1.0151,-0.1221,0.2441,-0.2441,1,497,848,712
256459727,42768,-0.0728,-0.1187,1.0142,-0.1831,0.2441,-0.1831,1,491,843,712
256464727,42769,-0.0728,-0.1187,1.0142,-0.1831,0.2441,-0.2441,1,493,843,712
256469730,42770,-0.0742,-0.1177,1.0146,-0.1831,0.3052,-0.1221,1,505,880,712
256474731,42771,-0.0752,-0.1177,1.0156,-0.1221,0.1831,0.0000,1,493,837,712
256479726,42772,-0.0742,-0.1191,1.0156,-0.1221,0.3662,-0.0610,1,474,828,712
256484725,42773,-0.0732,-0.1196,1.0142,-0.1831,0.3662,-0.1831,1,465,862,712
256489727,42774,-0.0737,-0.1191,1.0132,-0.2441,0.3052,-0.2441,1,469,869,712
256494734,42775,-0.0752,-0.1182,1.0142,-0.2441,0.2441,-0.3052,1,484,863,712
256499731,42776,-0.0752,-0.1172,1.0161,-0.1831,0.1831,-0.1831,1,466,858,712
256504726,42777,-0.0747,-0.1167,1.0171,-0.3052,0.2441,-0.1831,1,466,884,712
256509726,42778,-0.0757,-0.1172,1.0156,-0.3662,0.3052,-0.1831,1,466,878,712
256514730,42779,-0.0752,-0.1182,1.0137,-0.2441,0.1831,-0.1831,1,466,879,712
256519733,42780,-0.0742,-0.1191,1.0132,-0.1221,0.2441,-0.1831,1,465,883,712
256524747,42781,-0.0728,-0.1206,1.0142,-0.2441,0.2441,-0.1831,1,466,883,712
256529727,42782,-0.0732,-0.1191,1.0137,-0.1831,0.2441,-0.2441,1,466,883,712
256534731,42783,-0.0742,-0.1172,1.0132,-0.1221,0.2441,-0.1221,1,466,888,712
256539726,42784,-0.0742,-0.1167,1.0132,-0.1831,0.1831,-0.1221,1,466,873,712
256544726,42785,-0.0732,-0.1172,1.0132,-0.1831,0.2441,-0.1831,1,493,879,712
256549742,42786,-0.0732,-0.1182,1.0142,-0.2441,0.3052,-0.1221,1,471,835,712
256554726,42787,-0.0742,-0.1187,1.0151,-0.1831,0.3662,-0.2441,1,483,818,712
256559726,42788,-0.0737,-0.1182,1.0151,-0.1831,0.3052,-0.1221,1,507,859,712
256564732,42789,-0.0728,-0.1172,1.0151,-0.1221,0.1221,-0.1831,1,487,837,712
256569733,42790,-0.0728,-0.1177,1.0151,-0.1221,0.3052,-0.2441,1,508,835,712
256574728,42791,-0.0732,-0.1196,1.0142,-0.0610,0.3052,-0.1831,1,496,872,712
256579725,42792,-0.0737,-0.1201,1.0142,-0.1221,0.3052,-0.2441,1,504,838,712
256584730,42793,-0.0732,-0.1187,1.0151,-0.1831,0.3662,-0.1831,1,467,863,712
256589731,42794,-0.0732,-0.1187,1.0161,-0.1221,0.4883,-0.2441,1,470,839,712
256594725,42795,-0.0737,-0.1187,1.0156,-0.1221,0.4883,-0.2441,1,477,861,712
256599725,42796,-0.0742,-0.1196,1.0151,-0.1831,0.4883,-0.1831,1,484,860,712
256604733,42797,-0.0747,-0.1196,1.0151,-0.1831,0.4883,-0.1831,1,466,869,712
256609732,42798,-0.0742,-0.1191,1.0146,-0.1221,0.3052,-0.1221,1,466,887,712
256614728,42799,-0.0732,-0.1191,1.0146,-0.2441,0.4272,-0.0610,1,466,875,712
256619726,42800,-0.0737,-0.1191,1.0142,-0.1221,0.5493,-0.2441,1,466,885,712
256624725,42801,-0.0742,-0.1182,1.0146,-0.2441,0.6104,-0.1831,1,466,882,712
256629737,42802,-0.0737,-0.1167,1.0156,-0.1831,0.6104,-0.1221,1,465,882,712
256634728,42803,-0.0742,-0.1187,1.0151,-0.3052,0.6104,-0.2441,1,466,878,712
256639725,42804,-0.0737,-0.1201,1.0142,-0.2441,0.6714,-0.1831,1,493,877,712
256644725,42805,-0.0723,-0.1196,1.0137,-0.1221,0.7324,-0.1221,1,490,883,712
256649729,42806,-0.0723,-0.1201,1.0137,-0.2441,0.6714,-0.0610,1,466,827,712
256654731,42807,-0.0732,-0.1230,1.0137,-0.1221,0.6714,0.0610,1,485,847,712
256659726,42808,-0.0728,-0.1230,1.0142,0.0000,0.7324,-0.0610,1,493,846,712
256664732,42809,-0.0728,-0.1206,1.0137,-0.0610,0.7324,-0.1221,1,478,800,712
256669733,42810,-0.0747,-0.1177,1.0142,-0.0610,0.7935,0.0610,1,501,787,712
256674725,42811,-0.0757,-0.1143,1.0166,-0.1831,0.8545,-0.0610,1,490,884,712
256679729,42812,-0.0747,-0.1152,1.0161,-0.1831,0.8545,-0.0610,1,501,838,712
256684725,42813,-0.0737,-0.1182,1.0142,-0.2441,0.7935,0.0610,1,508,851,712
256689729,42814,-0.0737,-0.1201,1.0117,-0.1221,0.6714,0.0610,1,465,876,712
256694725,42815,-0.0752,-0.1196,1.0117,0.0000,0.7935,0.0000,1,466,857,712
256699730,42816,-0.0757,-0.1182,1.0137,-0.1221,0.6104,-0.0610,1,469,770,712
256704728,42817,-0.0742,-0.1191,1.0142,-0.2441,0.7324,-0.1831,1,483,850,712
256709728,42818,-0.0718,-0.1206,1.0151,-0.1221,0.6714,-0.1221,1,466,886,712
256714734,42819,-0.0708,-0.1196,1.0161,-0.1221,0.7324,-0.1831,1,466,871,712
256719727,42820,-0.0718,-0.1187,1.0151,-0.1221,0.7324,-0.0610,1,466,883,712
256724725,42821,-0.0732,-0.1177,1.0142,-0.1831,0.7324,-0.0610,1,466,877,712
256729727,42822,-0.0747,-0.1182,1.0137,-0.1831,0.7935,0.0610,1,466,881,712
256734731,42823,-0.0742,-0.1191,1.0137,-0.0610,0.7935,-0.0610,1,465,879,712
256739731,42824,-0.0737,-0.1201,1.0132,-0.1221,0.8545,-0.1831,1,465,878,712
256744728,42825,-0.0747,-0.1201,1.0127,-0.1831,0.8545,-0.0610,1,492,877,712
256749728,42826,-0.0762,-0.1196,1.0142,-0.0610,0.7324,0.0000,1,466,878,712
256754726,42827,-0.0762,-0.1191,1.0156,0.0000,0.7324,0.0000,1,494,765,712
256759725,42828,-0.0742,-0.1196,1.0156,-0.0610,0.8545,-0.1221,1,486,759,712
256764728,42829,-0.0742,-0.1196,1.0151,-0.1221,0.8545,0.0000,1,492,857,712
256769729,42830,-0.0757,-0.1191,1.0132,-0.0610,0.9155,-0.0610,1,491,794,712
256774729,42831,-0.0771,-0.1201,1.0122,-0.1221,0.9155,-0.1221,1,497,836,712
256779725,42832,-0.0786,-0.1211,1.0117,0.0610,0.6104,-0.1831,1,484,847,712
256784725,42833,-0.0796,-0.1211,1.0112,0.0000,0.4883,-0.1831,1,496,835,712
256789726,42834,-0.0796,-0.1201,1.0107,-0.0610,0.3662,-0.2441,1,499,792,712
256794730,42835,-0.0771,-0.1191,1.0117,0.0610,0.3662,-0.1831,1,503,840,712
256799729,42836,-0.0757,-0.1182,1.0127,0.1831,0.1831,-0.2441,1,474,838,712
256804733,42837,-0.0762,-0.1167,1.0132,0.1831,0.1221,-0.1221,1,477,863,712
256809727,42838,-0.0767,-0.1157,1.0142,0.1831,0.1831,-0.2441,1,471,853,712
256814731,42839,-0.0767,-0.1167,1.0146,0.0000,0.1221,-0.1831,1,484,865,712
256819731,42840,-0.0767,-0.1182,1.0137,0.0000,0.1221,-0.1831,1,466,832,712
256824731,42841,-0.0762,-0.1187,1.0127,0.0000,0.1221,-0.3052,1,466,829,712
256829731,42842,-0.0752,-0.1187,1.0142,0.0610,0.2441,-0.2441,1,465,824,712
256834728,42843,-0.0742,-0.1177,1.0166,0.0000,0.2441,-0.1831,1,466,877,712
256839725,42844,-0.0737,-0.1162,1.0166,0.0000,0.3052,-0.1221,1,466,838,712
256844758,42845,-0.0742,-0.1167,1.0151,0.1221,0.3052,-0.1831,1,466,833,712
256849728,42846,-0.0757,-0.1182,1.0142,0.0000,0.3052,-0.1831,1,466,876,712
256854730,42847,-0.0762,-0.1182,1.0142,-0.0610,0.1831,-0.2441,1,466,750,712
256859728,42848,-0.0747,-0.1196,1.0151,-0.0610,0.1831,-0.3052,1,494,876,712
256864736,42849,-0.0732,-0.1196,1.0156,0.0610,0.4883,-0.0610,1,493,772,712
256869728,42850,-0.0732,-0.1177,1.0156,0.0000,0.4272,-0.1831,1,486,858,712
256874728,42851,-0.0732,-0.1162,1.0156,-0.0610,0.3662,-0.1221,1,504,798,712
256879729,42852,-0.0732,-0.1177,1.0156,-0.0610,0.5493,-0.1831,1,496,840,712
256884725,42853,-0.0728,-0.1206,1.0156,0.0610,0.3662,-0.1831,1,485,851,712
256889731,42854,-0.0737,-0.1211,1.0151,0.0000,0.4883,-0.1221,1,496,892,712
256894733,42855,-0.0757,-0.1196,1.0137,0.0000,0.3662,-0.1221,1,492,789,712
256899728,42856,-0.0767,-0.1177,1.0132,0.0000,0.4272,-0.1221,1,493,800,712
256904732,42857,-0.0762,-0.1162,1.0122,0.1221,0.5493,-0.1831,1,474,810,712
256909726,42858,-0.0752,-0.1157,1.0132,0.1221,0.4883,-0.1831,1,476,864,712
256914729,42859,-0.0742,-0.1172,1.0151,0.0000,0.5493,-0.1831,1,478,858,712
256919725,42860,-0.0747,-0.1187,1.0156,-0.0610,0.4272,-0.1831,1,483,821,712
256924730,42861,-0.0771,-0.1182,1.0137,0.0610,-0.0610,-0.0610,1,466,882,712
256929725,42862,-0.0732,-0.1191,1.0151,0.1221,0.0000,-0.1831,1,466,873,712
256934727,42863,-0.0728,-0.1196,1.0151,0.3052,0.8545,-0.2441,1,466,836,712
256939728,42864,-0.0771,-0.1172,1.0122,0.3662,0.2441,-0.3052,1,466,879,712
256944732,42865,-0.0757,-0.1162,1.0137,0.1221,0.1831,-0.2441,1,466,883,712
256949752,42866,-0.0747,-0.1167,1.0137,0.2441,0.4272,-0.1831,1,466,880,712
256954730,42867,-0.0752,-0.1182,1.0117,0.2441,0.3052,-0.3052,1,466,883,712
256959733,42868,-0.0771,-0.1196,1.0112,0.1831,0.3662,-0.1831,1,466,872,712
256964730,42869,-0.0771,-0.1191,1.0132,0.3052,0.1221,-0.1831,1,490,889,712
256969725,42870,-0.0752,-0.1177,1.0156,0.2441,0.1221,-0.2441,1,494,814,712
256974729,42871,-0.0747,-0.1177,1.0156,0.2441,0.0610,-0.1831,1,487,873,712
256979732,42872,-0.0786,-0.1177,1.0112,0.1831,-0.0610,-0.1831,1,494,853,712
256984727,42873,-0.0801,-0.1182,1.0117,0.3052,-0.3662,-0.3052,1,477,843,712
256989733,42874,-0.0713,-0.1172,1.0190,0.1831,-0.3052,-0.2441,1,491,789,712
256994731,42875,-0.0674,-0.1177,1.0220,0.0000,0.4272,-0.3052,1,492,903,712
256999728,42876,-0.0732,-0.1187,1.0181,0.2441,0.3052,-0.2441,1,491,797,712
257004730,42877,-0.0767,-0.1182,1.0146,0.1831,0.2441,-0.1831,1,497,845,712
257009725,42878,-0.0786,-0.1172,1.0117,0.1831,0.1831,-0.3052,1,474,871,712
257014731,42879,-0.0781,-0.1177,1.0103,0.1831,-0.0610,-0.3662,1,480,863,712
257019731,42880,-0.0752,-0.1201,1.0122,0.2441,-0.1221,-0.3662,1,477,860,712
257024731,42881,-0.0742,-0.1196,1.0132,0.2441,0.0000,-0.3052,1,483,863,712
257029726,42882,-0.0747,-0.1172,1.0142,0.1831,-0.0610,-0.3052,1,465,833,712
257034731,42883,-0.0752,-0.1157,1.0146,0.2441,0.0000,-0.1831,1,466,874,712
257039728,42884,-0.0737,-0.1162,1.0156,0.1831,-0.1831,-0.2441,1,466,838,712
257044732,42885,-0.0723,-0.1191,1.0161,0.2441,0.0610,-0.1831,1,466,890,712
257049728,42886,-0.0737,-0.1201,1.0151,0.2441,0.2441,-0.1221,1,466,884,712
257054733,42887,-0.0737,-0.1182,1.0166,0.1831,0.1221,-0.1831,1,466,884,712
257059727,42888,-0.0732,-0.1177,1.0190,0.1831,0.3662,-0.3662,1,466,881,712
257064728,42889,-0.0747,-0.1177,1.0190,0.1221,0.4883,-0.4883,1,493,885,712
257069732,42890,-0.0742,-0.1167,1.0176,0.1221,0.4883,-0.2441,1,466,873,712
257074727,42891,-0.0732,-0.1152,1.0176,0.1221,0.5493,-0.2441,1,493,875,712
257079733,42892,-0.0718,-0.1162,1.0181,0.1831,0.6104,-0.2441,1,468,826,712
257084727,42893,-0.0713,-0.1182,1.0195,0.3662,0.6714,-0.1221,1,477,847,712
257089731,42894,-0.0713,-0.1187,1.0200,0.1221,0.7935,-0.1831,1,489,836,712
257094725,42895,-0.0713,-0.1177,1.0190,0.1221,1.0376,-0.1831,1,494,778,712
257099726,42896,-0.0747,-0.1172,1.0166,0.0610,1.1597,-0.1221,1,483,873,712
257104726,42897,-0.0776,-0.1177,1.0142,0.0610,1.0376,-0.0610,1,490,836,712
257109733,42898,-0.0786,-0.1191,1.0127,0.0000,0.8545,-0.1831,1,496,842,712
257114733,42899,-0.0791,-0.1206,1.0103,0.1831,0.8545,-0.2441,1,465,816,712
257119733,42900,-0.0835,-0.1206,1.0059,0.4883,0.6104,-0.3052,1,472,863,712
257124728,42901,-0.0884,-0.1206,1.0029,0.6104,0.0610,-0.4272,1,477,849,712
257129731,42902,-0.0879,-0.1206,1.0029,0.7324,-0.4883,-0.4883,1,483,856,712
257134733,42903,-0.0845,-0.1216,1.0063,0.9155,-0.7324,-0.5493,1,466,877,712
257139725,42904,-0.0811,-0.1211,1.0093,1.0376,-0.9766,-0.5493,1,466,881,712
257144726,42905,-0.0806,-0.1196,1.0088,1.1597,-1.3428,-0.6104,1,466,870,712
257149729,42906,-0.0820,-0.1187,1.0083,1.3428,-1.5259,-0.7324,1,466,874,712
257154730,42907,-0.0820,-0.1187,1.0112,1.3428,-1.7700,-0.9155,1,466,881,712
257159744,42908,-0.0767,-0.1177,1.0161,1.2817,-1.7700,-0.9155,1,466,881,712
257164731,42909,-0.0708,-0.1162,1.0205,1.2817,-1.7700,-0.7935,1,466,883,712
257169725,42910,-0.0693,-0.1152,1.0210,1.1597,-1.6479,-0.7324,1,466,882,712
257174730,42911,-0.0708,-0.1152,1.0190,1.0376,-1.4038,-0.6714,1,466,884,712
257179733,42912,-0.0713,-0.1157,1.0200,0.7935,-1.5259,-0.6104,1,494,878,712
257184731,42913,-0.0688,-0.1143,1.0225,0.7324,-1.2817,-0.4883,1,467,856,712
257189729,42914,-0.0654,-0.1104,1.0254,0.4883,-0.7935,-0.4272,1,483,864,712
257194731,42915,-0.0664,-0.1108,1.0234,0.1221,-0.1831,-0.4272,1,490,846,712
257199726,42916,-0.0688,-0.1162,1.0195,0.3052,-0.0610,-0.3052,1,510,843,712
257204725,42917,-0.0625,-0.1177,1.0239,-0.0610,1.1597,-0.3052,1,479,874,712
257209732,42918,-0.0635,-0.1211,1.0210,0.3052,1.9531,-0.2441,1,508,835,712
257214726,42919,-0.0640,-0.1211,1.0205,0.4883,2.6245,-0.1221,1,504,834,712
257219727,42920,-0.0620,-0.1196,1.0254,0.6714,3.6621,-0.0610,1,465,872,712
257224727,42921,-0.0654,-0.1221,1.0215,0.9766,4.5776,-0.0610,1,466,864,712
257229729,42922,-0.0752,-0.1226,1.0107,1.3428,5.0049,-0.1831,1,469,860,712
257234733,42923,-0.0786,-0.1230,1.0078,1.5259,5.2490,-0.1221,1,484,859,712
257239729,42924,-0.0776,-0.1265,1.0103,2.0142,5.9814,-0.2441,1,466,863,712
257244730,42925,-0.0811,-0.1279,1.0083,2.8076,5.9204,-0.3662,1,466,883,712
257249727,42926,-0.0889,-0.1265,1.0015,3.3569,5.4932,-0.5493,1,466,885,712
257254733,42927,-0.0918,-0.1240,0.9990,3.9062,4.9438,-0.8545,1,466,882,712
257259731,42928,-0.0859,-0.1206,1.0029,4.4556,5.1270,-0.7935,1,466,883,712
257264728,42929,-0.0801,-0.1157,1.0059,4.8218,5.8594,-0.6714,1,465,884,712
257269752,42930,-0.0811,-0.1089,1.0029,4.8218,6.4697,-0.5493,1,466,874,712
257274726,42931,-0.0806,-0.0952,1.0024,4.6387,7.0801,-0.7324,1,466,879,712
257279730,42932,-0.0815,-0.0913,1.0020,4.2725,8.9111,-1.4038,1,493,874,712
257284725,42933,-0.1172,-0.1138,0.9834,4.9438,10.1929,-2.0752,1,490,883,712
257289748,42934,-0.1729,-0.1206,0.9536,5.4321,6.5918,-1.6479,1,466,823,712
257294734,42935,-0.1997,-0.0962,0.9429,4.1504,1.8311,-1.8311,1,491,816,712
257299732,42936,-0.2007,-0.0767,0.9517,2.1973,-2.0752,-1.8921,1,506,844,712
257304725,42937,-0.2036,-0.0679,0.9541,1.8311,-7.2021,-2.3804,1,495,832,712
257309728,42938,-0.1963,-0.0752,0.9565,0.2441,-12.6343,-2.9297,1,490,850,712
257314733,42939,-0.1660,-0.0996,0.9795,-0.8545,-16.9678,-2.8687,1,474,914,712
257319729,42940,-0.1382,-0.1147,1.0044,-0.5493,-19.9585,-3.7231,1,493,852,712
257324726,42941,-0.1411,-0.0972,1.0098,-0.1831,-24.2310,-5.3711,1,476,867,712
257329728,42942,-0.1743,-0.0581,1.0005,-1.3428,-29.6631,-8.1787,1,482,893,712
257334734,42943,-0.2231,-0.0327,0.9814,-2.9907,-35.2173,-11.2305,1,465,883,712
257339729,42944,-0.2744,-0.0303,0.9526,-4.2725,-42.7856,-15.1978,1,478,899,712
257344727,42945,-0.3198,-0.0420,0.9282,-5.6152,-52.6733,-19.2261,1,466,906,712
257349733,42946,-0.3599,-0.0410,0.9326,-7.3242,-63.3545,-23.1934,1,466,917,712
257354731,42947,-0.4087,-0.0039,0.9663,-10.5591,-73.3032,-27.6489,1,466,924,712
257359727,42948,-0.4453,0.0635,0.9893,-15.2588,-85.8154,-34.1187,1,466,928,712
257364728,42949,-0.4453,0.0791,1.0161,-20.3247,-98.3887,-42.1753,1,466,932,712
257369725,42950,-0.4102,0.0352,1.0811,-22.7051,-106.4453,-48.0347,1,466,941,712
257374756,42951,-0.3926,0.0073,1.1338,-23.1323,-109.0088,-52.3682,1,466,929,712
257379732,42952,-0.4800,0.0112,1.1401,-24.2920,-105.5298,-56.6406,1,466,937,712
257384726,42953,-0.6499,0.0479,1.1450,-21.6064,-103.0884,-59.5093,1,466,943,712
257389725,42954,-0.7876,0.0659,1.2329,-20.2026,-102.1728,-62.6221,1,494,939,712
257394747,42955,-0.7881,0.0483,1.4355,-15.8691,-98.2666,-64.8804,1,466,943,712
257399729,42956,-0.7217,0.0557,1.6367,-8.3008,-83.0688,-67.3828,1,476,933,712
257404732,42957,-0.7402,0.0996,1.7080,-4.3335,-62.3169,-70.4956,1,492,894,712
257409731,42958,-0.8442,0.1577,1.6479,-2.8687,-43.2129,-73.7305,1,494,885,712
257414727,42959,-0.9604,0.2256,1.5293,-1.7090,-26.7944,-77.7588,1,503,879,712
257419728,42960,-1.0425,0.2896,1.4106,-1.5869,-12.3291,-82.3364,1,472,912,712
257424727,42961,-1.0884,0.3306,1.3105,-2.3804,0.2441,-87.0361,1,492,959,712
257429725,42962,-1.0908,0.3521,1.2119,-2.6855,11.2305,-91.8579,1,470,868,712
257434734,42963,-1.1079,0.3442,1.1484,-2.9907,23.4375,-96.1304,1,479,912,712
257439733,42964,-1.1392,0.3184,1.1152,0.3052,31.4941,-97.0459,1,475,878,712
257444733,42965,-1.1445,0.2949,1.0933,-1.0986,41.6870,-102.9053,1,475,899,712
257449733,42966,-1.1377,0.2744,1.0977,1.8311,49.1943,-101.7456,1,483,908,712
257454732,42967,-1.1147,0.2563,1.1143,1.2207,58.7158,-103.5767,1,466,924,712
257459731,42968,-1.0923,0.2378,1.1318,2.0752,67.9932,-103.5156,1,466,932,712
257464733,42969,-1.0693,0.2207,1.1313,0.1831,77.7588,-102.4170,1,466,919,712
257469730,42970,-1.0430,0.2026,1.1152,-0.3662,85.3882,-101.4404,1,466,924,712
257474726,42971,-1.0176,0.1831,1.0928,-1.5869,92.8345,-99.6094,1,465,927,712
257479746,42972,-0.9917,0.1650,1.0732,-2.1973,98.8159,-96.6186,1,466,919,712
257484729,42973,-0.9619,0.1523,1.0649,-3.8452,104.3701,-93.9941,1,466,926,712
257489729,42974,-0.9282,0.1460,1.0674,-5.1880,109.4971,-90.5151,1,493,935,712
257494728,42975,-0.8945,0.1509,1.0698,-6.7749,114.3188,-86.9141,1,477,923,712
257499725,42976,-0.8662,0.1685,1.0679,-8.6060,118.0420,-83.9233,1,493,930,712
257504732,42977,-0.8374,0.1938,1.0698,-10.7422,120.9106,-81.1768,1,470,821,712
257509733,42978,-0.8047,0.2202,1.0791,-13.1226,123.4131,-78.6133,1,492,870,712
257514733,42979,-0.7710,0.2412,1.0928,-15.1367,125.9766,-76.1108,1,476,905,712
257519727,42980,-0.7407,0.2583,1.1084,-16.7236,128.1128,-73.7305,1,504,912,712
257524730,42981,-0.7134,0.2749,1.1270,-18.1274,129.6997,-71.2891,1,493,884,712
257529725,42982,-0.6865,0.2915,1.1499,-19.5923,131.4087,-68.9087,1,494,924,712
257534726,42983,-0.6582,0.3032,1.1699,-20.7520,133.3008,-66.4673,1,491,886,712
257539732,42984,-0.6279,0.3062,1.1836,-21.1182,134.9487,-63.9648,1,510,888,712
257544731,42985,-0.5947,0.3037,1.1865,-20.3247,136.4746,-61.2793,1,477,938,712
257549734,42986,-0.5654,0.3057,1.1802,-18.4326,137.8784,-58.5937,1,481,943,712
257554728,42987,-0.5376,0.3174,1.1699,-16.3574,138.1226,-56.3354,1,475,916,712
257559730,42988,-0.5073,0.3325,1.1592,-14.2212,137.8174,-54.5654,1,483,920,712
257564728,42989,-0.4829,0.3486,1.1455,-11.8408,136.7798,-53.3447,1,466,942,712
257569729,42990,-0.4673,0.3662,1.1304,-10.7422,134.6436,-52.9785,1,466,948,712
257574726,42991,-0.4517,0.3857,1.1357,-9.7656,131.1035,-52.6123,1,466,937,712
257579732,42992,-0.4258,0.4023,1.1836,-10.8032,128.0518,-53.8330,1,466,929,712
257584729,42993,-0.3882,0.3970,1.2705,-12.1460,126.1597,-54.8096,1,466,935,712
257589745,42994,-0.3540,0.3696,1.3662,-12.6343,126.4648,-55.5420,1,466,943,712
257594728,42995,-0.3394,0.3364,1.4575,-12.8784,128.2959,-56.5186,1,466,951,712
257599730,42996,-0.3203,0.3037,1.5488,-12.6343,130.5542,-56.5796,1,493,945,712
257604725,42997,-0.2690,0.2661,1.6265,-11.8408,135.9253,-55.8472,1,466,939,712
257609730,42998,-0.2046,0.2275,1.6582,-9.8267,144.6533,-54.5654,1,494,941,712
257614727,42999,-0.1597,0.2012,1.6260,-6.4697,153.9307,-52.6123,1,475,823,712
257619729,43000,-0.1436,0.1890,1.5444,-2.8076,161.7431,-50.7202,1,509,815,712
257624730,43001,-0.1406,0.1846,1.4438,1.4038,167.1753,-48.7671,1,473,900,712
257629730,43002,-0.1289,0.1851,1.3481,5.1270,170.1050,-46.5698,1,501,886,712
257634732,43003,-0.1035,0.1865,1.2695,9.6436,171.8139,-44.5557,1,479,849,712
257639727,43004,-0.0791,0.1875,1.2070,14.6484,172.3022,-42.7246,1,485,957,712
257644731,43005,-0.0605,0.1924,1.1587,18.7988,171.7529,-41.3818,1,509,990,712
257649729,43006,-0.0405,0.1982,1.1265,21.9727,170.4101,-40.5273,1,480,928,712
257654726,43007,-0.0171,0.1987,1.1084,24.3530,168.9453,-39.9780,1,469,939,712
257659729,43008,0.0068,0.1880,1.0957,26.4282,167.3584,-39.7949,1,472,915,712
257664727,43009,0.0244,0.1675,1.0781,28.4424,165.7715,-39.5508,1,483,919,712
257669732,43010,0.0317,0.1416,1.0522,30.5176,163.6963,-39.3066,1,466,933,712
257674725,43011,0.0376,0.1133,1.0303,32.3486,161.4380,-39.0015,1,466,938,712
257679730,43012,0.0488,0.0815,1.0215,34.3628,158.9966,-38.8794,1,465,922,712
257684733,43013,0.0688,0.0518,1.0181,36.9263,156.5552,-38.5742,1,466,920,712
257689730,43014,0.0962,0.0298,1.0098,39.0015,154.2358,-38.3911,1,466,919,712
257694758,43015,0.1221,0.0142,0.9946,40.5273,151.9775,-38.5132,1,466,914,712
257699733,43016,0.1450,0.0024,0.9731,41.8701,149.1699,-38.9404,1,466,927,712
257704733,43017,0.1680,-0.0112,0.9487,42.4805,145.8740,-39.6118,1,492,930,712
257709734,43018,0.1841,-0.0298,0.9258,42.7246,142.7002,-40.2832,1,466,933,712
257714741,43019,0.1919,-0.0493,0.9126,42.4805,138.4888,-41.3208,1,493,924,712
257719730,43020,0.2095,-0.0723,0.9175,42.0532,133.5449,-42.0532,1,478,823,712
257724726,43021,0.2456,-0.1006,0.9375,41.6260,129.5776,-42.9077,1,497,877,712
257729732,43022,0.2969,-0.1318,0.9595,41.3818,126.4038,-43.4570,1,487,919,712
257734730,43023,0.3506,-0.1611,0.9688,42.3584,123.7793,-44.3115,1,505,919,712
257739726,43024,0.3975,-0.1851,0.9541,42.6636,121.2768,-44.2505,1,491,933,712
257744730,43025,0.4448,-0.2075,0.9180,43.3960,117.7368,-44.8608,1,476,980,712
257749730,43026,0.5063,-0.2241,0.8691,46.7529,112.4878,-45.2270,1,493,908,712
257754725,43027,0.5796,-0.2300,0.8140,48.5229,107.0557,-46.1426,1,471,939,712
257759729,43028,0.6538,-0.2285,0.7632,51.1475,100.2197,-48.0957,1,479,939,712
257764732,43029,0.7314,-0.2241,0.7236,53.8330,92.0410,-50.4150,1,475,925,712
257769731,43030,0.8193,-0.2280,0.6963,55.7861,83.1909,-53.2227,1,483,924,712
257774727,43031,0.9165,-0.2456,0.6772,57.7393,73.6084,-56.5796,1,466,942,712
257779727,43032,1.0190,-0.2725,0.6631,59.6924,63.3545,-59.9365,1,466,936,712
257784732,43033,1.1274,-0.3071,0.6577,61.8286,52.7954,-63.3545,1,466,938,712
257789728,43034,1.2417,-0.3442,0.6553,64.5142,42.4805,-66.4062,1,466,950,712
257794730,43035,1.3506,-0.3730,0.6401,66.8945,32.7148,-69.6411,1,466,957,712
257799729,43036,1.4414,-0.3896,0.6030,68.2373,22.1558,-72.6929,1,466,925,712
257804726,43037,1.8354,-0.0771,0.3574,70.3735,-2.0142,-79.4067,1,465,931,712
257809725,43038,1.9307,0.7397,-0.3691,58.2275,-55.7251,-120.1782,1,492,913,712
257814728,43039,1.6699,0.9692,-1.0347,-18.4326,-143.8599,-156.2500,1,466,947,712
257819732,43040,1.4629,0.0234,-0.9785,-31.8603,-177.4902,-175.0488,1,494,930,712
257824725,43041,0.7339,-1.0894,-0.1904,-12.7563,-125.3662,-162.5976,1,471,903,712
257829731,43042,-0.2896,-1.5215,0.8032,18.9819,-140.2588,-142.0898,1,508,954,712
257834725,43043,-1.1987,-1.6006,1.4185,13.6719,-152.3438,-141.7236,1,487,910,712
257839726,43044,-1.5312,-1.8447,1.5381,18.7378,-160.7056,-127.3193,1,494,958,712
257844725,43045,-0.9722,-2.0923,1.1577,27.9541,-178.3447,-102.7222,1,479,933,712
257849731,43046,-0.1343,-2.2021,0.5435,25.2686,-178.2226,-81.2988,1,489,918,712
257854732,43047,0.1958,-2.0815,0.0938,24.5972,-185.9131,-52.9175,1,497,962,712
257859733,43048,-0.0635,-1.7275,0.0464,12.2070,-208.0078,-26.7944,1,472,954,712
257864725,43049,-0.3545,-1.3916,0.4673,-9.2163,-240.3564,-5.1880,1,477,925,712
257869725,43050,-0.2861,-1.1743,1.1621,-18.6768,-254.2724,10.9863,1,465,897,712
257874732,43051,-0.0708,-0.9463,1.7461,-12.8174,-242.0654,22.7661,1,483,930,712
257879728,43052,0.0454,-0.5342,1.9795,7.4463,-228.0884,30.7617,1,466,942,712
257884725,43053,0.0684,0.0869,1.9062,22.6440,-215.9424,27.8931,1,466,925,712
257889727,43054,0.0103,0.7124,1.7212,21.7285,-203.0029,18.4937,1,465,966,712
257894725,43055,-0.0820,1.1313,1.5933,11.1084,-195.8618,6.6528,1,466,931,712
257899731,43056,-0.1177,1.2598,1.5825,-0.1831,-190.4907,-9.0332,1,466,929,712
257904729,43057,-0.0908,1.1338,1.6304,-6.8970,-182.0679,-26.0620,1,466,912,712
257909728,43058,-0.0928,0.8154,1.6274,-11.7187,-171.6919,-40.8325,1,466,920,712
257914725,43059,-0.1074,0.3706,1.5420,-17.1509,-168.1518,-49.2554,1,466,947,712
257919729,43060,-0.0659,-0.1118,1.4263,-23.3765,-164.3066,-51.3916,1,465,937,712
257924726,43061,-0.0371,-0.5186,1.3179,-26.9775,-158.3862,-48.1567,1,494,947,712
257929729,43062,-0.0537,-0.7842,1.2490,-29.4800,-156.1279,-41.3208,1,478,944,712
257934728,43063,-0.0322,-0.9077,1.2495,-28.5645,-156.3721,-32.1655,1,507,938,712
257939726,43064,0.0420,-0.8867,1.2993,-21.4844,-150.8789,-24.4141,1,486,917,712
257944732,43065,0.0845,-0.7407,1.3521,-11.2915,-142.7612,-18.9209,1,499,907,712
257949726,43066,0.0664,-0.5303,1.3823,-2.5635,-136.1694,-15.6250,1,480,911,712
257954733,43067,-0.2202,-0.6304,1.5342,3.2349,-125.6103,-10.3760,1,496,922,712
257959726,43068,-0.3389,-0.9673,1.9014,29.9683,-146.1182,7.8735,1,500,884,712
257964729,43069,0.2505,-1.0508,2.0581,54.1382,-150.6348,12.1460,1,465,906,712
257969731,43070,0.6377,-0.9463,1.7544,53.7109,-82.0923,16.4185,1,465,883,712
257974733,43071,0.3062,-0.6660,1.3574,73.3643,-70.8618,24.9634,1,465,909,712
257979732,43072,-0.0625,-0.2222,1.1997,80.4443,-81.9702,23.8037,1,484,907,712
257984730,43073,-0.1333,0.1074,1.2681,75.0732,-72.1436,19.4702,1,466,938,712
257989726,43074,-0.0825,0.2031,1.3672,69.0918,-59.9365,15.6860,1,466,920,712
257994733,43075,-0.0215,0.1279,1.4058,64.1479,-54.9927,12.3291,1,466,932,712
257999729,43076,0.0405,-0.0063,1.3921,59.3872,-47.2412,11.1694,1,466,936,712
258004726,43077,0.0566,-0.0981,1.3452,55.7861,-35.7056,11.4136,1,465,939,712
258009727,43078,0.0186,-0.0918,1.2783,54.3823,-28.4424,11.9019,1,466,936,712
258014726,43079,-0.0874,0.0415,1.2446,50.2930,-22.2778,10.0098,1,466,934,712
258019730,43080,-0.1514,0.2715,1.3047,39.2456,-24.5361,3.1738,1,466,928,712
258024727,43081,-0.0835,0.3696,1.3511,22.3389,-20.2637,-1.0986,1,465,920,712
258029725,43082,-0.0566,-0.0952,1.1172,8.3008,-10.0708,-1.9531,1,494,914,712
258034732,43083,-0.0806,-0.2515,1.0186,10.4370,-9.2773,-0.7935,1,480,821,712
258039733,43084,-0.1011,-0.2051,1.0200,12.3291,-7.5073,-0.7324,1,497,821,712
258044729,43085,-0.0996,-0.0723,1.0747,9.3994,-7.5073,-1.7700,1,483,866,712
258049729,43086,-0.0776,-0.0239,1.1035,4.7607,-5.6152,-2.3804,1,498,846,712
258054725,43087,-0.0688,-0.0835,1.0820,3.3569,-4.1504,-2.1362,1,487,913,712
258059727,43088,-0.0752,-0.1548,1.0430,4.3945,-3.3569,-1.6479,1,503,846,712
258064731,43089,-0.0918,-0.1699,1.0166,5.3711,-2.6855,-1.4648,1,493,857,712
258069726,43090,-0.1138,-0.1416,1.0049,5.6152,-2.8687,-1.8311,1,465,839,712
258074730,43091,-0.1255,-0.1191,1.0078,5.1880,-4.0283,-2.1362,1,476,863,712
258079730,43092,-0.1147,-0.1240,1.0234,4.9438,-4.8828,-2.2583,1,470,873,712
258084728,43093,-0.0898,-0.1372,1.0415,5.3711,-4.5166,-2.0752,1,484,880,712
258089725,43094,-0.0771,-0.1372,1.0444,5.7983,-3.0518,-2.1973,1,466,887,712
258094727,43095,-0.0894,-0.1299,1.0293,5.6763,-2.6855,-2.3193,1,466,891,712
258099728,43096,-0.1060,-0.1230,1.0122,5.8594,-3.6011,-2.2583,1,466,887,712
258104725,43097,-0.1094,-0.1177,1.0103,5.7373,-3.8452,-2.8076,1,466,885,712
258109725,43098,-0.0986,-0.1255,1.0186,5.5542,-3.7231,-2.7466,1,466,886,712
258114733,43099,-0.0918,-0.1401,1.0234,6.1035,-3.0518,-2.6855,1,466,888,712
258119730,43100,-0.0918,-0.1387,1.0229,6.8970,-2.9907,-2.3193,1,465,885,712
258124729,43101,-0.0923,-0.1328,1.0146,6.7139,-2.6245,-2.1973,1,492,886,712
258129728,43102,-0.1055,-0.1309,1.0024,7.2021,-2.3193,-2.1973,1,466,888,712
258134725,43103,-0.1133,-0.1147,1.0059,7.8125,-3.7842,-2.0142,1,494,882,712
258139729,43104,-0.1025,-0.1177,1.0166,6.3477,-3.6621,-2.3804,1,466,807,712
258144725,43105,-0.0996,-0.1299,1.0137,7.6904,-3.2349,-2.1362,1,496,831,712
258149730,43106,-0.1021,-0.1221,1.0073,8.3008,-4.3335,-2.1973,1,484,849,712
258154733,43107,-0.0977,-0.1206,1.0059,7.7515,-4.6997,-2.2583,1,508,835,712
258159731,43108,-0.0967,-0.1255,1.0068,8.3618,-4.3945,-2.2583,1,491,853,712
258164731,43109,-0.0972,-0.1211,1.0156,9.0942,-4.6387,-2.2583,1,498,901,712
258169732,43110,-0.0884,-0.1138,1.0312,8.8501,-4.3335,-2.3804,1,498,844,712
258174726,43111,-0.0801,-0.1099,1.0347,8.6670,-3.4180,-2.6245,1,504,865,712
258179729,43112,-0.0864,-0.1143,1.0220,8.6670,-2.9907,-2.5635,1,483,875,712
258184733,43113,-0.0972,-0.1206,1.0078,9.2163,-3.4180,-2.4414,1,482,866,712
258189732,43114,-0.1035,-0.1182,1.0020,9.3994,-3.3569,-2.6855,1,475,869,712
258194732,43115,-0.1045,-0.1133,1.0015,9.4604,-3.9062,-2.6245,1,484,871,712
258199726,43116,-0.1016,-0.1108,1.0000,9.4604,-4.2725,-2.6855,1,466,884,712
258204728,43117,-0.1069,-0.1104,0.9922,10.0098,-4.5776,-2.8687,1,465,880,712
258209728,43118,-0.1143,-0.1147,0.9854,10.0708,-5.4321,-3.1128,1,465,890,712
258214732,43119,-0.1172,-0.1147,0.9844,10.6812,-6.2256,-3.2959,1,466,901,712
258219725,43120,-0.1211,-0.1094,0.9839,11.2305,-7.0190,-3.6011,1,466,902,712
258224735,43121,-0.1221,-0.1099,0.9814,11.5967,-8.5449,-3.9062,1,466,890,712
258229729,43122,-0.1216,-0.1118,0.9810,12.3901,-9.4604,-4.3335,1,466,904,712
258234729,43123,-0.1226,-0.1177,0.9805,13.2446,-10.6812,-4.6997,1,493,904,712
258239725,43124,-0.1235,-0.1221,0.9819,14.4653,-11.8408,-5.1270,1,466,920,712
258244738,43125,-0.1221,-0.1138,0.9878,15.6250,-13.4277,-5.7373,1,494,927,712
258249727,43126,-0.1045,-0.1069,1.0000,16.0522,-14.4653,-6.5918,1,466,845,712
258254725,43127,-0.0869,-0.1084,1.0166,17.0898,-14.7705,-7.2021,1,501,860,712
258259727,43128,-0.0801,-0.1050,1.0249,17.5781,-15.1978,-7.5684,1,490,884,712
258264726,43129,-0.0776,-0.0952,1.0264,17.9443,-15.6860,-8.1177,1,495,867,712
258269733,43130,-0.0815,-0.0879,1.0269,17.5781,-15.8691,-8.6060,1,506,897,712
258274733,43131,-0.0933,-0.0825,1.0210,17.3340,-16.6016,-8.7891,1,497,945,712
258279731,43132,-0.1089,-0.0806,1.0107,16.6626,-17.8833,-9.0332,1,501,855,712
258284729,43133,-0.1196,-0.0728,1.0083,16.1743,-20.0195,-8.6670,1,465,897,712
258289730,43134,-0.1162,-0.0498,1.0220,14.2822,-21.7895,-8.6060,1,469,904,712
258294730,43135,-0.1094,-0.0396,1.0288,11.2915,-22.7661,-8.2397,1,466,908,712
258299732,43136,-0.1050,-0.0430,1.0210,9.6436,-24.4751,-7.8125,1,484,906,712
258304728,43137,-0.1006,-0.0435,1.0112,7.8735,-25.5127,-7.5073,1,466,896,712
258309733,43138,-0.0986,-0.0435,1.0034,6.5918,-26.7334,-7.4463,1,466,901,712
258314726,43139,-0.0894,-0.0459,1.0107,5.3101,-28.3813,-7.7515,1,466,899,712
258319726,43140,-0.0742,-0.0479,1.0244,4.2114,-29.1748,-8.1177,1,466,896,712
258324732,43141,-0.0601,-0.0503,1.0327,2.9907,-29.2358,-8.4229,1,466,906,712
258329732,43142,-0.0508,-0.0591,1.0327,1.8311,-29.1748,-8.8501,1,466,898,712
258334725,43143,-0.0664,-0.0679,1.0229,1.2817,-29.3579,-9.0332,1,466,891,712
258339725,43144,-0.1050,-0.0596,1.0039,0.0000,-31.7383,-8.2397,1,492,907,712
258344725,43145,-0.1255,-0.0493,0.9888,-1.8311,-35.0952,-7.5684,1,466,851,712
258349732,43146,-0.0996,-0.0581,1.0000,-2.9297,-37.9639,-7.9956,1,494,895,712
258354727,43147,-0.0596,-0.0752,1.0264,-2.9907,-38.4521,-8.6670,1,466,818,712
258359726,43148,-0.0396,-0.0742,1.0488,-2.9907,-39.3066,-9.2163,1,496,866,712
258364725,43149,-0.0415,-0.0688,1.0562,-4.2114,-39.9170,-9.5215,1,483,859,712
258369734,43150,-0.0610,-0.0713,1.0449,-4.5776,-40.7715,-9.8267,1,494,858,712
258374733,43151,-0.0640,-0.0767,1.0386,-4.8218,-43.4570,-10.1929,1,484,892,712
258379726,43152,-0.0464,-0.0840,1.0400,-4.5166,-44.6167,-10.3149,1,496,925,712
258384727,43153,-0.0337,-0.0913,1.0400,-3.8452,-45.2881,-10.6201,1,492,876,712
258389727,43154,-0.0361,-0.0889,1.0332,-2.9907,-46.2646,-10.6812,1,469,905,712
258394732,43155,-0.0410,-0.0776,1.0278,-3.7842,-48.0957,-10.3149,1,475,919,712
258399730,43156,-0.0239,-0.0791,1.0356,-4.0894,-49.8047,-9.3384,1,470,901,712
258404730,43157,-0.0103,-0.0815,1.0449,-4.2114,-49.6826,-8.6670,1,484,882,712
258409731,43158,-0.0254,-0.0767,1.0425,-3.9673,-50.9033,-7.7515,1,466,908,712
258414728,43159,-0.0391,-0.0747,1.0381,-4.2725,-53.4668,-7.4463,1,466,897,712
258419725,43160,-0.0337,-0.0801,1.0405,-4.7607,-54.9316,-7.5684,1,466,896,712
258424725,43161,-0.0093,-0.0874,1.0508,-4.5776,-56.4575,-7.2632,1,466,897,712
258429730,43162,0.0298,-0.0835,1.0620,-4.0894,-56.5796,-6.7749,1,466,901,712
258434735,43163,0.0576,-0.0688,1.0664,-4.4556,-56.0913,-6.5918,1,465,899,712
258439725,43164,0.0620,-0.0532,1.0645,-5.7373,-55.8472,-6.3477,1,466,906,712
258444730,43165,0.0400,-0.0444,1.0601,-7.5684,-56.1523,-5.9814,1,466,902,712
258449732,43166,-0.0542,-0.0444,1.0518,-9.6436,-57.6172,-6.8970,1,465,900,712
258454735,43167,-0.1846,-0.0498,1.0439,-12.5122,-68.9087,-10.8643,1,494,897,712
258459731,43168,-0.2773,-0.0581,1.0396,-15.6860,-81.4209,-16.9067,1,464,857,712
258464727,43169,-0.3989,-0.0693,1.0293,-16.9067,-90.5151,-23.3154,1,494,857,712
258469731,43170,-0.5894,-0.0918,1.0171,-16.4795,-111.4502,-32.5928,1,483,915,712
258474729,43171,-0.8887,-0.0977,0.9980,-17.6392,-139.8315,-46.8140,1,500,880,712
258479730,43172,-1.2056,-0.0176,1.0078,-19.3481,-178.0395,-74.2798,1,486,841,712
258484733,43173,-1.1992,0.1055,1.0894,-25.0854,-234.0088,-85.5102,1,490,927,712
258489725,43174,-0.6807,0.1538,1.2280,-40.2832,-281.7383,-77.5146,1,489,901,712
258494727,43175,-0.4419,0.1821,1.3569,-56.2134,-302.1851,-86.3037,1,506,892,712
258499733,43176,-1.0664,0.1484,1.4941,-74.5850,-357.6049,-92.7734,1,479,926,712
258504730,43177,-1.3374,0.1030,1.7637,-71.1060,-463.6841,-71.3501,1,473,945,712
258509725,43178,-0.5874,0.3149,1.8423,-84.0454,-524.2310,-47.9126,1,483,909,712
258514733,43179,-0.2275,0.4492,1.8115,-125.4883,-535.5835,-58.8379,1,466,941,712
258519728,43180,-0.9976,0.1519,2.0254,-141.1743,-574.7681,-56.0913,1,466,950,712
258524726,43181,-1.7412,-0.2095,2.0532,-125.4272,-672.3632,-55.6641,1,466,934,712
258529727,43182,-1.6812,-0.3652,1.6089,-138.6108,-736.9384,-71.6553,1,466,956,712
258534726,43183,-1.2256,-0.3940,0.9790,-142.9443,-773.4374,-86.9141,1,465,940,712
258539726,43184,-0.9272,-0.5542,0.4946,-128.0518,-790.3442,-96.3135,1,466,946,712
258544732,43185,-1.0366,-0.9287,0.2881,-89.4775,-812.9272,-107.8491,1,466,941,712
258549733,43186,-1.2866,-0.8950,0.4321,-41.3818,-908.0200,-132.9346,1,466,953,712
258554730,43187,-0.6919,-0.0229,0.7842,-5.6763,-933.2885,-138.5498,1,492,947,712
258559729,43188,1.2900,0.6152,2.2871,-5.3101,-811.2792,-137.0850,1,466,928,712
258564741,43189,3.2949,0.0996,5.0762,-26.0620,-628.2959,-144.5923,1,494,925,712
258569727,43190,3.3672,-0.6694,6.9199,16.7236,-401.9165,-147.4609,1,473,936,712
258574733,43191,1.3672,-0.9004,6.6890,20.5078,-198.0591,-156.4331,1,508,862,712
258579725,43192,-1.0298,-0.7871,5.3462,-5.9814,-77.9419,-160.8276,1,490,917,712
258584733,43193,-2.1323,-0.5913,4.2002,-16.9067,-20.6909,-162.5366,1,485,887,712
258589728,43194,-1.8516,-0.4976,3.5991,-33.4473,42.7246,-165.3442,1,508,903,712
258594732,43195,-1.2456,-0.5508,3.1411,-38.6353,105.1636,-165.0390,1,475,972,712
258599725,43196,-1.0122,-0.6323,2.5142,-36.4990,147.4609,-163.3911,1,499,905,712
258604731,43197,-1.0879,-0.6562,1.8330,-35.3394,167.7246,-161.4990,1,481,936,712
258609734,43198,-1.1416,-0.6313,1.3320,-33.0200,174.5605,-157.9590,1,478,972,712
258614729,43199,-1.0200,-0.6099,1.0850,-30.2734,178.5889,-154.2358,1,475,923,712
258619730,43200,-0.7881,-0.6372,1.0132,-26.1230,184.8755,-149.7192,1,484,921,712
258624729,43201,-0.5703,-0.7222,1.0015,-20.9961,194.3970,-143.3105,1,466,943,712
258629726,43202,-0.4409,-0.8438,0.9834,-16.0522,205.3223,-134.5825,1,466,934,712
258634728,43203,-0.3979,-0.9629,0.9526,-12.2070,214.5386,-122.7417,1,466,966,712
258639728,43204,-0.3931,-1.0571,0.9375,-10.8643,221.5576,-108.4595,1,466,953,712
258644733,43205,-0.3774,-1.1274,0.9600,-12.2681,227.5390,-92.1020,1,466,948,712
258649734,43206,-0.3203,-1.1709,1.0127,-15.8691,233.8257,-74.2188,1,466,949,712
258654727,43207,-0.2490,-1.2002,1.0771,-24.6582,244.6899,-55.3589,1,466,971,712
258659728,43208,-0.1704,-1.2158,1.1094,-27.4048,252.9907,-32.5317,1,492,947,712
258664727,43209,-0.1016,-1.2046,1.0952,-36.9263,264.7705,-15.1367,1,470,941,712
258669747,43210,-0.0830,-1.1543,1.0513,-43.5181,274.4751,5.6152,1,493,932,712
258674733,43211,-0.0957,-1.0659,0.9927,-50.9644,281.3110,23.6206,1,473,914,712
258679729,43212,-0.1118,-0.9531,0.9390,-57.7393,284.8511,38.8794,1,509,826,712
258684726,43213,-0.1157,-0.8198,0.8950,-66.3452,287.2314,53.1006,1,503,913,712
258689731,43214,-0.1099,-0.6719,0.8672,-73.4863,288.0859,64.2090,1,490,895,712
258694726,43215,-0.0991,-0.5132,0.8638,-82.0312,288.2690,72.1436,1,479,938,712
258699728,43216,-0.0845,-0.3574,0.8931,-91.4917,288.3301,77.7588,1,489,888,712
258704732,43217,-0.0620,-0.2144,0.9492,-99.7925,288.7573,80.6885,1,466,889,712
258709727,43218,-0.0376,-0.0874,1.0186,-106.7505,290.4053,81.1157,1,465,924,712
258714731,43219,-0.0146,0.0229,1.0952,-112.8540,292.9077,79.7729,1,475,931,712
258719725,43220,0.0122,0.1162,1.1821,-117.3096,296.0205,77.2095,1,483,922,712
258724732,43221,0.0518,0.1904,1.2778,-120.4834,300.5371,74.0967,1,466,932,712
258729733,43222,0.0986,0.2500,1.3750,-121.3379,306.4575,70.8008,1,466,928,712
258734730,43223,0.1440,0.3013,1.4600,-120.1172,313.5376,67.1387,1,466,923,712
258739725,43224,0.1787,0.3530,1.5195,-116.0889,321.1060,63.0493,1,466,931,712
258744727,43225,0.2031,0.4043,1.5635,-111.2671,328.8574,57.6782,1,465,944,712
258749725,43226,0.2075,0.4600,1.5840,-105.9570,333.6792,54.7485,1,466,944,712
258754744,43227,0.2104,0.5054,1.5889,-103.8818,339.7827,48.4619,1,465,951,712
258759729,43228,0.2280,0.5249,1.5947,-97.7173,342.8344,43.5791,1,466,947,712
258764730,43229,0.2451,0.5332,1.5918,-93.2007,345.0927,38.5132,1,493,947,712
258769725,43230,0.2583,0.5269,1.5972,-89.7827,346.1914,33.9966,1,488,936,712
258774728,43231,0.2637,0.5015,1.6182,-84.2285,345.6421,29.9072,1,465,938,712
258779732,43232,0.2666,0.4561,1.6479,-78.3691,345.0317,26.3672,1,482,870,712
258784732,43233,0.2754,0.3945,1.6860,-73.1812,344.4214,24.4751,1,491,835,712
258789728,43234,0.2930,0.3267,1.7261,-67.3828,344.7876,23.8647,1,499,907,712
258794731,43235,0.3091,0.2603,1.7573,-61.2183,345.8252,24.2920,1,493,878,712
258799726,43236,0.3184,0.2046,1.7759,-55.4810,347.0459,25.6958,1,477,936,712
258804729,43237,0.3174,0.1646,1.7812,-50.2930,348.2055,27.2217,1,510,895,712
258809726,43238,0.3042,0.1445,1.7847,-46.0815,348.6938,27.8320,1,493,930,712
258814725,43239,0.2969,0.1382,1.7930,-43.5181,348.2055,29.2358,1,472,943,712
258819732,43240,0.3037,0.1299,1.8125,-43.8232,348.7549,28.8086,1,474,925,712
258824730,43241,0.3135,0.1113,1.8428,-43.2739,348.8159,27.5269,1,483,926,712
258829725,43242,0.3179,0.0845,1.8677,-42.4805,348.9380,25.8789,1,466,945,712
258834732,43243,0.3311,0.0479,1.8794,-43.0298,349.3652,25.2686,1,466,939,712
258839733,43244,0.3584,0.0049,1.8848,-44.8608,350.4028,23.3154,1,465,937,712
258844725,43245,0.3809,-0.0430,1.8882,-43.6401,350.1587,21.8506,1,466,937,712
258849734,43246,0.3960,-0.0884,1.8872,-42.9687,349.9145,20.6909,1,466,932,712
258854729,43247,0.4082,-0.1240,1.8901,-44.7388,349.3042,19.6533,1,466,945,712
258859731,43248,0.4224,-0.1567,1.9038,-46.7529,348.1445,18.6157,1,466,936,712
258864725,43249,0.4395,-0.1938,1.9199,-49.2554,346.7407,17.7002,1,466,945,712
258869732,43250,0.5034,-0.2739,1.9404,-56.8848,340.4541,17.2729,1,466,932,712
258874735,43251,0.5718,-0.3013,1.9438,-61.2183,336.1206,18.3716,1,494,937,712
258879729,43252,0.6724,-0.3027,1.9302,-69.2749,332.2143,20.9961,1,493,931,712
258884728,43253,0.7651,-0.3062,1.9014,-81.4209,330.0171,23.6206,1,490,860,712
258889726,43254,0.8442,-0.3159,1.8540,-80.9326,320.9839,28.4424,1,475,913,712
258894733,43255,0.9326,-0.3110,1.7842,-87.0361,313.4155,31.4941,1,508,909,712
258899726,43256,1.0225,-0.3115,1.7061,-93.6890,302.7954,38.3301,1,489,904,712
258904728,43257,1.1196,-0.3213,1.6270,-95.5810,290.2832,43.8232,1,483,953,712
258909730,43258,1.2119,-0.3325,1.5635,-94.6045,275.4517,50.0488,1,501,903,712
258914731,43259,1.2900,-0.3384,1.5220,-91.6138,259.3994,58.2886,1,505,898,712
258919729,43260,1.3428,-0.3218,1.5288,-89.4775,240.4175,65.7349,1,482,926,712
258924727,43261,1.3979,-0.2759,1.6226,-86.0596,218.1396,69.7632,1,465,922,712
258929731,43262,1.5620,-0.1968,1.7822,-78.2471,196.5332,74.7070,1,484,922,712
258934725,43263,1.8740,-0.0835,1.9277,-71.4722,186.2182,76.7212,1,466,930,712
258939731,43264,2.2256,0.0674,1.9512,-61.7065,186.0962,74.7070,1,466,933,712
258944727,43265,2.5181,0.2710,1.7852,-50.8423,187.7441,68.8477,1,466,932,712
258949727,43266,2.7417,0.5156,1.4468,-44.0674,186.1572,57.9224,1,466,935,712
258954726,43267,2.9214,0.7603,0.9966,-40.8936,176.3916,42.9687,1,466,946,712
258959732,43268,3.0630,0.9590,0.5044,-40.1611,158.0200,25.0854,1,466,940,712
258964727,43269,3.1514,1.0684,0.0469,-40.6494,129.7607,6.4087,1,465,930,712
258969732,43270,3.1777,1.0640,-0.2954,-38.5742,91.6748,-10.6812,1,466,914,712
258974727,43271,3.1494,0.9492,-0.4526,-31.3110,46.1426,-24.1089,1,466,937,712
258979729,43272,3.1064,0.7471,-0.3984,-16.7236,-2.3804,-32.2876,1,477,946,712
258984733,43273,3.1729,0.5615,-0.1724,6.1035,-48.8892,-35.4614,1,493,908,712
258989732,43274,3.3887,1.0767,-0.7217,49.8657,-171.9360,-50.2930,1,494,816,712
258994728,43275,2.5830,1.7319,-1.9004,63.9038,-322.6318,-86.7309,1,484,926,712
258999729,43276,0.9053,1.1948,-1.6699,33.6914,-381.0424,-135.9253,1,501,919,712
259004733,43277,0.5176,0.0698,0.2197,27.0996,-330.9326,-121.6431,1,488,881,712
259009728,43278,0.5591,-0.8726,2.0054,40.1001,-274.0479,-123.0469,1,507,914,712
259014733,43279,-0.8384,-2.2505,2.5547,74.1577,-229.8584,-142.7002,1,490,878,712
259019728,43280,-2.1196,-3.8159,1.9116,187.1948,-303.2227,-108.7646,1,493,903,712
259024732,43281,-1.6445,-3.8574,0.7036,320.6177,-378.1128,-72.9370,1,474,948,712
259029730,43282,-0.1538,-2.0317,-0.3423,339.4775,-418.1518,-42.1753,1,467,924,712
259034725,43283,0.9111,-0.0596,-0.8340,215.8813,-440.7959,-11.9019,1,484,937,712
259039733,43284,0.8770,0.3975,-0.4033,56.3354,-459.1064,15.5029,1,466,945,712
259044732,43285,0.3799,-0.2974,0.9907,21.9116,-493.3471,42.2363,1,466,945,712
259049726,43286,0.2422,-0.5410,2.6704,75.5005,-498.7793,56.0303,1,466,948,712
259054728,43287,0.6094,0.3169,3.8032,113.7695,-465.8203,47.9126,1,466,931,712
259059725,43288,1.1104,1.5557,4.0488,108.0322,-409.5459,25.4517,1,465,948,712
259064727,43289,1.2637,2.3164,3.6074,82.0312,-351.7456,-1.5259,1,466,945,712
259069759,43290,0.9507,2.3174,2.9717,50.4150,-309.6313,-28.6255,1,466,931,712
259074725,43291,0.5283,1.6030,2.5103,21.3013,-288.0249,-51.6968,1,466,936,712
259079733,43292,-0.3726,-0.3750,2.7539,7.6904,-243.4082,-43.7012,1,493,935,712
259084731,43293,-0.3677,-2.8315,3.5762,52.4902,-314.6362,10.6201,1,466,923,712
259089731,43294,1.6074,-3.9502,3.8081,102.8442,-295.8984,40.7715,1,494,944,712
259094728,43295,2.6748,-3.2793,3.1436,144.9585,-112.7319,56.4575,1,490,944,712
259099730,43296,1.5771,-1.1187,2.3213,213.0737,-61.8286,68.4204,1,481,898,712
259104730,43297,0.1328,1.2310,1.8901,185.9131,-78.0029,57.6782,1,508,890,712
259109732,43298,-0.5044,2.3228,1.7778,117.3096,-56.3965,35.7666,1,472,900,712
259114727,43299,-0.4829,1.8501,1.7622,68.4814,-44.3115,17.0288,1,508,922,712
259119733,43300,-0.0425,0.5146,1.7529,43.7622,-49.6826,9.2163,1,475,891,712
259124734,43301,0.3667,-0.5425,1.7051,44.3726,-29.7852,12.4512,1,494,889,712
259129733,43302,0.3652,-0.6113,1.6104,54.4434,-8.4839,11.2915,1,472,921,712
259134728,43303,0.0771,-0.0024,1.4404,48.8281,1.0376,6.9580,1,477,907,712
259139733,43304,-0.1992,0.4229,1.2451,27.1606,1.5869,-0.6714,1,484,881,712
259144730,43305,-0.2485,0.2720,1.1230,13.4888,-4.5776,-3.1738,1,465,905,712
259149726,43306,-0.1196,-0.0806,1.0967,12.8784,-4.2114,-1.3428,1,465,913,712
259154726,43307,-0.0059,-0.1982,1.1279,13.0005,2.1362,-0.3662,1,466,904,712
259159725,43308,0.0073,-0.0776,1.1577,8.9722,6.2866,-0.4883,1,466,898,712
259164729,43309,-0.0400,0.0190,1.1494,1.8311,8.6670,-1.7700,1,466,884,712
259169730,43310,-0.0742,-0.0342,1.0947,-2.5024,9.4604,-0.9766,1,466,880,712
259174752,43311,-0.0952,-0.1279,1.0337,-2.8687,11.4136,-0.5493,1,465,884,712
259179734,43312,-0.1074,-0.1636,1.0039,-2.0752,11.0474,-0.1221,1,466,906,712
259184728,43313,-0.1108,-0.1489,1.0156,-3.1738,12.5732,-0.4272,1,492,894,712
259189725,43314,-0.0977,-0.1191,1.0220,-4.2114,12.5732,0.4272,1,467,912,712
259194730,43315,-0.1040,-0.1274,1.0068,-5.1880,15.5640,0.1831,1,493,904,712
259199728,43316,-0.1235,-0.1631,0.9878,-4.8218,13.4277,1.0986,1,487,829,712
259204729,43317,-0.1328,-0.1895,0.9678,-3.9062,14.1602,1.5869,1,476,884,712
259209728,43318,-0.1489,-0.1938,0.9683,-2.8687,13.6108,1.7700,1,510,863,712
259214725,43319,-0.1455,-0.1821,0.9648,-2.1973,11.4746,2.6245,1,487,873,712
259219727,43320,-0.1431,-0.1699,0.9673,-1.6479,10.4980,2.7466,1,480,876,712
259224725,43321,-0.1411,-0.1577,0.9839,-0.8545,8.3008,2.3193,1,484,870,712
259229729,43322,-0.1392,-0.1611,0.9795,-0.4272,7.8125,1.5259,1,508,853,712
259234729,43323,-0.1611,-0.1836,0.9507,0.7935,5.9814,0.3662,1,482,864,712
259239731,43324,-0.1914,-0.2144,0.9150,3.1738,1.2817,-0.6104,1,482,865,712
259244729,43325,-0.1978,-0.2285,0.9023,6.2256,-3.4790,-1.6479,1,483,869,712
259249726,43326,-0.1738,-0.2251,0.9175,9.2163,-7.1411,-2.8076,1,466,889,712
259254732,43327,-0.1455,-0.2090,0.9443,11.7187,-9.2773,-3.4790,1,466,891,712
259259730,43328,-0.1416,-0.1885,0.9546,13.9160,-10.8032,-3.7842,1,466,913,712
259264728,43329,-0.1582,-0.1631,0.9517,15.0757,-13.5498,-4.1504,1,466,922,712
259269733,43330,-0.1567,-0.1313,0.9648,14.8926,-17.0898,-4.5166,1,466,919,712
259274731,43331,-0.1240,-0.1133,0.9946,13.6719,-17.7612,-4.4556,1,466,925,712
259279732,43332,-0.0894,-0.1055,1.0264,12.0850,-17.1509,-3.9062,1,465,918,712
259284730,43333,-0.0850,-0.0918,1.0420,10.3760,-15.6250,-3.5400,1,465,905,712
259289729,43334,-0.0923,-0.0908,1.0396,8.1787,-16.1743,-3.4180,1,493,911,712
259294727,43335,-0.0889,-0.1025,1.0366,6.4697,-15.3809,-2.8687,1,479,893,712
259299728,43336,-0.0840,-0.1196,1.0381,5.6763,-13.8550,-3.2959,1,466,827,712
259304730,43337,-0.0815,-0.1401,1.0303,5.4932,-12.9395,-2.6855,1,497,796,712
259309729,43338,-0.0845,-0.1470,1.0181,5.9204,-12.0239,-2.6245,1,485,884,712
259314725,43339,-0.0903,-0.1538,1.0088,6.1646,-11.5967,-2.8076,1,509,861,712
259319732,43340,-0.1001,-0.1567,1.0020,7.1411,-11.5967,-2.5024,1,503,869,712
259324729,43341,-0.1011,-0.1562,1.0015,8.5449,-11.7187,-2.9297,1,481,859,712
259329725,43342,-0.0850,-0.1436,1.0181,9.0332,-11.3525,-2.7466,1,489,890,712
259334726,43343,-0.0684,-0.1299,1.0376,8.9111,-9.2163,-3.0518,1,467,870,712
259339727,43344,-0.0620,-0.1289,1.0405,8.8501,-8.2397,-2.6245,1,474,865,712
259344728,43345,-0.0640,-0.1255,1.0376,8.9722,-6.1035,-2.6855,1,470,871,712
259349728,43346,-0.0688,-0.1255,1.0288,8.6060,-4.9438,-2.5635,1,484,867,712
259354730,43347,-0.0811,-0.1362,1.0112,8.7280,-3.4180,-2.4414,1,465,892,712
259359730,43348,-0.0923,-0.1489,0.9990,9.8267,-3.2959,-2.3193,1,466,889,712
259364728,43349,-0.0938,-0.1450,1.0044,10.6201,-2.6855,-2.1973,1,466,887,712
259369727,43350,-0.0874,-0.1318,1.0186,10.3760,-2.5024,-2.3804,1,466,926,712
259374733,43351,-0.0796,-0.1235,1.0264,10.3760,-1.5869,-2.3193,1,465,902,712
259379729,43352,-0.0757,-0.1177,1.0269,10.6201,-1.0376,-2.0142,1,466,905,712
259384744,43353,-0.0791,-0.1245,1.0186,10.2539,0.3052,-1.8311,1,466,894,712
259389732,43354,-0.0972,-0.1313,1.0054,11.3525,0.2441,-1.5869,1,466,896,712
259394726,43355,-0.1104,-0.1284,1.0000,11.5967,-0.7324,-1.7090,1,493,902,712
259399728,43356,-0.1025,-0.1245,1.0083,11.9629,-1.5259,-1.4648,1,482,894,712
259404734,43357,-0.0835,-0.1230,1.0200,12.0239,-1.2817,-1.6479,1,464,830,712
259409728,43358,-0.0801,-0.1260,1.0166,12.5122,-0.3662,-1.5869,1,496,830,712
259414729,43359,-0.0972,-0.1250,1.0005,13.3667,-1.1597,-1.7090,1,483,862,712
259419729,43360,-0.1118,-0.1250,0.9893,13.6719,-2.6855,-2.0752,1,493,829,712
259424732,43361,-0.1079,-0.1240,0.9922,14.2822,-3.9673,-2.4414,1,501,900,712
259429728,43362,-0.0996,-0.1201,0.9985,14.7705,-4.5166,-2.7466,1,489,867,712
259434725,43363,-0.1050,-0.1177,0.9961,15.4419,-4.9438,-2.9297,1,494,867,712
259439734,43364,-0.1177,-0.1152,0.9907,15.9912,-6.2866,-3.7231,1,474,869,712
259444730,43365,-0.1299,-0.1138,0.9888,16.7236,-7.9346,-5.3711,1,470,909,712
259449725,43366,-0.1372,-0.1152,0.9873,17.5171,-10.0098,-6.8359,1,474,877,712
259454733,43367,-0.1294,-0.1138,0.9907,18.0054,-12.5122,-7.3853,1,484,889,712
259459728,43368,-0.1201,-0.1035,0.9951,18.0054,-13.9160,-7.9956,1,466,912,712
259464726,43369,-0.1406,-0.1074,0.9790,17.8833,-15.8081,-8.4229,1,466,916,712
259469725,43370,-0.2158,-0.1260,0.9272,18.3105,-20.6909,-7.6904,1,466,916,712
259474727,43371,-0.2935,-0.1089,0.8809,18.5547,-31.1279,-6.7139,1,466,917,712
259479730,43372,-0.3091,-0.0688,0.9014,18.0054,-40.6494,-9.3384,1,466,909,712
259484725,43373,-0.2388,-0.0703,0.9507,19.4092,-45.2270,-8.7891,1,466,903,712
259489726,43374,-0.1465,-0.0918,0.9800,17.4561,-49.6826,-8.7280,1,466,904,712
259494729,43375,-0.1240,-0.0605,1.0195,15.3809,-53.1006,-11.5967,1,466,911,712
259499730,43376,-0.0898,-0.0093,1.0718,12.5122,-58.2886,-9.0942,1,466,933,712
259504726,43377,-0.0298,-0.0093,1.1030,5.3711,-56.0303,-9.7656,1,494,916,712
259509729,43378,-0.0039,-0.0312,1.1084,4.7607,-55.4810,-8.6670,1,466,815,712
259514727,43379,-0.0054,-0.0410,1.0928,2.6855,-54.5044,-8.1177,1,478,846,712
259519725,43380,-0.0264,-0.0483,1.0669,-0.6714,-54.0771,-8.0566,1,489,855,712
259524733,43381,-0.0654,-0.0527,1.0356,-1.8311,-54.9927,-7.3242,1,480,868,712
259529731,43382,-0.1138,-0.0552,1.0063,-4.0283,-58.2886,-6.8970,1,499,904,712
259534725,43383,-0.1060,-0.0708,1.0166,-6.1035,-63.5986,-6.0425,1,491,861,712
259539729,43384,-0.0327,-0.0908,1.0645,-6.2256,-64.4531,-5.6763,1,496,863,712
259544728,43385,0.0376,-0.0938,1.0991,-5.8594,-62.0117,-5.3711,1,470,893,712
259549732,43386,0.0654,-0.0889,1.0981,-6.5308,-59.3262,-5.7983,1,476,905,712
259554729,43387,0.0518,-0.0903,1.0801,-6.1646,-57.3730,-7.5684,1,483,885,712
259559725,43388,0.0015,-0.0981,1.0532,-4.9438,-56.0303,-8.5449,1,466,894,712
259564727,43389,-0.0552,-0.1099,1.0405,-4.6387,-58.7769,-8.6670,1,466,898,712
259569727,43390,-0.0835,-0.1099,1.0449,-4.5166,-62.5000,-9.0942,1,466,900,712
259574725,43391,-0.0767,-0.0928,1.0503,-4.5776,-65.9790,-8.9111,1,466,905,712
259579725,43392,-0.0654,-0.0752,1.0552,-5.9814,-68.9697,-8.3618,1,465,895,712
259584730,43393,-0.0718,-0.0664,1.0513,-7.2632,-72.9980,-7.9346,1,466,901,712
259589725,43394,-0.0850,-0.0635,1.0454,-9.0332,-77.9419,-8.9722,1,466,894,712
259594730,43395,-0.0723,-0.0596,1.0435,-11.9629,-85.4492,-11.9629,1,466,894,712
259599729,43396,-0.1079,-0.0171,1.0391,-15.0146,-89.7827,-19.1650,1,492,935,712
259604730,43397,-0.3232,0.0596,1.0405,-20.4468,-100.0976,-29.7241,1,466,928,712
259609731,43398,-0.6885,0.1440,1.0581,-32.4097,-129.2114,-45.2270,1,494,941,712
259614730,43399,-1.0679,0.1567,1.0581,-46.1426,-173.3398,-58.5937,1,483,934,712
259619727,43400,-1.3457,0.1099,1.0220,-51.6968,-230.8349,-63.8428,1,482,845,712
259624725,43401,-1.2983,0.0215,1.1709,-58.8989,-296.6309,-63.9038,1,493,924,712
259629726,43402,-0.5166,-0.0127,1.4253,-63.9648,-365.4785,-54.4434,1,482,878,712
259634733,43403,0.0190,0.2139,1.5112,-79.8950,-360.2295,-60.9131,1,491,937,712
259639729,43404,-0.8550,0.5278,1.7197,-119.2627,-376.1596,-72.2656,1,493,892,712
259644731,43405,-1.7456,0.6089,2.0024,-148.2544,-485.6567,-69.1528,1,493,911,712
259649728,43406,-1.5229,0.4746,2.0254,-176.8799,-566.1621,-75.2563,1,465,902,712
259654731,43407,-1.3193,0.1689,2.0576,-214.1723,-598.1445,-93.5669,1,471,943,712
259659730,43408,-1.7192,-0.1416,2.0977,-214.2334,-693.9697,-107.0557,1,483,937,712
259664730,43409,-1.9419,-0.2739,1.7769,-213.0127,-791.9311,-115.6616,1,466,955,712
259669727,43410,-1.7607,-0.4780,1.1191,-226.8677,-826.1108,-135.4370,1,466,956,712
259674732,43411,-1.4780,-0.7764,0.4824,-194.6411,-865.7226,-159.0576,1,466,952,712
259679729,43412,-1.4238,-0.6626,0.3545,-156.4331,-925.1098,-176.5747,1,466,948,712
259684727,43413,-0.8965,0.0020,0.4346,-136.2915,-999.5727,-199.5849,1,466,953,712
259689728,43414,1.4297,0.0557,1.6362,-111.9385,-911.8041,-208.1299,1,465,945,712
259694725,43415,4.1738,-0.8232,4.5972,-54.8096,-669.7997,-212.4634,1,466,952,712
259699732,43416,4.5576,-1.4404,6.8872,16.0522,-409.2407,-204.2236,1,466,957,712
259704725,43417,2.1685,-1.5781,6.8130,9.9487,-183.8989,-193.0542,1,466,949,712
259709729,43418,-0.9194,-1.5732,5.2822,9.8267,-68.9087,-177.1850,1,466,940,712
259714730,43419,-2.0166,-1.1885,3.3604,19.8975,15.5029,-138.4277,1,494,929,712
259719730,43420,-1.2661,-1.0474,2.9668,32.9590,81.4209,-127.6855,1,494,935,712
259724730,43421,-1.0415,-0.9292,2.3486,35.9497,124.0845,-118.0420,1,478,838,712
259729731,43422,-1.2070,-0.8247,1.6284,37.8418,139.2212,-108.9477,1,506,841,712
259734733,43423,-1.3218,-0.7261,1.0903,42.8467,142.1509,-102.1728,1,492,900,712
259739728,43424,-1.2153,-0.6494,0.8418,46.9971,144.8975,-96.3135,1,476,906,712
259744725,43425,-0.9966,-0.6187,0.7959,50.7812,151.0010,-90.8813,1,488,949,712
259749727,43426,-0.8154,-0.6279,0.8149,54.4434,159.4849,-85.5102,1,487,888,712
259754726,43427,-0.7109,-0.6479,0.8330,57.1899,168.1518,-79.4067,1,510,910,712
259759731,43428,-0.6440,-0.6631,0.8535,57.6782,177.6123,-72.5708,1,466,940,712
259764733,43429,-0.5840,-0.6777,0.8848,56.8237,188.9038,-65.3687,1,482,922,712
259769725,43430,-0.5293,-0.6938,0.9180,55.2368,201.2329,-58.0444,1,466,920,712
259774725,43431,-0.4780,-0.7031,0.9482,52.0019,213.4399,-50.5981,1,466,945,712
259779726,43432,-0.4189,-0.7061,0.9775,47.3022,225.5249,-42.8467,1,466,946,712
259784730,43433,-0.3525,-0.7070,1.0044,41.8701,238.4033,-34.6680,1,466,942,712
259789727,43434,-0.2930,-0.7041,1.0210,36.3159,251.7700,-26.6724,1,466,935,712
259794733,43435,-0.2422,-0.6948,1.0239,30.8838,264.5264,-18.6157,1,466,936,712
259799728,43436,-0.1895,-0.6807,1.0117,25.5737,276.9165,-10.4980,1,466,932,712
259804730,43437,-0.1392,-0.6631,0.9775,21.1182,289.0625,-2.5024,1,466,938,712
259809726,43438,-0.1016,-0.6362,0.9175,17.8223,299.6216,4.9438,1,466,914,712
259814729,43439,-0.0786,-0.5972,0.8398,14.8315,307.6782,11.6577,1,466,910,712
259819744,43440,-0.0620,-0.5532,0.7593,12.2681,312.9272,17.3340,1,471,943,712
259824729,43441,-0.0518,-0.5024,0.6885,9.3994,315.2466,21.9116,1,494,930,712
259829733,43442,-0.0483,-0.4438,0.6401,5.0659,314.0259,25.3296,1,490,815,712
259834731,43443,-0.0366,-0.3857,0.6265,-1.1597,310.2417,27.7100,1,493,898,712
259839730,43444,-0.0039,-0.3359,0.6455,-8.9111,305.9692,29.3579,1,488,874,712
259844729,43445,0.0405,-0.2974,0.6875,-17.6392,302.7344,30.3345,1,478,922,712
259849725,43446,0.0801,-0.2690,0.7471,-26.8555,300.7812,30.8228,1,479,881,712
259854728,43447,0.1055,-0.2524,0.8257,-36.3770,299.7437,31.2500,1,487,916,712
259859729,43448,0.1216,-0.2500,0.9282,-45.2270,299.0723,31.6162,1,506,897,712
259864732,43449,0.1362,-0.2637,1.0479,-52.9175,299.3774,32.2876,1,482,886,712
259869729,43450,0.1465,-0.2881,1.1646,-58.5937,300.8423,33.2642,1,477,914,712
259874725,43451,0.1489,-0.3066,1.2642,-62.5000,302.2461,34.6680,1,483,907,712
259879732,43452,0.1567,-0.3096,1.3491,-65.9790,303.4668,36.6211,1,466,930,712
259884727,43453,0.1802,-0.3042,1.4243,-69.4580,305.3589,38.9404,1,466,922,712
259889729,43454,0.2139,-0.2993,1.4834,-72.3267,308.2275,41.5039,1,466,920,712
259894726,43455,0.2412,-0.2954,1.5210,-74.7681,311.0352,44.1894,1,466,933,712
259899726,43456,0.2529,-0.2886,1.5420,-77.1484,312.8052,46.8750,1,466,930,712
259904730,43457,0.2573,-0.2817,1.5581,-79.7729,312.7441,49.7436,1,466,931,712
259909747,43458,0.2681,-0.2837,1.5771,-82.2754,311.8896,52.9175,1,466,943,712
259914730,43459,0.2842,-0.2964,1.6040,-84.4726,311.1572,56.5796,1,466,938,712
259919730,43460,0.2998,-0.3120,1.6396,-85.9375,310.3027,60.5469,1,492,938,712
259924732,43461,0.3174,-0.3237,1.6899,-87.2192,310.3027,65.3076,1,465,938,712
259929726,43462,0.3306,-0.3340,1.7559,-87.8296,312.1338,70.3735,1,494,935,712
259934729,43463,0.2471,-0.3413,1.8140,-87.0361,314.6973,73.1812,1,483,855,712
259939727,43464,0.2583,-0.3394,1.8867,-83.0688,318.0542,83.7402,1,486,881,712
259944733,43465,0.3779,-0.3276,1.9731,-86.5478,325.7446,89.2334,1,498,890,712
259949725,43466,0.3730,-0.3213,2.0396,-85.3271,331.7871,87.0361,1,493,910,712
259954728,43467,0.3398,-0.2876,2.0659,-75.3784,334.8999,94.1162,1,491,941,712
259959729,43468,0.3213,-0.2285,2.0562,-79.1016,342.4682,94.7266,1,498,905,712
259964728,43469,0.3071,-0.1909,2.0366,-78.2471,346.3134,95.7642,1,493,905,712
259969732,43470,0.3076,-0.1699,2.0103,-73.6084,348.1445,95.7642,1,472,937,712
259974726,43471,0.3179,-0.1616,1.9858,-72.3877,350.5859,93.0176,1,468,918,712
259979729,43472,0.3354,-0.1655,1.9756,-70.1294,351.0742,91.3696,1,483,920,712
259984732,43473,0.3564,-0.1714,1.9814,-67.1387,350.7080,87.9517,1,466,939,712
259989729,43474,0.3652,-0.1680,1.9937,-64.8804,349.0600,83.4351,1,466,935,712
259994725,43475,0.4023,-0.1621,2.0210,-63.4766,347.7173,78.3691,1,466,932,712
259999726,43476,0.4717,-0.1621,2.0576,-63.8428,346.6797,73.4863,1,466,938,712
260004729,43477,0.5288,-0.1592,2.0762,-67.1387,346.1303,65.8569,1,466,942,712
260009726,43478,0.5737,-0.1641,2.0903,-71.4111,344.4824,59.0210,1,466,933,712
260014736,43479,0.6299,-0.1694,2.1064,-71.2280,338.6841,52.9785,1,466,936,712
260019733,43480,0.7114,-0.1650,2.1196,-78.6133,334.8999,45.9595,1,466,941,712
260024731,43481,0.8096,-0.1680,2.1372,-85.5713,328.6133,41.1377,1,492,942,712
260029749,43482,0.9194,-0.1831,2.1440,-92.1020,322.0215,35.2783,1,475,945,712
260034728,43483,1.0410,-0.2051,2.1436,-96.4355,315.3687,31.2500,1,494,942,712
260039731,43484,1.1680,-0.2227,2.1250,-101.1963,306.9458,31.0669,1,479,860,712
260044730,43485,1.2891,-0.2412,2.0771,-107.5439,298.4619,27.2217,1,485,835,712
260049728,43486,1.4258,-0.2627,2.0107,-107.9101,286.9873,27.9541,1,474,907,712
260054729,43487,1.5977,-0.2720,1.9165,-106.8726,275.9399,30.3955,1,476,910,712
260059729,43488,1.7822,-0.2627,1.7876,-105.4687,265.8691,32.4707,1,486,957,712
260064727,43489,1.9521,-0.2163,1.6177,-99.3042,254.1504,36.1328,1,490,902,712
260069733,43490,2.1040,-0.1079,1.4102,-92.8955,240.4785,37.5977,1,510,907,712
260074731,43491,2.2534,0.0630,1.1855,-87.7685,223.9380,35.5225,1,482,936,712
260079727,43492,2.4136,0.2764,0.9580,-83.1909,205.1391,29.0527,1,482,925,712
260084725,43493,2.5728,0.5029,0.7393,-80.6274,184.6313,16.6626,1,466,927,712
260089728,43494,2.7085,0.7085,0.5459,-79.4067,161.4380,-0.2441,1,466,939,712
260094730,43495,2.8135,0.8545,0.3911,-79.7119,135.5591,-20.0195,1,466,918,712
260099727,43496,2.8970,0.8989,0.2832,-80.3833,107.3608,-39.6729,1,466,924,712
260104730,43497,2.9653,0.8213,0.2217,-78.5522,78.0029,-55.3589,1,465,940,712
260109729,43498,3.0117,0.6411,0.2065,-71.7773,48.3398,-64.5752,1,466,929,712
260114734,43499,3.0107,0.3892,0.2319,-58.3496,19.1650,-65.8569,1,466,932,712
260119756,43500,2.9434,0.1167,0.2910,-36.3159,-11.3525,-59.9365,1,466,932,712
260124733,43501,2.8398,-0.1084,0.3960,-8.3618,-43.0908,-48.2788,1,466,941,712
260129732,43502,2.7168,-0.2939,0.5708,20.6909,-72.5708,-33.0811,1,466,926,712
260134728,43503,2.5693,-0.2446,0.2246,47.0581,-136.7188,-22.2168,1,493,925,712
260139729,43504,0.8447,0.2661,-0.6963,79.5898,-257.4463,-0.8545,1,482,983,712
260144726,43505,-1.5259,0.3052,-0.5098,36.0107,-313.3545,-27.8931,1,479,811,712
260149730,43506,-1.7231,-0.3789,0.9507,2.6245,-298.2788,-25.7568,1,491,881,712
260154728,43507,-1.0757,-1.1011,1.9106,-0.1221,-238.6474,-16.9678,1,487,862,712
260159734,43508,-1.0996,-2.0679,1.6592,41.7480,-222.9004,-25.8789,1,477,876,712
260164730,43509,-0.9141,-2.7749,0.4951,148.1323,-283.9966,-4.3335,1,482,905,712
260169728,43510,-0.3359,-2.0508,-0.8784,251.9531,-324.8291,14.5874,1,509,892,712
260174728,43511,-0.1724,-0.1626,-1.5391,242.3096,-376.3427,18.9819,1,467,943,712
260179729,43512,-0.1714,1.1460,-0.9956,126.7700,-452.9419,14.6484,1,468,924,712
260184726,43513,0.1064,0.8257,0.5562,17.7002,-473.9990,23.9868,1,484,934,712
260189730,43514,0.4570,-0.1948,2.3003,13.1226,-453.7964,46.3867,1,466,932,712
260194731,43515,0.7285,-0.3223,3.3604,57.3120,-421.4477,57.9224,1,466,947,712
260199733,43516,0.8438,0.5986,3.5190,65.4907,-375.9765,44.4946,1,465,949,712
260204727,43517,0.7310,1.5444,3.1553,51.8188,-333.4961,23.9258,1,466,976,712
260209725,43518,0.5054,1.9429,2.7148,46.7529,-304.6265,2.5024,1,466,944,712
260214730,43519,0.3110,1.8262,2.4287,36.4990,-281.0059,-21.2402,1,466,922,712
260219729,43520,0.2324,1.3247,2.3018,21.0571,-261.7188,-40.7104,1,466,933,712
260224725,43521,0.2920,0.5879,2.1992,11.2305,-242.9199,-52.1240,1,466,978,712
260229730,43522,0.3296,-0.2036,1.9673,7.4463,-221.6186,-55.9082,1,492,947,712
260234728,43523,0.2593,-0.8560,1.5903,8.6670,-212.3413,-49.9268,1,466,925,712
260239728,43524,0.1699,-1.2275,1.2373,8.6060,-211.1816,-36.8042,1,494,925,712
260244734,43525,-0.1992,-1.7036,1.2295,5.1270,-201.2939,-14.4043,1,484,822,712
260249730,43526,-0.3369,-2.2544,1.7485,40.5273,-224.0600,32.2266,1,488,853,712
260254732,43527,0.4883,-2.1357,2.2739,100.1587,-244.8120,49.6826,1,490,912,712
260259727,43528,1.1348,-1.5142,2.4048,119.3848,-164.2456,46.6309,1,499,916,712
260264727,43529,0.8691,-0.7085,2.3740,156.1890,-133.0566,51.8799,1,493,945,712
260269730,43530,0.4521,0.1763,2.3291,162.3535,-125.9155,46.2036,1,475,896,712
260274732,43531,0.2729,0.7339,2.2407,140.0757,-93.2007,36.3159,1,494,919,712
260279727,43532,0.1851,0.8232,2.0518,117.4316,-64.3921,27.8320,1,470,881,712
260284732,43533,0.1226,0.5181,1.7979,94.9707,-49.6216,20.3247,1,473,917,712
260289727,43534,0.0728,0.0620,1.5483,84.3506,-38.2690,18.2495,1,484,914,712
260294725,43535,0.0166,-0.2139,1.3633,81.7261,-32.3486,17.5781,1,466,924,712
260299733,43536,-0.0190,-0.1870,1.2764,79.8340,-28.6865,16.7847,1,466,927,712
260304732,43537,-0.0908,0.0825,1.3208,73.1201,-22.3389,13.2446,1,466,926,712
260309729,43538,-0.1064,0.3877,1.4536,56.5186,-24.3530,5.2490,1,466,933,712
260314726,43539,0.0015,0.4385,1.5054,36.3770,-16.2354,0.3662,1,466,925,712
260319732,43540,0.0488,0.1973,1.3882,23.6816,-3.4790,-0.2441,1,466,896,712
260324738,43541,-0.0293,-0.0698,1.1777,20.0806,0.7935,0.7324,1,466,905,712
260329725,43542,-0.1357,-0.1465,1.0132,18.5547,-0.9766,1.3428,1,465,895,712
260334725,43543,-0.1846,-0.0654,0.9722,15.6250,-3.2959,0.5493,1,493,890,712
260339748,43544,-0.1714,0.0029,1.0117,9.0942,-4.3335,-0.4883,1,479,899,712
260344732,43545,-0.1265,-0.0293,1.0371,5.0659,-5.1880,0.3052,1,494,824,712
260349733,43546,-0.1006,-0.1079,1.0220,4.2725,-4.5166,0.6714,1,496,804,712
260354729,43547,-0.0986,-0.1431,1.0083,5.0049,-5.2490,1.5869,1,493,839,712
260359725,43548,-0.1011,-0.1284,1.0142,4.6997,-5.2490,1.3428,1,483,848,712
260364726,43549,-0.0977,-0.1167,1.0298,3.9062,-5.9204,1.0376,1,474,845,712
260369726,43550,-0.0825,-0.1245,1.0464,4.0894,-5.9814,0.4272,1,484,838,712
260374725,43551,-0.0723,-0.1348,1.0542,4.4556,-5.4932,-0.7935,1,489,847,712
260379730,43552,-0.0791,-0.1426,1.0425,4.6997,-4.8828,-2.2583,1,509,848,712
260384729,43553,-0.0972,-0.1562,1.0161,5.2490,-5.7983,-3.5400,1,482,844,712
260389725,43554,-0.1094,-0.1714,0.9976,6.3477,-7.7515,-4.5166,1,484,897,712
260394730,43555,-0.1030,-0.1768,0.9990,7.7515,-8.7891,-5.1270,1,466,883,712
260399730,43556,-0.0884,-0.1641,1.0142,8.9722,-9.2163,-5.2490,1,466,882,712
260404726,43557,-0.0791,-0.1411,1.0269,8.9722,-9.7046,-5.2490,1,466,883,712
260409728,43558,-0.0781,-0.1211,1.0249,8.6670,-9.7046,-4.8218,1,466,886,712
260414730,43559,-0.0864,-0.1099,1.0142,7.6294,-9.6436,-4.6387,1,466,883,712
260419725,43560,-0.0952,-0.1030,1.0112,6.7749,-10.6201,-3.9673,1,466,882,712
260424732,43561,-0.0947,-0.0967,1.0137,5.7373,-10.9253,-3.5400,1,466,905,712
260429731,43562,-0.0884,-0.0938,1.0166,4.2114,-11.2305,-3.2349,1,466,898,712
260434729,43563,-0.0854,-0.0942,1.0200,2.9297,-11.5967,-2.9297,1,466,925,712
260439728,43564,-0.0869,-0.1025,1.0200,2.3804,-11.3525,-2.8076,1,466,899,712
260444733,43565,-0.0879,-0.1147,1.0181,2.0142,-11.7798,-2.6245,1,494,902,712
260449729,43566,-0.0786,-0.1187,1.0273,1.8921,-11.7187,-2.6855,1,481,832,712
260454728,43567,-0.0625,-0.1211,1.0391,1.6479,-10.3760,-2.8076,1,479,848,712
260459727,43568,-0.0522,-0.1289,1.0366,2.4414,-9.1553,-2.6245,1,489,830,712
260464728,43569,-0.0562,-0.1353,1.0259,3.1738,-7.3242,-2.6245,1,501,864,712
260469729,43570,-0.0659,-0.1328,1.0161,4.0894,-7.1411,-2.6245,1,487,851,712
260474727,43571,-0.0718,-0.1270,1.0132,4.4556,-5.5542,-2.7466,1,496,861,712
260479729,43572,-0.0703,-0.1299,1.0142,5.2490,-5.1270,-2.6245,1,494,850,712
260484733,43573,-0.0610,-0.1304,1.0190,6.4087,-3.6011,-2.4414,1,474,867,712
260489725,43574,-0.0596,-0.1333,1.0186,6.6528,-2.1973,-2.4414,1,471,859,712
260494725,43575,-0.0635,-0.1343,1.0117,7.9346,-1.8921,-2.0142,1,483,872,712
260499733,43576,-0.0674,-0.1401,1.0029,8.6060,-1.1597,-2.1362,1,466,880,712
260504728,43577,-0.0796,-0.1470,0.9917,10.5591,-0.8545,-2.1973,1,465,885,712
260509731,43578,-0.0913,-0.1406,0.9873,12.0850,-2.0752,-2.8687,1,466,893,712
260514733,43579,-0.0957,-0.1392,0.9868,13.4277,-2.6855,-3.1738,1,466,901,712
260519726,43580,-0.1021,-0.1362,0.9854,15.1978,-3.6011,-3.6011,1,465,912,712
260524733,43581,-0.1069,-0.1377,0.9814,16.6016,-4.8828,-4.3945,1,466,893,712
260529733,43582,-0.1108,-0.1333,0.9800,18.3105,-6.6528,-4.8218,1,466,899,712
260534733,43583,-0.1055,-0.1265,0.9849,19.4092,-8.4229,-5.4932,1,466,901,712
260539732,43584,-0.0977,-0.1265,0.9922,20.7520,-9.5825,-5.6763,1,492,889,712
260544738,43585,-0.0923,-0.1216,0.9976,21.6064,-10.8032,-6.0425,1,468,896,712
260549733,43586,-0.0864,-0.1147,1.0044,22.4609,-12.0239,-6.3477,1,494,912,712
260554731,43587,-0.0854,-0.0981,1.0132,22.2778,-13.3057,-6.3477,1,489,919,712
260559730,43588,-0.0747,-0.0840,1.0249,21.4233,-13.9770,-6.2866,1,493,844,712
260564733,43589,-0.0581,-0.0811,1.0366,20.7520,-13.9160,-6.3477,1,481,886,712
260569725,43590,-0.0488,-0.0615,1.0391,19.5923,-13.5498,-6.3477,1,489,887,712
260574730,43591,-0.0552,-0.0537,1.0347,18.1274,-13.1226,-6.2866,1,486,872,712
260579726,43592,-0.1182,-0.0464,1.0088,15.8081,-16.4795,-5.2490,1,487,883,712
260584730,43593,-0.1104,-0.0317,1.0161,12.1460,-19.0430,-5.7373,1,509,877,712
260589727,43594,-0.0811,-0.0449,1.0312,10.9253,-19.4092,-5.6763,1,465,895,712
260594726,43595,-0.0645,-0.0503,1.0391,9.8267,-19.7754,-5.7373,1,484,914,712
260599728,43596,-0.0825,-0.0630,1.0244,8.4839,-20.6299,-5.7373,1,466,888,712
260604727,43597,-0.1250,-0.0571,0.9980,7.2021,-23.9868,-4.5166,1,466,903,712
260609726,43598,-0.1401,-0.0356,0.9917,4.6387,-28.5645,-3.9673,1,466,907,712
260614729,43599,-0.1060,-0.0435,1.0122,2.2583,-30.3345,-4.2114,1,466,903,712
260619732,43600,-0.0664,-0.0669,1.0317,1.6479,-31.0669,-4.3335,1,466,904,712
260624733,43601,-0.0659,-0.0742,1.0244,1.4648,-31.6772,-4.6387,1,466,901,712
260629733,43602,-0.0845,-0.0688,1.0054,0.3662,-34.3018,-4.8828,1,466,908,712
260634725,43603,-0.0767,-0.0659,1.0068,-0.7935,-36.7432,-5.1270,1,466,891,712
260639725,43604,-0.0566,-0.0649,1.0215,-1.4038,-37.4146,-5.5542,1,466,891,712
260644730,43605,-0.0513,-0.0615,1.0308,-1.8311,-38.4521,-5.6152,1,466,895,712
260649725,43606,-0.0571,-0.0640,1.0332,-3.0518,-39.7949,-5.6152,1,494,893,712
260654726,43607,-0.0547,-0.0679,1.0366,-3.6011,-41.5039,-5.3101,1,482,823,712
260659725,43608,-0.0371,-0.0684,1.0439,-4.5166,-42.5415,-5.1880,1,476,862,712
260664727,43609,-0.0210,-0.0693,1.0469,-5.4932,-42.4805,-5.0659,1,508,867,712
260669725,43610,-0.0186,-0.0752,1.0449,-5.9204,-42.7856,-4.8828,1,496,866,712
260674731,43611,-0.0049,-0.0923,1.0479,-5.7373,-43.8232,-5.2490,1,487,866,712
260679726,43612,0.0132,-0.0991,1.0483,-4.9438,-42.9077,-5.7983,1,490,860,712
260684732,43613,-0.0112,-0.0913,1.0381,-4.7607,-42.9077,-5.6763,1,494,877,712
260689732,43614,-0.0552,-0.0898,1.0273,-5.1270,-46.1426,-5.5542,1,467,854,712
260694727,43615,-0.0649,-0.0981,1.0269,-5.1270,-49.6216,-5.7983,1,470,882,712
260699731,43616,-0.0425,-0.1030,1.0347,-4.2114,-51.3306,-6.0425,1,484,888,712
260704729,43617,-0.0151,-0.1025,1.0449,-3.8452,-52.7344,-6.0425,1,466,898,712
260709729,43618,-0.0034,-0.0967,1.0498,-3.8452,-53.5889,-5.6763,1,466,907,712
260714725,43619,-0.0020,-0.0830,1.0503,-3.9062,-54.6265,-4.8828,1,466,902,712
260719731,43620,-0.0010,-0.0718,1.0488,-4.6997,-56.3354,-3.3569,1,465,896,712
260724733,43621,0.0166,-0.0654,1.0488,-5.8594,-58.4106,-3.2349,1,466,902,712
260729731,43622,0.0479,-0.0518,1.0479,-6.1646,-58.4106,-5.0049,1,466,906,712
260734726,43623,0.0190,-0.0464,1.0386,-8.3618,-58.6548,-8.2397,1,466,894,712
260739730,43624,-0.1016,-0.0669,1.0181,-10.0098,-63.7817,-11.5967,1,466,903,712
260744728,43625,-0.2524,-0.0947,1.0010,-10.6812,-75.3174,-13.7329,1,466,919,712
260749731,43626,-0.4707,-0.1050,0.9912,-11.7798,-90.8203,-17.1509,1,466,930,712
