t_us, seq, ax, ay, az, gx, gy, gz, valid, t_imu_us, t_serial_us, missed
2078218928,410078,-0.0161,0.0034,1.0234,-0.1221,0.4272,-0.3052,1,466,877,2421
2078223923,410079,-0.0161,0.0034,1.0225,0.0000,0.4272,-0.3662,1,476,865,2421
2078228925,410080,-0.0166,0.0029,1.0229,-0.0610,0.5493,-0.3662,1,465,875,2421
2078233927,410081,-0.0161,0.0029,1.0234,-0.1831,0.5493,-0.4272,1,482,908,2421
2078238924,410082,-0.0146,0.0024,1.0225,-0.3052,0.5493,-0.4272,1,465,873,2421
2078243928,410083,-0.0156,0.0020,1.0215,-0.1831,0.6104,-0.4272,1,469,867,2421
2078248923,410084,-0.0161,0.0024,1.0220,-0.0610,0.4883,-0.4272,1,465,872,2421
2078253924,410085,-0.0176,0.0020,1.0229,-0.1831,0.6104,-0.3662,1,473,858,2421
2078258929,410086,-0.0181,0.0020,1.0239,-0.3662,0.6104,-0.3052,1,498,789,2421
2078263928,410087,-0.0171,0.0020,1.0229,-0.2441,0.6104,-0.3662,1,482,775,2421
2078268927,410088,-0.0161,0.0015,1.0225,-0.3052,0.5493,-0.4272,1,489,855,2421
2078273929,410089,-0.0161,0.0015,1.0234,-0.4272,0.7324,-0.4272,1,478,845,2421
2078278922,410090,-0.0171,0.0029,1.0244,-0.3662,0.6104,-0.3662,1,483,852,2421
2078283925,410091,-0.0186,0.0020,1.0244,-0.4272,0.6714,-0.3052,1,475,846,2421
2078288923,410092,-0.0171,0.0005,1.0239,-0.3052,0.7935,-0.3052,1,480,843,2421
2078293924,410093,-0.0151,0.0005,1.0229,-0.4272,0.7324,-0.3052,1,493,834,2421
2078298924,410094,-0.0151,0.0010,1.0220,-0.3662,0.7324,-0.1831,1,466,872,2421
2078303923,410095,-0.0161,0.0005,1.0210,-0.3662,0.7324,-0.2441,1,466,878,2421
2078308925,410096,-0.0166,0.0005,1.0215,-0.3052,0.7324,-0.3052,1,466,876,2421
2078313940,410097,-0.0176,0.0005,1.0234,-0.4883,0.6714,-0.2441,1,466,866,2421
2078318922,410098,-0.0186,0.0010,1.0239,-0.3662,0.5493,-0.2441,1,466,872,2421
2078323925,410099,-0.0190,0.0015,1.0234,-0.3052,0.5493,-0.2441,1,484,877,2421
2078328923,410100,-0.0190,0.0010,1.0229,-0.3662,0.5493,-0.1831,1,475,865,2421
2078333928,410101,-0.0186,0.0000,1.0225,-0.3052,0.4272,-0.3662,1,465,877,2421
2078338925,410102,-0.0186,-0.0005,1.0220,-0.3662,0.3662,-0.4272,1,483,821,2421
2078343926,410103,-0.0186,-0.0005,1.0215,-0.3662,0.4272,-0.2441,1,469,863,2421
2078348923,410104,-0.0186,0.0010,1.0215,-0.4272,0.4883,-0.3662,1,472,863,2421
2078353929,410105,-0.0190,0.0024,1.0225,-0.3052,0.5493,-0.4272,1,501,870,2421
2078358926,410106,-0.0195,0.0034,1.0244,-0.2441,0.3662,-0.2441,1,477,857,2421
2078363930,410107,-0.0186,0.0034,1.0254,-0.1831,0.4272,-0.1831,1,505,867,2421
2078368927,410108,-0.0171,0.0020,1.0254,-0.2441,0.3052,-0.3052,1,494,757,2421
2078373928,410109,-0.0156,0.0010,1.0249,-0.3662,0.3052,-0.3662,1,481,838,2421
2078378924,410110,-0.0166,0.0005,1.0234,-0.3662,0.4272,-0.2441,1,486,845,2421
2078383930,410111,-0.0176,-0.0005,1.0220,-0.1831,0.4272,-0.2441,1,479,871,2421
2078388922,410112,-0.0176,0.0005,1.0215,-0.1831,0.4272,-0.2441,1,481,846,2421
2078393924,410113,-0.0186,0.0010,1.0220,-0.3052,0.3052,-0.2441,1,472,846,2421
2078398926,410114,-0.0186,0.0005,1.0220,-0.2441,0.4883,-0.2441,1,493,836,2421
2078403928,410115,-0.0176,0.0010,1.0220,-0.2441,0.3052,-0.3052,1,466,843,2421
2078408929,410116,-0.0171,0.0020,1.0229,-0.4272,0.2441,-0.3052,1,466,863,2421
2078413930,410117,-0.0171,0.0015,1.0249,-0.4272,0.3662,-0.2441,1,466,875,2421
2078418937,410118,-0.0171,0.0020,1.0254,-0.4272,0.3662,-0.3052,1,466,878,2421
2078423928,410119,-0.0171,0.0020,1.0264,-0.4272,0.4272,-0.3662,1,465,871,2421
2078428928,410120,-0.0181,0.0020,1.0264,-0.4883,0.4272,-0.3052,1,483,876,2421
2078433926,410121,-0.0186,0.0010,1.0249,-0.4272,0.4883,-0.2441,1,467,856,2421
2078438931,410122,-0.0176,-0.0005,1.0225,-0.4272,0.4883,-0.2441,1,484,865,2421
2078443929,410123,-0.0161,-0.0020,1.0205,-0.3052,0.4883,-0.3662,1,472,899,2421
2078448927,410124,-0.0156,0.0000,1.0229,-0.4272,0.5493,-0.2441,1,479,863,2421
2078453930,410125,-0.0146,-0.0010,1.0249,-0.6104,0.5493,-0.2441,1,482,840,2421
2078458930,410126,-0.0151,-0.0010,1.0244,-0.5493,0.4883,-0.3052,1,483,865,2421
2078463930,410127,-0.0181,0.0000,1.0229,-0.4883,0.6104,-0.3052,1,469,852,2421
2078468928,410128,-0.0190,0.0005,1.0215,-0.4272,0.6104,-0.3052,1,494,733,2421
2078473929,410129,-0.0176,0.0000,1.0210,-0.4272,0.6104,-0.3052,1,511,742,2421
2078478926,410130,-0.0181,-0.0005,1.0205,-0.5493,0.4883,-0.3052,1,492,797,2421
2078483924,410131,-0.0181,-0.0005,1.0205,-0.5493,0.4883,-0.3052,1,485,836,2421
2078488930,410132,-0.0186,-0.0010,1.0215,-0.4272,0.3052,-0.2441,1,474,838,2421
2078493928,410133,-0.0200,-0.0020,1.0225,-0.3662,0.4272,-0.1831,1,479,841,2421
2078498930,410134,-0.0205,-0.0029,1.0229,-0.1831,0.4272,-0.1831,1,488,849,2421
2078503926,410135,-0.0190,-0.0015,1.0229,-0.2441,0.4883,-0.2441,1,484,853,2421
2078508925,410136,-0.0176,0.0010,1.0229,-0.3052,0.3052,-0.3052,1,466,850,2421
2078513924,410137,-0.0176,0.0024,1.0229,-0.4883,0.1831,-0.3662,1,466,861,2421
2078518927,410138,-0.0176,0.0005,1.0225,-0.3662,0.4272,-0.3662,1,466,881,2421
2078523940,410139,-0.0181,-0.0015,1.0210,-0.1831,0.3052,-0.3052,1,466,874,2421
2078528923,410140,-0.0190,-0.0020,1.0210,-0.1831,0.3052,-0.3662,1,466,863,2421
2078533926,410141,-0.0200,-0.0024,1.0225,-0.1831,0.1221,-0.3052,1,465,873,2421
2078538927,410142,-0.0190,-0.0024,1.0239,-0.1221,0.1831,-0.3052,1,477,859,2421
2078543924,410143,-0.0171,-0.0015,1.0244,-0.1221,0.1221,-0.3662,1,465,875,2421
2078548924,410144,-0.0166,-0.0005,1.0234,-0.0610,0.1221,-0.3052,1,471,859,2421
2078553929,410145,-0.0181,-0.0005,1.0225,-0.2441,0.1831,-0.2441,1,475,856,2421
2078558929,410146,-0.0190,-0.0010,1.0229,-0.1221,0.1831,-0.2441,1,476,862,2421
2078563923,410147,-0.0181,-0.0010,1.0234,-0.0610,0.1831,-0.3052,1,502,871,2421
2078568922,410148,-0.0171,0.0000,1.0234,-0.1221,0.1221,-0.3052,1,491,848,2421
2078573929,410149,-0.0166,-0.0005,1.0234,-0.0610,0.2441,-0.3052,1,497,758,2421
2078578931,410150,-0.0171,0.0000,1.0225,-0.0610,0.3052,-0.3662,1,466,851,2421
2078583922,410151,-0.0176,0.0005,1.0210,0.0000,0.2441,-0.3052,1,475,802,2421
2078588931,410152,-0.0176,0.0005,1.0220,0.0000,0.1221,-0.3662,1,492,790,2421
2078593925,410153,-0.0181,0.0005,1.0225,-0.0610,0.1221,-0.3662,1,473,792,2421
2078598922,410154,-0.0181,0.0000,1.0220,-0.0610,0.1221,-0.3662,1,488,837,2421
2078603923,410155,-0.0190,0.0000,1.0220,0.0610,0.0000,-0.3052,1,491,799,2421
2078608928,410156,-0.0195,-0.0005,1.0229,0.0610,-0.0610,-0.1831,1,493,754,2421
2078613930,410157,-0.0195,-0.0015,1.0225,0.0000,0.0000,-0.3052,1,466,871,2421
2078618925,410158,-0.0190,-0.0015,1.0220,0.0610,-0.1831,-0.3662,1,466,778,2421
2078623928,410159,-0.0190,-0.0010,1.0220,0.0000,-0.1221,-0.2441,1,465,875,2421
2078628930,410160,-0.0176,-0.0005,1.0220,0.0610,-0.0610,-0.3052,1,466,825,2421
2078633927,410161,-0.0166,0.0000,1.0229,0.0610,-0.0610,-0.2441,1,484,862,2421
2078638925,410162,-0.0181,0.0000,1.0234,0.0610,0.0000,-0.2441,1,465,827,2421
2078643927,410163,-0.0186,0.0000,1.0234,0.0000,-0.0610,-0.3052,1,484,830,2421
2078648928,410164,-0.0176,0.0005,1.0225,0.0610,-0.1831,-0.3052,1,466,781,2421
2078653928,410165,-0.0171,0.0005,1.0215,0.1831,-0.1221,-0.1831,1,469,854,2421
2078658950,410166,-0.0166,-0.0005,1.0220,0.2441,-0.1221,-0.2441,1,472,866,2421
2078663922,410167,-0.0161,-0.0015,1.0225,0.3052,-0.1831,-0.1831,1,476,862,2421
2078668931,410168,-0.0166,-0.0020,1.0225,0.2441,-0.0610,-0.2441,1,465,855,2421
2078673926,410169,-0.0171,-0.0015,1.0234,0.1831,0.0000,-0.3052,1,482,858,2421
2078678924,410170,-0.0171,-0.0005,1.0234,0.1221,0.0000,-0.3662,1,508,759,2421
2078683922,410171,-0.0171,0.0000,1.0220,0.1831,-0.0610,-0.3052,1,488,792,2421
2078688924,410172,-0.0166,0.0000,1.0210,0.2441,-0.1831,-0.3052,1,480,799,2421
2078693929,410173,-0.0156,-0.0005,1.0210,0.2441,-0.0610,-0.4272,1,487,806,2421
2078698928,410174,-0.0156,-0.0005,1.0220,0.2441,0.0610,-0.2441,1,490,863,2421
2078703928,410175,-0.0171,0.0010,1.0229,0.2441,-0.1221,-0.2441,1,491,844,2421
2078708929,410176,-0.0186,0.0005,1.0239,0.1831,0.0000,-0.4272,1,475,844,2421
2078713923,410177,-0.0186,0.0000,1.0244,0.4272,-0.1831,-0.1221,1,493,798,2421
2078718922,410178,-0.0171,0.0005,1.0249,0.0000,-0.2441,-0.1831,1,466,836,2421
2078723923,410179,-0.0156,0.0000,1.0264,0.1221,-0.1221,-0.3052,1,466,829,2421
2078728930,410180,-0.0156,0.0005,1.0244,1.1597,-0.3052,-0.3662,1,466,826,2421
2078733923,410181,-0.0171,0.0015,1.0205,0.4883,-0.3662,-0.3662,1,466,872,2421
2078738926,410182,-0.0171,0.0015,1.0210,0.4883,-0.3662,-0.1831,1,484,873,2421
2078743923,410183,-0.0142,0.0015,1.0225,0.3052,0.0000,-0.4272,1,466,859,2421
2078748923,410184,-0.0151,0.0005,1.0239,-0.2441,0.1221,-0.5493,1,484,851,2421
2078753923,410185,-0.0181,-0.0005,1.0244,0.0000,-0.2441,0.1831,1,473,903,2421
2078758930,410186,-0.0190,-0.0010,1.0234,0.3662,-0.4883,0.5493,1,476,825,2421
2078763944,410187,-0.0166,-0.0005,1.0200,0.6714,-0.4272,0.1221,1,470,873,2421
2078768922,410188,-0.0142,0.0000,1.0176,0.0000,0.0000,-0.7324,1,479,857,2421
2078773923,410189,-0.0161,-0.0010,1.0186,0.0000,0.0610,-1.0376,1,503,648,2421
2078778922,410190,-0.0181,-0.0010,1.0210,0.1831,-0.1221,-0.7935,1,482,700,2421
2078783928,410191,-0.0186,0.0005,1.0239,0.1831,-0.3052,-0.5493,1,505,743,2421
2078788923,410192,-0.0171,0.0024,1.0249,0.3052,-0.2441,-0.3052,1,473,834,2421
2078793923,410193,-0.0142,0.0034,1.0239,0.3052,-0.3052,-0.3052,1,490,842,2421
2078798922,410194,-0.0132,0.0020,1.0229,0.1831,-0.3052,-0.3052,1,476,840,2421
2078803926,410195,-0.0142,0.0005,1.0234,-0.1221,-0.1221,-0.4272,1,484,863,2421
2078808922,410196,-0.0146,-0.0005,1.0234,-0.0610,-0.0610,-0.3662,1,481,839,2421
2078813929,410197,-0.0146,0.0000,1.0239,0.0000,-0.1831,-0.3662,1,469,845,2421
2078818925,410198,-0.0151,0.0010,1.0239,-0.0610,-0.1221,-0.4272,1,493,767,2421
2078823927,410199,-0.0161,0.0005,1.0239,0.0610,-0.1221,-0.3662,1,466,872,2421
2078828924,410200,-0.0161,-0.0010,1.0239,0.0000,-0.2441,-0.2441,1,466,871,2421
2078833929,410201,-0.0156,-0.0005,1.0244,-0.0610,-0.1221,-0.3052,1,466,834,2421
2078838926,410202,-0.0151,0.0000,1.0249,0.0000,0.0610,-0.3052,1,466,866,2421
2078843923,410203,-0.0156,0.0000,1.0249,0.0610,-0.0610,-0.3662,1,465,776,2421
2078848923,410204,-0.0151,0.0000,1.0239,0.0000,-0.1221,-0.3662,1,466,778,2421
2078853927,410205,-0.0151,0.0000,1.0244,0.0000,0.0000,-0.4883,1,484,832,2421
2078858927,410206,-0.0146,0.0005,1.0249,0.3662,-0.1221,-0.4272,1,466,742,2421
2078863928,410207,-0.0137,0.0010,1.0234,0.6104,-0.1831,-0.3662,1,465,864,2421
2078868953,410208,-0.0137,0.0020,1.0210,0.3052,0.0000,-0.4883,1,467,870,2421
2078873930,410209,-0.0146,0.0024,1.0220,0.0000,0.1221,-0.5493,1,469,818,2421
2078878923,410210,-0.0156,0.0020,1.0239,0.0610,0.0610,-0.4272,1,497,811,2421
2078883928,410211,-0.0156,0.0010,1.0244,-0.1221,0.1221,-0.3052,1,467,785,2421
2078888928,410212,-0.0156,0.0005,1.0239,0.0000,0.0610,-0.0610,1,507,742,2421
2078893925,410213,-0.0146,0.0010,1.0229,0.0000,-0.0610,-0.1221,1,484,775,2421
2078898926,410214,-0.0142,0.0005,1.0229,0.0610,0.0610,-0.1831,1,473,795,2421
2078903930,410215,-0.0142,0.0005,1.0229,0.0000,0.1831,-0.3052,1,482,840,2421
2078908923,410216,-0.0137,0.0010,1.0225,-0.0610,0.3052,-0.4272,1,481,795,2421
2078913926,410217,-0.0137,0.0015,1.0225,0.0610,0.1221,-0.3662,1,476,837,2421
2078918928,410218,-0.0127,0.0015,1.0229,0.1221,0.1831,-0.4272,1,478,840,2421
2078923927,410219,-0.0117,0.0005,1.0239,0.0610,0.3052,-0.3052,1,493,845,2421
2078928928,410220,-0.0122,0.0005,1.0249,0.0000,0.3662,-0.3662,1,466,862,2421
2078933927,410221,-0.0127,0.0010,1.0249,-0.0610,0.3662,-0.2441,1,466,832,2421
2078938928,410222,-0.0137,0.0010,1.0239,-0.0610,0.3662,-0.3662,1,466,874,2421
2078943923,410223,-0.0146,0.0005,1.0220,0.0000,0.3662,-0.4272,1,466,873,2421
2078948930,410224,-0.0156,0.0005,1.0210,-0.1831,0.4883,-0.4272,1,484,817,2421
2078953926,410225,-0.0171,-0.0005,1.0205,-0.1221,0.3052,-0.3052,1,467,861,2421
2078958923,410226,-0.0166,-0.0020,1.0205,-0.1221,0.3052,-0.4272,1,466,885,2421
2078963927,410227,-0.0146,-0.0005,1.0210,-0.0610,0.3662,-0.2441,1,468,862,2421
2078968929,410228,-0.0146,0.0000,1.0215,-0.0610,0.3662,-0.2441,1,469,861,2421
2078973946,410229,-0.0161,-0.0015,1.0215,0.0000,0.2441,-0.3052,1,472,836,2421
2078978922,410230,-0.0166,-0.0020,1.0215,0.0000,0.3662,-0.4272,1,481,808,2421
2078983922,410231,-0.0171,-0.0005,1.0220,0.1221,0.3052,-0.3662,1,465,739,2421
2078988924,410232,-0.0176,0.0005,1.0220,0.1221,0.1831,-0.3052,1,510,844,2421
2078993930,410233,-0.0166,0.0010,1.0229,0.1831,0.1831,-0.3052,1,466,827,2421
2078998923,410234,-0.0151,0.0015,1.0234,0.1221,0.2441,-0.3052,1,486,845,2421
2079003923,410235,-0.0142,0.0015,1.0244,0.0610,0.2441,-0.3662,1,480,843,2421
2079008929,410236,-0.0137,0.0005,1.0239,-0.0610,0.1831,-0.3052,1,483,846,2421
2079013925,410237,-0.0137,0.0005,1.0229,0.0000,0.3052,-0.3052,1,488,839,2421
2079018930,410238,-0.0137,0.0015,1.0229,0.0000,0.3662,-0.2441,1,479,790,2421
2079023930,410239,-0.0142,0.0015,1.0234,0.0000,0.3052,-0.2441,1,492,802,2421
2079028922,410240,-0.0156,0.0005,1.0249,-0.0610,0.4272,-0.2441,1,466,824,2421
2079033927,410241,-0.0156,0.0005,1.0244,-0.1831,0.4272,-0.2441,1,466,875,2421
2079038927,410242,-0.0156,0.0010,1.0234,-0.1831,0.4883,-0.3052,1,465,879,2421
2079043927,410243,-0.0156,0.0010,1.0229,-0.3052,0.4272,-0.3052,1,466,871,2421
2079048927,410244,-0.0156,0.0005,1.0225,-0.1831,0.6104,-0.4272,1,483,868,2421
2079053928,410245,-0.0151,0.0000,1.0210,-0.1221,0.5493,-0.3662,1,466,859,2421
2079058925,410246,-0.0151,-0.0005,1.0205,-0.1221,0.3662,-0.3662,1,484,777,2421
2079063930,410247,-0.0156,0.0005,1.0220,-0.1221,0.4272,-0.3052,1,465,901,2421
2079068925,410248,-0.0161,0.0010,1.0234,-0.1831,0.4883,-0.3052,1,474,856,2421
2079073927,410249,-0.0161,0.0015,1.0244,-0.1221,0.3052,-0.3662,1,482,861,2421
2079078927,410250,-0.0156,0.0024,1.0239,-0.0610,0.4272,-0.2441,1,482,862,2421
2079083927,410251,-0.0156,0.0024,1.0225,-0.1221,0.4272,-0.1831,1,480,879,2421
2079088927,410252,-0.0166,0.0020,1.0220,-0.2441,0.3052,-0.3052,1,469,858,2421
2079093930,410253,-0.0171,0.0010,1.0225,-0.3052,0.4272,-0.2441,1,493,745,2421
2079098929,410254,-0.0161,0.0005,1.0229,-0.1831,0.3662,-0.1831,1,464,830,2421
2079103923,410255,-0.0161,0.0010,1.0225,-0.2441,0.4272,-0.2441,1,476,861,2421
2079108929,410256,-0.0156,0.0005,1.0220,-0.1831,0.3052,-0.3052,1,480,849,2421
2079113930,410257,-0.0151,0.0005,1.0220,-0.1831,0.3662,-0.3052,1,482,858,2421
2079118925,410258,-0.0146,0.0000,1.0220,-0.1831,0.3662,-0.3052,1,488,843,2421
2079123927,410259,-0.0146,-0.0005,1.0229,-0.1221,0.4883,-0.2441,1,478,808,2421
2079128924,410260,-0.0146,-0.0005,1.0239,-0.1831,0.4272,-0.1221,1,493,846,2421
2079133930,410261,-0.0151,0.0005,1.0234,-0.1221,0.4272,-0.2441,1,466,874,2421
2079138927,410262,-0.0156,0.0015,1.0239,0.0000,0.3662,-0.3052,1,466,874,2421
2079143922,410263,-0.0166,0.0015,1.0244,0.1221,0.4883,-0.2441,1,466,828,2421
2079148947,410264,-0.0156,0.0005,1.0239,-0.0610,0.5493,-0.3052,1,466,875,2421
2079153930,410265,-0.0151,0.0000,1.0239,-0.1221,0.5493,-0.3052,1,465,871,2421
2079158929,410266,-0.0161,0.0000,1.0239,-0.0610,0.6714,-0.3052,1,484,823,2421
2079163923,410267,-0.0166,0.0005,1.0225,-0.0610,0.6714,-0.1831,1,477,776,2421
2079168923,410268,-0.0166,0.0005,1.0205,-0.0610,0.6104,-0.1831,1,465,897,2421
2079173929,410269,-0.0176,-0.0005,1.0205,-0.1221,0.7324,-0.1831,1,474,859,2421
2079178925,410270,-0.0181,-0.0005,1.0234,-0.1831,0.6104,-0.2441,1,472,860,2421
2079183922,410271,-0.0156,0.0005,1.0249,-0.1221,0.5493,-0.1831,1,479,861,2421
2079188926,410272,-0.0146,0.0000,1.0244,-0.1221,0.6104,-0.1831,1,481,871,2421
2079193923,410273,-0.0156,0.0000,1.0239,-0.1831,0.6104,-0.2441,1,465,713,2421
2079198922,410274,-0.0161,0.0010,1.0239,-0.1221,0.7324,-0.2441,1,493,745,2421
2079203925,410275,-0.0151,0.0005,1.0239,-0.1221,0.5493,-0.3052,1,469,753,2421
2079208930,410276,-0.0142,-0.0005,1.0229,-0.1831,0.6104,-0.3052,1,488,852,2421
2079213929,410277,-0.0146,0.0000,1.0225,-0.1221,0.7324,-0.1831,1,471,839,2421
2079218925,410278,-0.0166,0.0000,1.0215,-0.1831,0.6714,-0.3052,1,483,811,2421
2079223929,410279,-0.0176,0.0000,1.0220,-0.1831,0.6714,-0.3052,1,475,805,2421
2079228923,410280,-0.0181,-0.0015,1.0225,-0.2441,0.7935,-0.2441,1,482,802,2421
2079233925,410281,-0.0176,-0.0020,1.0220,-0.2441,0.7324,-0.1221,1,493,845,2421
2079238929,410282,-0.0176,-0.0020,1.0229,-0.3052,0.7324,-0.1831,1,466,873,2421
2079243922,410283,-0.0171,-0.0020,1.0239,-0.2441,0.7324,-0.2441,1,466,875,2421
2079248929,410284,-0.0161,-0.0020,1.0249,-0.1221,0.6714,-0.2441,1,465,880,2421
2079253928,410285,-0.0151,-0.0010,1.0239,-0.2441,0.7324,-0.2441,1,466,878,2421
2079258929,410286,-0.0146,-0.0015,1.0229,-0.2441,0.9155,-0.2441,1,466,880,2421
2079263923,410287,-0.0142,-0.0010,1.0229,-0.3662,0.8545,-0.0610,1,465,883,2421
2079268926,410288,-0.0146,0.0000,1.0229,-0.3052,0.7324,-0.2441,1,484,860,2421
2079273923,410289,-0.0151,0.0005,1.0229,-0.2441,0.8545,-0.2441,1,466,829,2421
2079278924,410290,-0.0151,0.0010,1.0229,-0.3662,0.9766,-0.1831,1,470,867,2421
2079283930,410291,-0.0156,0.0005,1.0229,-0.4272,0.9155,-0.2441,1,473,873,2421
2079288925,410292,-0.0161,-0.0010,1.0234,-0.4272,0.9766,-0.2441,1,472,876,2421
2079293926,410293,-0.0166,-0.0010,1.0239,-0.3662,1.0376,-0.1221,1,507,876,2421
2079298926,410294,-0.0171,-0.0005,1.0244,-0.3662,1.0376,-0.1221,1,489,853,2421
2079303924,410295,-0.0190,-0.0010,1.0229,-0.4272,1.0376,-0.2441,1,511,847,2421
2079308924,410296,-0.0195,0.0005,1.0210,-0.3052,0.8545,-0.1221,1,478,827,2421
2079313924,410297,-0.0181,0.0000,1.0220,-0.3662,0.6714,-0.1221,1,484,833,2421
2079318925,410298,-0.0166,-0.0010,1.0234,-0.3052,0.7324,-0.1221,1,476,801,2421
2079323927,410299,-0.0151,-0.0015,1.0239,-0.1221,0.6714,-0.1221,1,485,843,2421
2079328923,410300,-0.0146,0.0005,1.0244,-0.1831,0.9155,-0.1221,1,473,842,2421
2079333927,410301,-0.0161,0.0020,1.0239,-0.4272,0.9155,-0.1831,1,492,848,2421
2079338924,410302,-0.0181,0.0005,1.0215,-0.4272,0.8545,-0.2441,1,465,882,2421
2079343928,410303,-0.0195,-0.0005,1.0205,-0.2441,0.7324,-0.1831,1,466,870,2421
2079348926,410304,-0.0190,-0.0010,1.0225,-0.2441,0.5493,-0.1221,1,466,880,2421
2079353925,410305,-0.0181,-0.0015,1.0234,-0.2441,0.6714,0.0000,1,466,873,2421
2079358928,410306,-0.0171,-0.0020,1.0239,-0.3052,0.6714,-0.1221,1,483,828,2421
2079363923,410307,-0.0176,-0.0015,1.0244,-0.4272,0.6104,-0.2441,1,466,855,2421
2079368924,410308,-0.0190,-0.0020,1.0234,-0.3662,0.6714,-0.1221,1,484,864,2421
2079373924,410309,-0.0190,-0.0024,1.0225,-0.3052,0.6714,-0.1221,1,465,903,2421
2079378927,410310,-0.0176,-0.0024,1.0210,-0.1831,0.4883,-0.1221,1,468,860,2421
2079383923,410311,-0.0171,-0.0020,1.0200,-0.0610,0.5493,-0.1831,1,471,870,2421
2079388923,410312,-0.0176,-0.0005,1.0205,0.0000,0.4883,-0.1221,1,477,869,2421
2079393926,410313,-0.0176,-0.0005,1.0210,-0.0610,0.4272,-0.1831,1,505,801,2421
2079398926,410314,-0.0181,-0.0010,1.0210,0.0000,0.3052,-0.2441,1,482,849,2421
2079403926,410315,-0.0186,-0.0015,1.0200,-0.0610,0.4272,-0.1831,1,506,696,2421
2079408930,410316,-0.0171,-0.0005,1.0205,-0.0610,0.5493,-0.2441,1,488,749,2421
2079413925,410317,-0.0166,-0.0005,1.0220,0.0610,0.5493,-0.1831,1,482,841,2421
2079418930,410318,-0.0176,-0.0015,1.0225,0.1221,0.4272,-0.2441,1,492,846,2421
2079423926,410319,-0.0181,-0.0015,1.0220,0.0610,0.3662,-0.1831,1,474,871,2421
2079428930,410320,-0.0190,-0.0015,1.0210,0.1221,0.4272,-0.1831,1,488,842,2421
2079433930,410321,-0.0210,-0.0024,1.0190,0.1221,0.1831,-0.2441,1,490,843,2421
2079438925,410322,-0.0215,-0.0024,1.0190,0.1831,0.1221,-0.3052,1,493,847,2421
2079443925,410323,-0.0200,-0.0020,1.0210,0.1831,0.1221,-0.3052,1,466,870,2421
2079448924,410324,-0.0176,-0.0020,1.0229,0.1831,0.1221,-0.2441,1,466,866,2421
2079453922,410325,-0.0156,-0.0015,1.0220,0.0610,0.1831,-0.2441,1,465,878,2421
2079458929,410326,-0.0156,-0.0015,1.0210,0.1831,0.1221,-0.3052,1,466,877,2421
2079463923,410327,-0.0171,-0.0010,1.0215,0.3052,0.2441,-0.2441,1,483,867,2421
2079468929,410328,-0.0176,-0.0010,1.0229,0.1831,0.3052,-0.4272,1,465,857,2421
2079473925,410329,-0.0166,0.0000,1.0239,0.1221,0.1831,-0.2441,1,484,861,2421
2079478930,410330,-0.0156,0.0000,1.0249,0.0000,0.2441,-0.2441,1,470,830,2421
2079483927,410331,-0.0161,0.0000,1.0259,0.0000,0.3662,-0.4272,1,471,793,2421
2079488935,410332,-0.0171,0.0005,1.0259,0.0000,0.3052,-0.2441,1,478,775,2421
2079493926,410333,-0.0176,0.0015,1.0239,0.0000,0.3052,-0.2441,1,475,801,2421
2079498929,410334,-0.0186,0.0005,1.0220,-0.0610,0.3662,-0.4272,1,509,806,2421
2079503926,410335,-0.0200,-0.0010,1.0225,-0.0610,0.3052,-0.3662,1,488,849,2421
2079508923,410336,-0.0210,-0.0005,1.0234,-0.0610,0.1831,-0.2441,1,510,846,2421
2079513928,410337,-0.0205,-0.0010,1.0229,0.0610,0.2441,-0.2441,1,467,856,2421
2079518929,410338,-0.0186,-0.0015,1.0225,0.0610,0.3052,-0.2441,1,471,847,2421
2079523928,410339,-0.0181,-0.0015,1.0229,-0.0610,0.1831,-0.1221,1,483,840,2421
2079528923,410340,-0.0181,-0.0020,1.0229,-0.0610,0.1831,-0.1831,1,473,841,2421
2079533929,410341,-0.0190,-0.0020,1.0225,-0.0610,0.1831,-0.3662,1,490,847,2421
2079538929,410342,-0.0186,-0.0015,1.0225,-0.0610,0.1221,-0.3052,1,488,847,2421
2079543925,410343,-0.0171,-0.0005,1.0225,0.0610,0.0610,-0.2441,1,493,836,2421
2079548930,410344,-0.0161,-0.0005,1.0225,-0.0610,0.1221,-0.1831,1,466,865,2421
2079553929,410345,-0.0161,-0.0020,1.0229,0.0610,0.0610,-0.2441,1,466,870,2421
2079558922,410346,-0.0166,-0.0024,1.0239,0.0610,0.1221,-0.3052,1,466,877,2421
2079563922,410347,-0.0171,-0.0015,1.0249,-0.0610,0.1221,-0.2441,1,466,872,2421
2079568930,410348,-0.0166,0.0000,1.0254,0.1831,0.1221,-0.2441,1,465,869,2421
2079573929,410349,-0.0176,-0.0005,1.0239,0.1221,0.1831,-0.3052,1,480,826,2421
2079578928,410350,-0.0195,-0.0015,1.0225,-0.0610,0.1221,-0.3662,1,466,894,2421
2079583923,410351,-0.0195,-0.0015,1.0210,0.0000,0.1221,-0.3052,1,474,861,2421
2079588926,410352,-0.0190,-0.0010,1.0205,0.0000,0.1221,-0.2441,1,465,772,2421
2079593922,410353,-0.0195,-0.0010,1.0215,0.0000,-0.0610,-0.3662,1,466,805,2421
2079598927,410354,-0.0200,-0.0015,1.0215,0.1221,-0.1221,-0.3662,1,500,806,2421
2079603929,410355,-0.0190,-0.0024,1.0210,0.0610,-0.0610,-0.2441,1,477,847,2421
2079608929,410356,-0.0171,-0.0015,1.0225,0.1221,0.0000,-0.2441,1,501,854,2421
2079613922,410357,-0.0156,0.0000,1.0229,0.1221,-0.0610,-0.3052,1,466,793,2421
2079618927,410358,-0.0161,0.0000,1.0229,0.0610,0.0610,-0.2441,1,483,801,2421
2079623927,410359,-0.0171,-0.0010,1.0229,-0.0610,0.0610,-0.3052,1,485,808,2421
2079628928,410360,-0.0171,-0.0010,1.0234,0.0610,0.0610,-0.3662,1,473,835,2421
2079633924,410361,-0.0171,-0.0015,1.0244,0.0000,0.2441,-0.3052,1,482,840,2421
2079638928,410362,-0.0176,-0.0024,1.0244,0.1221,0.0610,-0.3052,1,469,796,2421
2079643930,410363,-0.0171,-0.0020,1.0239,-0.0610,0.1221,-0.3052,1,487,842,2421
2079648926,410364,-0.0161,-0.0010,1.0234,-0.0610,0.2441,-0.3662,1,465,838,2421
2079653922,410365,-0.0166,-0.0005,1.0229,-0.0610,0.3052,-0.4272,1,466,875,2421
2079658922,410366,-0.0176,0.0005,1.0229,-0.0610,0.3052,-0.3052,1,466,871,2421
2079663925,410367,-0.0181,0.0010,1.0234,-0.0610,0.3052,-0.3662,1,466,863,2421
2079668924,410368,-0.0171,-0.0005,1.0229,0.0000,0.3662,-0.3662,1,483,867,2421
2079673925,410369,-0.0171,-0.0010,1.0229,-0.0610,0.3662,-0.3052,1,465,816,2421
2079678928,410370,-0.0176,-0.0015,1.0234,-0.1221,0.4272,-0.3052,1,484,811,2421
2079683924,410371,-0.0176,-0.0015,1.0244,-0.1221,0.4272,-0.3052,1,467,897,2421
2079688926,410372,-0.0161,0.0000,1.0249,-0.1221,0.4272,-0.3662,1,478,859,2421
2079693930,410373,-0.0151,0.0000,1.0244,-0.1831,0.5493,-0.4272,1,482,837,2421
2079698927,410374,-0.0161,-0.0015,1.0229,-0.1221,0.5493,-0.2441,1,481,842,2421
2079703922,410375,-0.0176,-0.0024,1.0220,-0.0610,0.4272,-0.1221,1,510,876,2421
2079708927,410376,-0.0176,-0.0024,1.0225,-0.1831,0.3662,-0.1831,1,477,854,2421
2079713923,410377,-0.0166,-0.0020,1.0220,0.0000,0.4883,-0.3052,1,511,862,2421
2079718923,410378,-0.0171,-0.0020,1.0210,0.1221,0.4272,-0.3052,1,471,796,2421
2079723928,410379,-0.0190,-0.0015,1.0215,-0.0610,0.3662,-0.2441,1,483,837,2421
2079728930,410380,-0.0190,-0.0010,1.0220,-0.1831,0.3662,-0.1831,1,490,845,2421
2079733925,410381,-0.0186,-0.0015,1.0225,-0.1221,0.3052,-0.3052,1,476,848,2421
2079738929,410382,-0.0176,-0.0024,1.0229,0.0000,0.2441,-0.3662,1,471,834,2421
2079743925,410383,-0.0171,-0.0020,1.0229,0.0000,0.4272,-0.3052,1,493,806,2421
2079748925,410384,-0.0171,-0.0010,1.0225,-0.0610,0.4272,-0.2441,1,493,796,2421
2079753925,410385,-0.0176,-0.0005,1.0229,-0.1221,0.4272,-0.3052,1,466,870,2421
2079758927,410386,-0.0176,-0.0010,1.0244,0.0000,0.3662,-0.3662,1,466,868,2421
2079763922,410387,-0.0171,-0.0015,1.0249,-0.1221,0.3052,-0.2441,1,466,829,2421
2079768927,410388,-0.0166,-0.0010,1.0249,-0.1221,0.2441,-0.3052,1,484,868,2421
2079773931,410389,-0.0171,-0.0005,1.0234,-0.1221,0.3662,-0.3052,1,465,860,2421
2079778930,410390,-0.0181,-0.0015,1.0220,-0.1831,0.3662,-0.3052,1,484,854,2421
2079783929,410391,-0.0190,-0.0015,1.0220,-0.1221,0.4883,-0.1831,1,465,898,2421
2079788927,410392,-0.0181,-0.0015,1.0229,-0.1221,0.4272,-0.3662,1,475,861,2421
2079793931,410393,-0.0171,-0.0020,1.0234,-0.0610,0.3052,-0.3052,1,482,870,2421
2079798930,410394,-0.0176,-0.0020,1.0229,-0.0610,0.3662,-0.3052,1,466,864,2421
2079803927,410395,-0.0171,-0.0024,1.0225,-0.1221,0.3662,-0.3052,1,497,854,2421
2079808931,410396,-0.0151,-0.0029,1.0225,-0.1221,0.2441,-0.3052,1,486,850,2421
2079813928,410397,-0.0142,-0.0029,1.0220,-0.0610,0.3052,-0.3052,1,464,750,2421
2079818924,410398,-0.0151,-0.0029,1.0215,-0.1221,0.4272,-0.3052,1,482,847,2421
2079823923,410399,-0.0161,-0.0020,1.0225,0.0000,0.4883,-0.3052,1,475,846,2421
2079828926,410400,-0.0166,-0.0010,1.0229,-0.0610,0.4272,-0.3052,1,490,796,2421
2079833928,410401,-0.0176,-0.0020,1.0225,0.0000,0.4883,-0.1831,1,476,843,2421
2079838922,410402,-0.0186,-0.0029,1.0225,-0.0610,0.4883,-0.3052,1,485,798,2421
2079843922,410403,-0.0190,-0.0020,1.0220,0.0610,0.4272,-0.2441,1,493,840,2421
2079848930,410404,-0.0181,-0.0020,1.0220,-0.0610,0.4272,-0.3052,1,466,847,2421
2079853931,410405,-0.0161,-0.0020,1.0225,-0.0610,0.4272,-0.3052,1,466,868,2421
2079858934,410406,-0.0161,-0.0015,1.0234,-0.0610,0.4883,-0.2441,1,466,873,2421
2079863923,410407,-0.0181,-0.0010,1.0244,-0.1831,0.4883,-0.1831,1,466,877,2421
2079868930,410408,-0.0190,-0.0020,1.0239,-0.0610,0.4272,-0.2441,1,483,874,2421
2079873928,410409,-0.0181,-0.0024,1.0225,0.0000,0.3662,-0.2441,1,468,867,2421
2079878926,410410,-0.0171,-0.0015,1.0225,-0.0610,0.4883,-0.3052,1,465,871,2421
2079883928,410411,-0.0161,-0.0005,1.0229,0.0000,0.3662,-0.2441,1,469,853,2421
2079888930,410412,-0.0161,-0.0015,1.0229,-0.0610,0.3052,-0.3052,1,474,821,2421
2079893956,410413,-0.0171,-0.0024,1.0239,-0.2441,0.4272,-0.3052,1,480,859,2421
2079898923,410414,-0.0176,-0.0024,1.0249,0.0000,0.4272,-0.3052,1,465,874,2421
2079903922,410415,-0.0166,-0.0020,1.0254,0.0610,0.3662,-0.3052,1,480,708,2421
2079908925,410416,-0.0171,-0.0015,1.0239,-0.0610,0.3662,-0.3052,1,507,852,2421
2079913925,410417,-0.0176,-0.0020,1.0225,-0.1221,0.3052,-0.2441,1,475,792,2421
2079918928,410418,-0.0166,-0.0024,1.0225,-0.0610,0.4272,-0.1831,1,480,840,2421
2079923925,410419,-0.0161,-0.0024,1.0229,-0.1221,0.4272,-0.3662,1,488,852,2421
2079928927,410420,-0.0166,-0.0020,1.0239,0.0610,0.3662,-0.3662,1,482,874,2421
2079933924,410421,-0.0176,-0.0005,1.0254,0.0000,0.5493,-0.3662,1,492,851,2421
2079938931,410422,-0.0176,-0.0010,1.0249,-0.0610,0.5493,-0.3052,1,484,798,2421
2079943928,410423,-0.0171,-0.0020,1.0244,-0.1221,0.4272,-0.2441,1,493,840,2421
2079948927,410424,-0.0156,-0.0020,1.0239,-0.0610,0.6104,-0.2441,1,466,874,2421
2079953931,410425,-0.0161,-0.0015,1.0234,0.0000,0.5493,-0.1831,1,466,875,2421
2079958922,410426,-0.0176,0.0000,1.0234,-0.1221,0.6104,-0.3052,1,466,835,2421
2079963925,410427,-0.0176,0.0010,1.0239,-0.2441,0.4883,-0.2441,1,483,828,2421
2079968928,410428,-0.0181,-0.0005,1.0239,-0.1221,0.4883,-0.2441,1,465,865,2421
2079973930,410429,-0.0186,-0.0015,1.0254,-0.0610,0.4883,-0.2441,1,485,857,2421
2079978922,410430,-0.0176,-0.0005,1.0254,-0.0610,0.6104,-0.1831,1,465,900,2421
2079983928,410431,-0.0181,-0.0010,1.0239,0.0000,0.7324,-0.3662,1,467,855,2421
2079988922,410432,-0.0181,-0.0015,1.0225,0.0000,0.5493,-0.3052,1,465,826,2421
2079993953,410433,-0.0190,-0.0020,1.0210,0.0000,0.6104,-0.3052,1,475,804,2421
2079998927,410434,-0.0205,-0.0029,1.0205,-0.0610,0.5493,-0.1831,1,468,800,2421
2080003925,410435,-0.0195,-0.0034,1.0215,0.0610,0.3662,-0.1831,1,481,857,2421
2080008928,410436,-0.0181,-0.0024,1.0229,0.1221,0.3662,-0.3052,1,506,860,2421
2080013925,410437,-0.0171,-0.0015,1.0234,0.1221,0.3662,-0.3052,1,470,794,2421
2080018927,410438,-0.0171,-0.0015,1.0234,0.0000,0.4272,-0.2441,1,473,839,2421
2080023925,410439,-0.0186,-0.0015,1.0225,-0.0610,0.4272,-0.3662,1,480,800,2421
2080028927,410440,-0.0176,-0.0020,1.0234,0.0000,0.3662,-0.3052,1,473,865,2421
2080033927,410441,-0.0176,-0.0020,1.0244,0.0000,0.5493,-0.3052,1,480,799,2421
2080038926,410442,-0.0186,-0.0020,1.0244,0.0610,0.6104,-0.3052,1,490,799,2421
2080043923,410443,-0.0181,-0.0010,1.0249,0.0000,0.4272,-0.2441,1,493,838,2421
2080048930,410444,-0.0176,-0.0015,1.0249,0.0610,0.5493,-0.2441,1,466,800,2421
2080053926,410445,-0.0176,-0.0029,1.0234,0.0000,0.4272,-0.1831,1,466,876,2421
2080058932,410446,-0.0176,-0.0034,1.0234,0.1221,0.3662,-0.2441,1,466,834,2421
2080063922,410447,-0.0176,-0.0034,1.0244,0.0610,0.4883,-0.3052,1,466,879,2421
2080068923,410448,-0.0186,-0.0029,1.0244,0.0000,0.4883,-0.2441,1,483,872,2421
2080073927,410449,-0.0195,-0.0024,1.0244,-0.0610,0.3052,-0.3052,1,468,773,2421
2080078925,410450,-0.0186,-0.0020,1.0244,0.0000,0.4272,-0.3662,1,484,814,2421
2080083925,410451,-0.0171,-0.0020,1.0239,-0.0610,0.6104,-0.2441,1,481,822,2421
2080088926,410452,-0.0171,-0.0010,1.0239,-0.1221,0.5493,-0.1831,1,466,861,2421
2080093929,410453,-0.0176,-0.0010,1.0239,-0.1221,0.4883,-0.3662,1,467,861,2421
2080098922,410454,-0.0171,-0.0020,1.0225,-0.0610,0.5493,-0.3052,1,469,868,2421
2080103926,410455,-0.0166,-0.0034,1.0220,0.1831,0.5493,-0.2441,1,504,849,2421
2080108925,410456,-0.0166,-0.0024,1.0239,0.0610,0.4883,-0.3052,1,479,864,2421
2080113925,410457,-0.0186,-0.0015,1.0254,-0.1221,0.6104,-0.4272,1,510,855,2421
2080118930,410458,-0.0195,-0.0015,1.0254,0.0000,0.6104,-0.3662,1,464,848,2421
2080123922,410459,-0.0190,-0.0010,1.0244,-0.0610,0.4883,-0.1831,1,490,797,2421
2080128926,410460,-0.0190,-0.0015,1.0234,-0.1221,0.4883,-0.3052,1,488,845,2421
2080133930,410461,-0.0195,-0.0024,1.0234,-0.0610,0.4883,-0.3662,1,473,840,2421
2080138928,410462,-0.0190,-0.0029,1.0244,-0.0610,0.4272,-0.2441,1,482,851,2421
2080143931,410463,-0.0190,-0.0020,1.0234,-0.3052,0.5493,-0.3052,1,487,852,2421
2080148930,410464,-0.0190,-0.0015,1.0225,-0.1831,0.6104,-0.3662,1,492,843,2421
2080153923,410465,-0.0195,-0.0015,1.0215,-0.0610,0.4272,-0.3052,1,465,872,2421
2080158927,410466,-0.0195,-0.0029,1.0220,-0.0610,0.5493,-0.2441,1,466,870,2421
2080163929,410467,-0.0195,-0.0029,1.0225,0.0000,0.4883,-0.1831,1,466,878,2421
2080168925,410468,-0.0190,-0.0024,1.0229,-0.0610,0.5493,-0.1221,1,466,830,2421
2080173926,410469,-0.0190,-0.0010,1.0234,0.0000,0.4883,-0.1831,1,466,876,2421
2080178923,410470,-0.0186,-0.0010,1.0249,-0.1221,0.6104,-0.4272,1,484,828,2421
2080183928,410471,-0.0195,-0.0020,1.0249,-0.1221,0.6714,-0.3662,1,465,896,2421
2080188922,410472,-0.0195,-0.0015,1.0244,-0.1221,0.6104,-0.1831,1,469,865,2421
2080193929,410473,-0.0195,-0.0015,1.0234,-0.1831,0.6714,-0.1831,1,482,870,2421
2080198925,410474,-0.0190,-0.0024,1.0244,-0.2441,0.4883,-0.3052,1,466,876,2421
2080203929,410475,-0.0186,-0.0034,1.0244,-0.2441,0.6714,-0.3052,1,496,859,2421
2080208923,410476,-0.0200,-0.0029,1.0195,-0.1831,0.4272,-0.2441,1,474,810,2421
2080213925,410477,-0.0205,-0.0024,1.0205,-0.1831,0.4272,-0.2441,1,511,861,2421
2080218922,410478,-0.0195,-0.0029,1.0225,-0.1831,0.4272,-0.3052,1,464,834,2421
2080223927,410479,-0.0171,-0.0024,1.0225,-0.1221,0.4883,-0.2441,1,475,847,2421
2080228922,410480,-0.0166,-0.0034,1.0205,-0.3052,0.5493,-0.4272,1,481,845,2421
2080233928,410481,-0.0186,-0.0029,1.0190,-0.0610,0.4883,-0.2441,1,475,852,2421
2080238926,410482,-0.0190,-0.0015,1.0190,-0.1221,0.3662,-0.1831,1,483,846,2421
2080243925,410483,-0.0176,-0.0010,1.0215,-0.1831,0.4272,-0.3052,1,490,846,2421
2080248924,410484,-0.0171,-0.0015,1.0229,-0.3052,0.4883,-0.3662,1,465,869,2421
2080253924,410485,-0.0176,-0.0024,1.0229,-0.1831,0.3662,-0.3662,1,466,870,2421
2080258925,410486,-0.0186,-0.0029,1.0225,-0.0610,0.2441,-0.3662,1,466,885,2421
2080263931,410487,-0.0190,-0.0029,1.0225,-0.0610,0.3662,-0.3052,1,466,877,2421
2080268928,410488,-0.0200,-0.0029,1.0220,-0.1221,0.3052,-0.3052,1,483,871,2421
2080273924,410489,-0.0205,-0.0024,1.0225,-0.0610,0.2441,-0.3662,1,465,853,2421
2080278931,410490,-0.0210,-0.0020,1.0225,0.0000,0.2441,-0.3052,1,484,868,2421
2080283927,410491,-0.0200,-0.0020,1.0220,-0.1831,0.2441,-0.3662,1,465,815,2421
2080288923,410492,-0.0190,-0.0029,1.0229,-0.0610,0.0610,-0.3662,1,473,868,2421
2080293924,410493,-0.0190,-0.0029,1.0239,0.0000,0.0610,-0.3052,1,482,873,2421
2080298922,410494,-0.0195,-0.0024,1.0239,0.0000,0.0610,-0.3052,1,465,807,2421
2080303927,410495,-0.0190,-0.0029,1.0225,0.0000,0.2441,-0.2441,1,495,809,2421
2080308923,410496,-0.0186,-0.0029,1.0220,-0.0610,0.2441,-0.2441,1,470,710,2421
2080313928,410497,-0.0190,-0.0029,1.0220,0.0000,0.2441,-0.3662,1,512,857,2421
2080318922,410498,-0.0195,-0.0029,1.0225,0.0000,0.1831,-0.3662,1,484,813,2421
2080323922,410499,-0.0190,-0.0034,1.0234,-0.1221,0.0610,-0.3052,1,473,806,2421
2080328926,410500,-0.0176,-0.0039,1.0244,0.0610,0.1831,-0.2441,1,486,843,2421
2080333925,410501,-0.0161,-0.0029,1.0249,0.0000,0.1831,-0.3052,1,471,851,2421
2080338925,410502,-0.0166,-0.0015,1.0249,-0.0610,0.3052,-0.3662,1,487,803,2421
2080343926,410503,-0.0166,-0.0020,1.0239,-0.0610,0.2441,-0.1831,1,491,846,2421
2080348926,410504,-0.0176,-0.0029,1.0234,-0.0610,0.3052,-0.2441,1,466,852,2421
2080353924,410505,-0.0200,-0.0024,1.0234,-0.1221,0.3052,-0.2441,1,466,873,2421
2080358924,410506,-0.0200,-0.0024,1.0234,-0.1831,0.3052,-0.3662,1,466,874,2421
2080363929,410507,-0.0181,-0.0024,1.0239,-0.0610,0.3662,-0.3052,1,465,879,2421
2080368923,410508,-0.0166,-0.0034,1.0244,0.0000,0.4272,-0.2441,1,483,874,2421
2080373930,410509,-0.0181,-0.0039,1.0239,-0.0610,0.3662,-0.2441,1,465,828,2421
2080378927,410510,-0.0195,-0.0039,1.0225,-0.0610,0.3052,-0.2441,1,484,867,2421
2080383928,410511,-0.0195,-0.0034,1.0205,-0.2441,0.4883,-0.3052,1,469,902,2421
2080388931,410512,-0.0186,-0.0029,1.0210,-0.1221,0.4272,-0.2441,1,477,866,2421
2080393926,410513,-0.0181,-0.0034,1.0234,0.0000,0.2441,-0.3052,1,479,871,2421
2080398929,410514,-0.0176,-0.0034,1.0249,-0.2441,0.4272,-0.2441,1,467,811,2421
2080403923,410515,-0.0186,-0.0029,1.0239,-0.1831,0.4883,-0.1831,1,465,865,2421
2080408929,410516,-0.0195,-0.0020,1.0229,-0.1221,0.4272,-0.2441,1,479,860,2421
2080413929,410517,-0.0186,-0.0015,1.0229,-0.2441,0.6104,-0.3052,1,511,859,2421
2080418930,410518,-0.0186,-0.0024,1.0234,-0.1221,0.6104,-0.1831,1,475,794,2421
2080423926,410519,-0.0190,-0.0039,1.0239,-0.0610,0.4883,-0.3662,1,473,847,2421
2080428926,410520,-0.0190,-0.0049,1.0234,0.0610,0.4883,-0.2441,1,484,850,2421
2080433926,410521,-0.0200,-0.0044,1.0225,0.0000,0.4883,-0.2441,1,492,846,2421
2080438925,410522,-0.0195,-0.0034,1.0215,-0.0610,0.5493,-0.3052,1,480,799,2421
2080443930,410523,-0.0190,-0.0034,1.0210,0.0000,0.4883,-0.3052,1,489,847,2421
2080448929,410524,-0.0190,-0.0039,1.0215,0.0000,0.4883,-0.3662,1,493,796,2421
2080453925,410525,-0.0190,-0.0034,1.0210,0.0610,0.4883,-0.3052,1,493,802,2421
2080458923,410526,-0.0195,-0.0029,1.0200,0.0000,0.4272,-0.3052,1,466,868,2421
2080463932,410527,-0.0205,-0.0024,1.0205,0.0000,0.4883,-0.3052,1,466,826,2421
2080468926,410528,-0.0200,-0.0024,1.0215,0.1831,0.3662,-0.2441,1,466,827,2421
2080473922,410529,-0.0186,-0.0029,1.0229,0.1831,0.4883,-0.3052,1,484,880,2421
2080478928,410530,-0.0186,-0.0024,1.0234,0.0610,0.4883,-0.3662,1,465,863,2421
2080483929,410531,-0.0195,-0.0020,1.0229,0.0610,0.3662,-0.3052,1,483,819,2421
2080488924,410532,-0.0200,-0.0029,1.0225,0.0610,0.4883,-0.2441,1,467,901,2421
2080493925,410533,-0.0195,-0.0029,1.0229,0.0610,0.4272,-0.3052,1,479,862,2421
2080498930,410534,-0.0190,-0.0020,1.0239,0.0610,0.5493,-0.2441,1,479,872,2421
2080503926,410535,-0.0181,-0.0024,1.0249,-0.0610,0.4883,-0.2441,1,475,877,2421
2080508923,410536,-0.0181,-0.0034,1.0254,0.0000,0.5493,-0.3052,1,480,874,2421
2080513929,410537,-0.0186,-0.0034,1.0249,-0.0610,0.5493,-0.2441,1,467,732,2421
2080518923,410538,-0.0186,-0.0034,1.0234,-0.0610,0.5493,-0.2441,1,506,862,2421
2080523928,410539,-0.0186,-0.0039,1.0239,-0.1221,0.6104,-0.3052,1,493,783,2421
2080528925,410540,-0.0176,-0.0044,1.0249,-0.0610,0.6104,-0.1831,1,490,849,2421
2080533930,410541,-0.0161,-0.0034,1.0254,0.0000,0.5493,-0.1221,1,479,845,2421
2080538923,410542,-0.0166,-0.0015,1.0249,-0.0610,0.7324,-0.3052,1,483,803,2421
2080543923,410543,-0.0186,-0.0015,1.0239,-0.1221,0.8545,-0.3052,1,476,845,2421
2080548924,410544,-0.0210,-0.0024,1.0239,-0.0610,0.7324,-0.2441,1,485,838,2421
2080553922,410545,-0.0205,-0.0034,1.0249,0.0000,0.6714,-0.3052,1,481,851,2421
2080558930,410546,-0.0171,-0.0029,1.0254,-0.0610,0.5493,-0.2441,1,493,800,2421
2080563925,410547,-0.0151,-0.0005,1.0264,0.0000,0.7324,-0.1831,1,466,875,2421
2080568936,410548,-0.0171,-0.0015,1.0249,-0.2441,0.8545,-0.3052,1,466,829,2421
2080573928,410549,-0.0205,-0.0034,1.0225,-0.1221,0.9766,-0.2441,1,465,871,2421
2080578922,410550,-0.0205,-0.0034,1.0215,-0.0610,0.7935,-0.1831,1,483,875,2421
2080583930,410551,-0.0186,-0.0024,1.0220,-0.1221,0.9155,-0.1831,1,482,865,2421
2080588923,410552,-0.0176,-0.0020,1.0239,-0.1831,1.0376,-0.1831,1,465,876,2421
2080593930,410553,-0.0186,-0.0015,1.0254,-0.2441,1.2207,-0.3052,1,472,920,2421
2080598930,410554,-0.0200,-0.0020,1.0249,-0.3052,1.1597,-0.3052,1,469,861,2421
2080603938,410555,-0.0200,-0.0024,1.0239,-0.3052,1.0376,-0.1831,1,477,858,2421
2080608930,410556,-0.0200,-0.0010,1.0229,-0.2441,1.0376,-0.1221,1,472,873,2421
2080613928,410557,-0.0205,-0.0010,1.0215,-0.2441,1.2207,-0.1831,1,506,852,2421
2080618926,410558,-0.0215,-0.0020,1.0205,-0.3052,1.2207,-0.2441,1,484,856,2421
2080623931,410559,-0.0215,-0.0024,1.0215,-0.3052,1.0376,-0.2441,1,512,853,2421
2080628922,410560,-0.0195,-0.0024,1.0239,-0.3052,1.0376,-0.2441,1,464,866,2421
2080633930,410561,-0.0181,-0.0020,1.0244,-0.4272,1.0986,-0.2441,1,473,850,2421
2080638929,410562,-0.0200,-0.0020,1.0220,-0.4883,1.0376,-0.0610,1,492,850,2421
2080643923,410563,-0.0229,-0.0039,1.0200,-0.5493,0.8545,0.0000,1,482,867,2421
2080648929,410564,-0.0225,-0.0039,1.0205,-0.3052,0.9155,0.0000,1,473,803,2421
2080653926,410565,-0.0200,-0.0044,1.0225,-0.3662,0.8545,-0.0610,1,488,798,2421
2080658928,410566,-0.0190,-0.0039,1.0234,-0.3662,0.9155,-0.1831,1,491,842,2421
2080663927,410567,-0.0210,-0.0029,1.0239,-0.3052,0.9155,-0.2441,1,466,855,2421
2080668926,410568,-0.0215,-0.0044,1.0239,-0.2441,0.8545,-0.1831,1,466,876,2421
2080673929,410569,-0.0210,-0.0039,1.0229,-0.3052,0.8545,-0.1221,1,466,878,2421
2080678928,410570,-0.0229,-0.0029,1.0220,-0.3052,0.8545,-0.3052,1,466,869,2421
2080683924,410571,-0.0244,-0.0054,1.0220,-0.2441,0.7324,-0.2441,1,483,869,2421
2080688924,410572,-0.0234,-0.0059,1.0229,-0.2441,0.6714,-0.1831,1,466,870,2421
2080693930,410573,-0.0220,-0.0054,1.0239,-0.3662,0.6714,-0.1831,1,484,866,2421
2080698923,410574,-0.0210,-0.0049,1.0239,-0.3052,0.7935,-0.1221,1,469,906,2421
2080703922,410575,-0.0205,-0.0034,1.0225,-0.2441,0.7324,-0.1831,1,479,856,2421
2080708930,410576,-0.0215,-0.0039,1.0205,-0.3662,0.6104,-0.1831,1,482,879,2421
2080713924,410577,-0.0239,-0.0044,1.0210,-0.2441,0.7324,-0.1221,1,479,874,2421
2080718929,410578,-0.0249,-0.0044,1.0210,-0.1831,0.6104,-0.1831,1,491,856,2421
2080723923,410579,-0.0234,-0.0049,1.0205,-0.1221,0.6714,-0.2441,1,509,857,2421
2080728927,410580,-0.0210,-0.0049,1.0210,-0.1221,0.5493,-0.1831,1,498,853,2421
2080733930,410581,-0.0195,-0.0049,1.0210,-0.1221,0.5493,-0.2441,1,492,748,2421
2080738931,410582,-0.0205,-0.0054,1.0200,-0.1831,0.4883,-0.1831,1,488,855,2421
2080743924,410583,-0.0220,-0.0054,1.0190,-0.0610,0.5493,-0.2441,1,491,847,2421
2080748927,410584,-0.0225,-0.0049,1.0205,0.0000,0.5493,-0.2441,1,483,847,2421
2080753927,410585,-0.0225,-0.0039,1.0220,0.0610,0.3662,-0.1831,1,485,802,2421
2080758930,410586,-0.0220,-0.0034,1.0225,0.0000,0.3662,-0.2441,1,481,847,2421
2080763925,410587,-0.0220,-0.0044,1.0220,0.0610,0.2441,-0.2441,1,485,805,2421
2080768928,410588,-0.0215,-0.0044,1.0210,0.0000,0.3052,-0.1831,1,493,846,2421
2080773925,410589,-0.0229,-0.0044,1.0195,0.0610,0.2441,-0.1221,1,466,821,2421
2080778925,410590,-0.0259,-0.0049,1.0181,0.1831,0.1221,-0.2441,1,466,875,2421
2080783930,410591,-0.0269,-0.0059,1.0181,0.1221,-0.1221,-0.3052,1,466,871,2421
2080788926,410592,-0.0244,-0.0059,1.0190,0.0610,-0.0610,-0.3052,1,466,861,2421
2080793925,410593,-0.0215,-0.0039,1.0210,0.2441,-0.1831,-0.1831,1,483,868,2421
2080798924,410594,-0.0210,-0.0020,1.0220,0.3052,-0.3662,-0.1831,1,467,868,2421
2080803923,410595,-0.0220,-0.0015,1.0220,0.2441,-0.2441,-0.2441,1,484,814,2421
2080808928,410596,-0.0220,-0.0020,1.0229,0.2441,-0.0610,-0.3052,1,478,905,2421
2080813930,410597,-0.0215,-0.0039,1.0239,0.2441,0.0000,-0.1831,1,475,863,2421
2080818927,410598,-0.0205,-0.0049,1.0244,0.3662,-0.2441,-0.3052,1,479,832,2421
2080823950,410599,-0.0200,-0.0044,1.0244,0.1831,-0.3052,-0.3662,1,466,874,2421
2080828930,410600,-0.0200,-0.0029,1.0239,0.1831,-0.2441,-0.3052,1,468,856,2421
2080833923,410601,-0.0215,-0.0034,1.0225,0.3052,-0.1831,-0.2441,1,494,858,2421
2080838927,410602,-0.0220,-0.0049,1.0220,0.3052,-0.4272,-0.1831,1,512,855,2421
2080843930,410603,-0.0205,-0.0044,1.0229,0.3662,-0.4272,-0.2441,1,464,854,2421
2080848924,410604,-0.0195,-0.0029,1.0239,0.3052,-0.2441,-0.2441,1,492,814,2421
2080853927,410605,-0.0200,-0.0024,1.0229,0.3662,-0.3052,-0.1831,1,486,851,2421
2080858926,410606,-0.0200,-0.0029,1.0225,0.2441,-0.3662,-0.2441,1,484,850,2421
2080863927,410607,-0.0190,-0.0034,1.0225,0.3662,-0.3662,-0.3052,1,477,850,2421
2080868925,410608,-0.0186,-0.0029,1.0225,0.3662,-0.3662,-0.3662,1,486,849,2421
2080873923,410609,-0.0200,-0.0044,1.0225,0.4883,-0.3052,-0.3662,1,493,851,2421
2080878927,410610,-0.0225,-0.0054,1.0210,0.4272,-0.3662,-0.3662,1,465,870,2421
2080883923,410611,-0.0229,-0.0049,1.0195,0.4883,-0.5493,-0.3052,1,466,876,2421
2080888928,410612,-0.0210,-0.0034,1.0215,0.5493,-0.5493,-0.3052,1,466,875,2421
2080893931,410613,-0.0195,-0.0024,1.0239,0.4272,-0.4272,-0.3662,1,466,875,2421
2080898930,410614,-0.0200,-0.0010,1.0244,0.4883,-0.4272,-0.3052,1,465,885,2421
2080903927,410615,-0.0215,0.0010,1.0239,0.3662,-0.5493,-0.3662,1,484,858,2421
2080908925,410616,-0.0210,-0.0005,1.0244,0.3662,-0.5493,-0.1831,1,465,906,2421
2080913922,410617,-0.0186,-0.0024,1.0249,0.4272,-0.4883,-0.2441,1,470,866,2421
2080918931,410618,-0.0166,-0.0034,1.0244,0.3052,-0.3662,-0.3052,1,479,879,2421
2080923937,410619,-0.0176,-0.0039,1.0239,0.2441,-0.2441,-0.3052,1,475,874,2421
2080928922,410620,-0.0200,-0.0029,1.0229,0.3052,-0.3052,-0.3052,1,475,860,2421
2080933931,410621,-0.0210,-0.0024,1.0215,0.3052,-0.3052,-0.2441,1,494,847,2421
2080938924,410622,-0.0210,-0.0029,1.0215,0.3052,-0.3052,-0.3052,1,496,850,2421
2080943928,410623,-0.0210,-0.0044,1.0225,0.3052,-0.3052,-0.4883,1,464,845,2421
2080948930,410624,-0.0195,-0.0039,1.0229,0.4272,-0.3662,-0.3052,1,477,835,2421
2080953922,410625,-0.0181,-0.0020,1.0244,0.3662,-0.2441,-0.3052,1,482,851,2421
2080958925,410626,-0.0171,-0.0005,1.0244,0.2441,-0.1831,-0.3662,1,491,846,2421
2080963930,410627,-0.0181,-0.0010,1.0244,0.1831,-0.3052,-0.3662,1,476,847,2421
2080968926,410628,-0.0195,-0.0024,1.0244,0.2441,-0.0610,-0.3052,1,480,842,2421
2080973925,410629,-0.0200,-0.0039,1.0254,0.1831,0.0000,-0.2441,1,487,849,2421
2080978928,410630,-0.0186,-0.0044,1.0259,0.0610,0.0610,-0.3662,1,465,803,2421
2080983930,410631,-0.0176,-0.0044,1.0234,0.0610,0.0610,-0.3052,1,466,871,2421
2080988924,410632,-0.0181,-0.0049,1.0220,0.3052,0.0000,-0.3052,1,466,869,2421
2080993927,410633,-0.0186,-0.0039,1.0220,0.3052,-0.0610,-0.3052,1,466,817,2421
2080998929,410634,-0.0186,-0.0029,1.0225,0.2441,0.0610,-0.3052,1,483,867,2421
2081003923,410635,-0.0186,-0.0029,1.0234,0.3052,0.1221,-0.3052,1,465,860,2421
2081008931,410636,-0.0195,-0.0039,1.0239,0.3662,0.0610,-0.3662,1,484,809,2421
2081013925,410637,-0.0200,-0.0039,1.0229,0.3662,0.0610,-0.3052,1,467,910,2421
2081018924,410638,-0.0200,-0.0029,1.0229,0.1831,0.0000,-0.1831,1,477,862,2421
2081023929,410639,-0.0195,-0.0020,1.0244,0.2441,0.0610,-0.3662,1,480,831,2421
2081028943,410640,-0.0190,-0.0010,1.0249,0.3052,0.0000,-0.3662,1,478,878,2421
2081033924,410641,-0.0186,-0.0010,1.0244,0.1831,-0.0610,-0.3662,1,471,807,2421
2081038928,410642,-0.0186,-0.0015,1.0249,0.1221,0.0000,-0.2441,1,494,856,2421
2081043928,410643,-0.0190,-0.0020,1.0239,0.0000,0.1831,-0.3052,1,499,704,2421
2081048927,410644,-0.0195,-0.0039,1.0220,0.0000,0.0610,-0.4883,1,464,800,2421
2081053929,410645,-0.0205,-0.0049,1.0215,0.1221,-0.0610,-0.3662,1,476,799,2421
2081058931,410646,-0.0195,-0.0034,1.0220,0.3052,0.0000,-0.3662,1,475,842,2421
2081063923,410647,-0.0181,-0.0024,1.0220,0.1831,0.0000,-0.4272,1,481,828,2421
2081068930,410648,-0.0190,-0.0024,1.0220,0.2441,0.0000,-0.4883,1,478,801,2421
2081073928,410649,-0.0200,-0.0034,1.0220,0.1221,-0.1831,-0.4272,1,482,803,2421
2081078925,410650,-0.0200,-0.0029,1.0225,0.3052,-0.2441,-0.3052,1,488,847,2421
2081083927,410651,-0.0195,-0.0020,1.0229,0.2441,-0.1831,-0.3662,1,466,840,2421
2081088925,410652,-0.0195,-0.0029,1.0234,0.1221,-0.1221,-0.4272,1,465,883,2421
2081093925,410653,-0.0190,-0.0044,1.0239,0.0000,-0.1831,-0.4272,1,466,876,2421
2081098930,410654,-0.0186,-0.0039,1.0244,0.0000,-0.2441,-0.2441,1,466,834,2421
2081103923,410655,-0.0181,-0.0020,1.0239,0.1221,-0.2441,-0.3052,1,483,836,2421
2081108926,410656,-0.0176,-0.0020,1.0220,0.1221,-0.1831,-0.3662,1,465,859,2421
2081113923,410657,-0.0176,-0.0024,1.0205,0.0610,-0.0610,-0.2441,1,484,815,2421
2081118924,410658,-0.0190,-0.0029,1.0200,0.0000,-0.1221,-0.2441,1,468,902,2421
2081123926,410659,-0.0195,-0.0029,1.0220,0.0000,-0.1831,-0.2441,1,472,826,2421
2081128926,410660,-0.0181,-0.0024,1.0244,0.0000,-0.1221,-0.2441,1,474,831,2421
2081133941,410661,-0.0166,-0.0020,1.0254,0.0610,0.0610,-0.3662,1,477,810,2421
2081138928,410662,-0.0171,-0.0015,1.0249,0.1221,0.0610,-0.1831,1,470,854,2421
2081143928,410663,-0.0186,-0.0005,1.0239,0.0610,0.2441,-0.2441,1,510,851,2421
2081148923,410664,-0.0176,0.0000,1.0244,-0.0610,0.1831,-0.3662,1,498,853,2421
2081153928,410665,-0.0166,-0.0010,1.0254,0.0610,0.1831,-0.3052,1,464,831,2421
2081158924,410666,-0.0166,-0.0024,1.0254,0.1831,0.3662,-0.1831,1,468,850,2421
2081163927,410667,-0.0166,-0.0034,1.0239,0.0000,0.4883,-0.2441,1,481,855,2421
2081168922,410668,-0.0166,-0.0034,1.0225,-0.0610,0.5493,-0.3052,1,488,827,2421
2081173923,410669,-0.0171,-0.0034,1.0229,0.0610,0.4883,-0.2441,1,481,847,2421
2081178923,410670,-0.0186,-0.0034,1.0234,0.1831,0.3662,-0.2441,1,492,847,2421
2081183931,410671,-0.0186,-0.0029,1.0229,0.1221,0.3662,-0.3662,1,492,855,2421
2081188922,410672,-0.0181,-0.0034,1.0225,0.1831,0.4272,-0.1831,1,466,876,2421
2081193930,410673,-0.0176,-0.0044,1.0220,0.2441,0.4272,-0.3662,1,465,879,2421
2081198937,410674,-0.0176,-0.0029,1.0215,0.1221,0.5493,-0.3052,1,466,878,2421
2081203929,410675,-0.0190,-0.0029,1.0225,0.0610,0.5493,-0.3052,1,466,869,2421
2081208923,410676,-0.0205,-0.0029,1.0234,0.1221,0.4272,-0.5493,1,483,871,2421
2081213929,410677,-0.0205,-0.0020,1.0239,0.1221,0.4272,-0.3662,1,485,867,2421
2081218925,410678,-0.0186,-0.0015,1.0234,0.1221,0.5493,-0.2441,1,466,876,2421
2081223928,410679,-0.0181,-0.0024,1.0225,0.1221,0.5493,-0.2441,1,472,931,2421
2081228922,410680,-0.0205,-0.0024,1.0220,0.1831,0.4883,-0.3662,1,475,865,2421
2081233922,410681,-0.0220,-0.0024,1.0225,0.1831,0.3052,-0.4883,1,467,877,2421
2081238925,410682,-0.0205,-0.0020,1.0234,0.1221,0.3052,-0.3662,1,475,854,2421
2081243930,410683,-0.0171,-0.0020,1.0244,0.2441,0.4272,-0.2441,1,504,853,2421
2081248931,410684,-0.0156,-0.0015,1.0249,0.1831,0.6714,-0.3052,1,487,859,2421
2081253924,410685,-0.0166,-0.0005,1.0254,0.0000,0.6714,-0.3052,1,511,853,2421
2081258929,410686,-0.0186,-0.0005,1.0254,0.0610,0.6104,-0.3052,1,478,791,2421
2081263927,410687,-0.0190,-0.0015,1.0249,-0.0610,0.6714,-0.2441,1,474,833,2421
2081268925,410688,-0.0176,-0.0020,1.0239,0.0000,0.7935,-0.4272,1,487,845,2421
2081273923,410689,-0.0171,-0.0010,1.0239,-0.1221,0.8545,-0.2441,1,476,801,2421
2081278922,410690,-0.0176,0.0010,1.0239,0.0000,0.7935,-0.1831,1,491,840,2421
2081283926,410691,-0.0190,-0.0005,1.0234,-0.1221,0.9155,-0.2441,1,493,798,2421
2081288929,410692,-0.0195,-0.0029,1.0229,-0.1221,0.9766,-0.2441,1,466,846,2421
2081293924,410693,-0.0186,-0.0024,1.0234,-0.0610,0.9155,-0.2441,1,466,877,2421
2081298935,410694,-0.0176,-0.0020,1.0239,-0.1221,1.2207,-0.1831,1,466,881,2421
2081303922,410695,-0.0195,-0.0029,1.0234,-0.2441,1.1597,-0.2441,1,466,876,2421
2081308922,410696,-0.0215,-0.0039,1.0234,-0.0610,0.9155,-0.2441,1,484,883,2421
2081313930,410697,-0.0205,-0.0024,1.0229,-0.1221,1.0376,-0.2441,1,477,869,2421
2081318926,410698,-0.0186,-0.0015,1.0225,-0.1221,0.9766,-0.2441,1,484,867,2421
2081323930,410699,-0.0181,-0.0020,1.0225,0.0000,1.0376,-0.3052,1,465,931,2421
2081328922,410700,-0.0181,-0.0024,1.0229,-0.1221,1.0376,-0.3052,1,466,810,2421
2081333927,410701,-0.0181,-0.0015,1.0239,-0.3052,1.1597,-0.1831,1,479,859,2421
2081338922,410702,-0.0190,-0.0020,1.0249,-0.2441,1.1597,-0.2441,1,478,870,2421
2081343924,410703,-0.0195,-0.0024,1.0239,-0.1831,1.1597,-0.2441,1,482,863,2421
2081348930,410704,-0.0190,-0.0029,1.0220,-0.1831,1.1597,-0.3052,1,484,864,2421
2081353926,410705,-0.0186,-0.0029,1.0215,-0.2441,1.0376,-0.1831,1,512,854,2421
2081358923,410706,-0.0186,-0.0020,1.0229,-0.3052,1.1597,-0.1831,1,469,775,2421
2081363927,410707,-0.0181,-0.0015,1.0244,-0.2441,1.0986,-0.2441,1,475,846,2421
2081368925,410708,-0.0181,-0.0020,1.0239,-0.1221,1.1597,-0.1221,1,481,850,2421
2081373923,410709,-0.0190,-0.0029,1.0229,-0.2441,1.1597,-0.1831,1,473,866,2421
2081378925,410710,-0.0195,-0.0034,1.0239,-0.1221,1.1597,-0.1221,1,487,853,2421
2081383924,410711,-0.0190,-0.0029,1.0264,-0.2441,1.1597,-0.1221,1,471,846,2421
2081388923,410712,-0.0186,-0.0015,1.0269,-0.2441,1.1597,-0.0610,1,493,847,2421
2081393924,410713,-0.0195,-0.0010,1.0249,-0.3662,1.2817,-0.1221,1,466,843,2421
2081398923,410714,-0.0234,-0.0020,1.0215,-0.3662,1.2817,-0.1831,1,466,874,2421
2081403924,410715,-0.0264,-0.0039,1.0190,-0.3052,0.9155,-0.2441,1,466,881,2421
2081408922,410716,-0.0239,-0.0044,1.0205,-0.3052,0.9766,-0.3052,1,483,877,2421
2081413923,410717,-0.0195,-0.0034,1.0234,-0.3052,1.0986,-0.3052,1,465,857,2421
2081418923,410718,-0.0176,-0.0020,1.0244,-0.2441,0.9766,-0.0610,1,485,865,2421
2081423930,410719,-0.0186,-0.0015,1.0225,-0.3052,1.0376,-0.1221,1,466,901,2421
2081428929,410720,-0.0215,-0.0020,1.0195,-0.4272,1.0376,-0.1221,1,472,853,2421
2081433930,410721,-0.0244,-0.0039,1.0186,-0.4272,0.9155,-0.2441,1,476,862,2421
2081438929,410722,-0.0249,-0.0049,1.0200,-0.1831,0.8545,-0.1221,1,478,881,2421
2081443925,410723,-0.0220,-0.0044,1.0234,-0.0610,0.7935,-0.1831,1,465,854,2421
2081448923,410724,-0.0181,-0.0029,1.0254,-0.1221,0.7935,-0.1831,1,494,857,2421
2081453924,410725,-0.0176,-0.0024,1.0244,-0.3052,0.9155,-0.2441,1,483,851,2421
2081458930,410726,-0.0200,-0.0029,1.0225,-0.3052,0.9766,-0.2441,1,512,860,2421
2081463928,410727,-0.0225,-0.0029,1.0215,-0.2441,0.7935,-0.1831,1,464,813,2421
2081468925,410728,-0.0220,-0.0034,1.0225,-0.2441,0.7935,-0.1221,1,478,848,2421
2081473927,410729,-0.0215,-0.0024,1.0239,-0.3052,0.9766,-0.1221,1,490,846,2421
2081478923,410730,-0.0210,-0.0010,1.0239,-0.3052,1.0376,-0.1221,1,473,869,2421
2081483929,410731,-0.0205,-0.0015,1.0215,-0.3052,0.9766,-0.0610,1,488,836,2421
2081488930,410732,-0.0225,-0.0020,1.0200,-0.3052,0.9766,-0.1221,1,491,838,2421
2081493922,410733,-0.0249,-0.0015,1.0195,-0.3662,0.7935,-0.3052,1,484,835,2421
2081498927,410734,-0.0244,-0.0024,1.0200,-0.4883,0.7324,-0.2441,1,466,845,2421
2081503926,410735,-0.0220,-0.0044,1.0200,-0.3052,0.6714,-0.0610,1,466,880,2421
2081508922,410736,-0.0220,-0.0049,1.0200,-0.1831,0.5493,-0.1221,1,466,867,2421
2081513930,410737,-0.0239,-0.0039,1.0210,-0.1831,0.4883,-0.1831,1,466,874,2421
2081518924,410738,-0.0239,-0.0029,1.0220,-0.1221,0.5493,-0.0610,1,465,879,2421
2081523925,410739,-0.0215,-0.0029,1.0225,-0.2441,0.6104,-0.1831,1,483,865,2421
2081528930,410740,-0.0205,-0.0024,1.0229,-0.2441,0.4883,-0.2441,1,465,902,2421
2081533925,410741,-0.0215,-0.0024,1.0229,-0.2441,0.4883,-0.2441,1,473,924,2421
2081538924,410742,-0.0225,-0.0029,1.0220,-0.1831,0.4272,-0.2441,1,482,872,2421
2081543925,410743,-0.0220,-0.0039,1.0225,-0.1221,0.5493,-0.2441,1,466,877,2421
2081548925,410744,-0.0225,-0.0044,1.0234,-0.3662,0.3662,-0.3662,1,472,858,2421
2081553923,410745,-0.0229,-0.0039,1.0229,-0.2441,0.4272,-0.3052,1,501,862,2421
2081558931,410746,-0.0229,-0.0039,1.0215,-0.2441,0.4883,-0.3052,1,489,861,2421
2081563927,410747,-0.0234,-0.0059,1.0186,-0.1221,0.3052,-0.2441,1,506,855,2421
2081568922,410748,-0.0239,-0.0059,1.0166,-0.1221,0.1221,-0.2441,1,464,847,2421
2081573929,410749,-0.0244,-0.0044,1.0171,-0.1221,0.0610,-0.1831,1,474,843,2421
2081578922,410750,-0.0234,-0.0034,1.0190,-0.0610,0.0610,-0.2441,1,476,871,2421
2081583928,410751,-0.0229,-0.0034,1.0181,0.0000,0.0610,-0.3662,1,471,847,2421
2081588929,410752,-0.0278,-0.0044,1.0132,0.0610,-0.1221,-0.4272,1,477,801,2421
2081593924,410753,-0.0317,-0.0059,1.0107,0.0610,-0.5493,-0.4272,1,473,844,2421
2081598922,410754,-0.0298,-0.0088,1.0137,0.3662,-0.7935,-0.3052,1,493,847,2421
2081603926,410755,-0.0259,-0.0083,1.0195,0.4883,-0.8545,-0.4272,1,466,870,2421
2081608926,410756,-0.0205,-0.0044,1.0234,0.4883,-1.0376,-0.3052,1,466,879,2421
2081613924,410757,-0.0181,-0.0020,1.0229,0.6104,-0.8545,-0.3052,1,466,871,2421
2081618928,410758,-0.0200,-0.0024,1.0210,0.5493,-0.8545,-0.3052,1,483,868,2421
2081623927,410759,-0.0220,-0.0039,1.0205,0.5493,-0.8545,-0.2441,1,465,861,2421
2081628930,410760,-0.0239,-0.0049,1.0215,0.6104,-0.8545,-0.3052,1,484,868,2421
2081633926,410761,-0.0239,-0.0078,1.0225,0.6104,-0.7935,-0.2441,1,465,896,2421
2081638930,410762,-0.0210,-0.0068,1.0249,0.8545,-0.9766,-0.3052,1,475,865,2421
2081643925,410763,-0.0190,-0.0015,1.0254,0.7324,-1.0376,-0.3052,1,475,869,2421
2081648941,410764,-0.0210,-0.0024,1.0225,0.6714,-0.9766,-0.4272,1,465,868,2421
2081653922,410765,-0.0234,-0.0049,1.0200,0.7935,-1.1597,-0.3052,1,474,854,2421
2081658927,410766,-0.0225,-0.0034,1.0215,0.9155,-1.2817,-0.3052,1,496,851,2421
2081663926,410767,-0.0186,-0.0015,1.0244,0.8545,-1.2817,-0.3052,1,484,857,2421
2081668930,410768,-0.0156,-0.0015,1.0244,0.8545,-1.3428,-0.3662,1,494,794,2421
2081673927,410769,-0.0181,-0.0015,1.0215,0.6714,-1.0376,-0.3662,1,473,858,2421
2081678925,410770,-0.0234,-0.0015,1.0190,0.7324,-1.2817,-0.3052,1,486,840,2421
2081683922,410771,-0.0234,-0.0039,1.0200,0.6714,-1.4648,-0.4272,1,477,846,2421
2081688922,410772,-0.0210,-0.0063,1.0220,0.9155,-1.2207,-0.3662,1,490,870,2421
2081693926,410773,-0.0210,-0.0054,1.0220,1.0376,-1.4038,-0.4272,1,477,851,2421
2081698924,410774,-0.0215,-0.0044,1.0205,1.0376,-1.4648,-0.4272,1,471,845,2421
2081703928,410775,-0.0220,-0.0029,1.0190,1.0986,-1.5259,-0.4272,1,493,849,2421
2081708926,410776,-0.0220,-0.0024,1.0195,1.0986,-1.6479,-0.3052,1,466,880,2421
2081713931,410777,-0.0205,-0.0024,1.0220,1.0986,-1.6479,-0.3662,1,466,881,2421
2081718930,410778,-0.0186,-0.0020,1.0239,1.0986,-1.5869,-0.3052,1,466,883,2421
2081723922,410779,-0.0181,-0.0015,1.0244,0.9155,-1.5259,-0.3662,1,483,878,2421
2081728926,410780,-0.0176,-0.0015,1.0239,1.1597,-1.4648,-0.3662,1,475,865,2421
2081733928,410781,-0.0181,-0.0020,1.0239,1.0376,-1.4038,-0.4272,1,465,830,2421
2081738929,410782,-0.0186,-0.0039,1.0239,0.9766,-1.3428,-0.4883,1,465,931,2421
2081743929,410783,-0.0171,-0.0044,1.0249,1.0376,-1.4038,-0.3662,1,465,866,2421
2081748925,410784,-0.0171,-0.0029,1.0229,1.0986,-1.2817,-0.4272,1,470,866,2421
2081753925,410785,-0.0229,-0.0024,1.0161,1.1597,-1.3428,-0.4272,1,477,880,2421
2081758923,410786,-0.0283,-0.0034,1.0137,1.1597,-1.7700,-0.4883,1,477,865,2421
2081763929,410787,-0.0249,-0.0020,1.0186,1.3428,-1.8921,-0.5493,1,482,859,2421
2081768922,410788,-0.0166,0.0000,1.0254,1.2207,-1.7700,-0.4272,1,487,857,2421
2081773930,410789,-0.0122,-0.0005,1.0293,1.1597,-1.4038,-0.5493,1,466,820,2421
2081778927,410790,-0.0142,-0.0005,1.0273,1.0986,-1.4648,-0.4272,1,490,856,2421
2081783930,410791,-0.0176,-0.0010,1.0225,1.1597,-1.5869,-0.4883,1,479,850,2421
2081788927,410792,-0.0195,-0.0024,1.0200,1.0986,-1.6479,-0.4883,1,488,844,2421
2081793927,410793,-0.0181,-0.0020,1.0220,1.0986,-1.7090,-0.4883,1,476,878,2421
2081798924,410794,-0.0132,-0.0005,1.0244,1.1597,-1.5259,-0.4883,1,478,841,2421
2081803930,410795,-0.0107,0.0000,1.0239,1.0376,-1.3428,-0.5493,1,484,843,2421
2081808929,410796,-0.0127,-0.0010,1.0225,1.0376,-1.2817,-0.4883,1,493,811,2421
2081813930,410797,-0.0132,-0.0015,1.0225,1.0376,-1.3428,-0.5493,1,466,870,2421
2081818940,410798,-0.0137,0.0000,1.0234,1.0986,-1.2817,-0.6104,1,466,875,2421
2081823922,410799,-0.0137,0.0024,1.0254,0.9766,-1.0986,-0.6104,1,466,838,2421
2081828927,410800,-0.0127,0.0034,1.0269,0.9766,-1.0376,-0.6104,1,465,872,2421
2081833931,410801,-0.0137,0.0015,1.0254,0.8545,-0.9766,-0.5493,1,477,858,2421
2081838929,410802,-0.0181,-0.0024,1.0205,0.9155,-0.9155,-0.6104,1,465,869,2421
2081843924,410803,-0.0205,-0.0049,1.0166,1.0376,-0.9155,-0.6714,1,482,903,2421
2081848927,410804,-0.0190,-0.0010,1.0176,1.0986,-1.2817,-0.7324,1,470,865,2421
2081853928,410805,-0.0151,0.0039,1.0234,0.9155,-1.2817,-0.5493,1,470,866,2421
2081858923,410806,-0.0117,0.0054,1.0273,0.9155,-1.2207,-0.5493,1,474,839,2421
2081863930,410807,-0.0127,0.0044,1.0264,0.7324,-1.2207,-0.6104,1,479,862,2421
2081868925,410808,-0.0161,0.0029,1.0234,0.8545,-1.2817,-0.6104,1,505,854,2421
2081873928,410809,-0.0166,0.0010,1.0229,0.7324,-1.2817,-0.4883,1,497,859,2421
2081878930,410810,-0.0127,0.0005,1.0259,0.6104,-1.2817,-0.4272,1,466,804,2421
2081883928,410811,-0.0093,0.0010,1.0278,0.6104,-1.1597,-0.4883,1,478,842,2421
2081888923,410812,-0.0093,0.0015,1.0283,0.7324,-1.0986,-0.4272,1,489,838,2421
2081893926,410813,-0.0107,0.0020,1.0278,0.6714,-1.0376,-0.4272,1,483,848,2421
2081898927,410814,-0.0107,0.0015,1.0278,0.6104,-0.8545,-0.4883,1,483,847,2421
2081903931,410815,-0.0088,0.0015,1.0293,0.6104,-0.7935,-0.5493,1,489,841,2421
2081908924,410816,-0.0093,0.0020,1.0293,0.6104,-0.6104,-0.4883,1,493,837,2421
2081913927,410817,-0.0122,0.0020,1.0259,0.4883,-0.6104,-0.4272,1,466,862,2421
2081918928,410818,-0.0146,0.0005,1.0225,0.4883,-0.6104,-0.3662,1,466,873,2421
2081923928,410819,-0.0156,-0.0010,1.0215,0.4272,-0.5493,-0.4272,1,466,870,2421
2081928923,410820,-0.0137,-0.0005,1.0220,0.4883,-0.6104,-0.4883,1,484,876,2421
2081933924,410821,-0.0078,0.0024,1.0249,0.4883,-0.4883,-0.3662,1,465,853,2421
2081938928,410822,-0.0107,0.0034,1.0234,0.3662,-0.3052,-0.4272,1,484,865,2421
2081943923,410823,-0.0137,0.0020,1.0220,0.3662,-0.4272,-0.2441,1,465,906,2421
2081948926,410824,-0.0132,0.0000,1.0229,0.3052,-0.3052,-0.3052,1,472,867,2421
2081953925,410825,-0.0117,-0.0005,1.0259,0.3052,-0.1831,-0.2441,1,472,824,2421
2081958938,410826,-0.0103,0.0005,1.0269,0.4272,-0.1831,-0.3662,1,476,823,2421
2081963922,410827,-0.0103,0.0020,1.0259,0.3052,-0.1221,-0.3662,1,468,854,2421
2081968927,410828,-0.0103,0.0034,1.0254,0.3662,0.0000,-0.2441,1,482,848,2421
2081973927,410829,-0.0103,0.0034,1.0259,0.2441,0.1221,-0.3052,1,483,749,2421
2081978925,410830,-0.0103,0.0034,1.0273,0.1221,0.1221,-0.4272,1,511,795,2421
2081983922,410831,-0.0093,0.0039,1.0293,0.1831,0.1831,-0.3662,1,469,852,2421
2081988927,410832,-0.0088,0.0039,1.0298,0.0000,0.4272,-0.3052,1,483,847,2421
2081993930,410833,-0.0093,0.0029,1.0278,-0.0610,0.6714,-0.3662,1,486,794,2421
2081998931,410834,-0.0098,0.0020,1.0244,-0.1221,0.6104,-0.3662,1,483,843,2421
2082003926,410835,-0.0112,0.0015,1.0220,0.0610,0.6714,-0.3662,1,491,840,2421
2082008931,410836,-0.0122,0.0010,1.0210,0.0000,0.7324,-0.3052,1,481,845,2421
2082013922,410837,-0.0122,0.0020,1.0215,0.1831,0.6104,-0.3052,1,492,794,2421
2082018928,410838,-0.0112,0.0029,1.0229,0.1221,0.6714,-0.2441,1,466,869,2421
2082023929,410839,-0.0122,0.0024,1.0249,-0.0610,0.6104,-0.4272,1,466,877,2421
2082028922,410840,-0.0122,0.0015,1.0254,0.0000,0.6104,-0.3052,1,466,878,2421
2082033926,410841,-0.0117,0.0015,1.0259,-0.1221,0.6104,-0.2441,1,483,820,2421
2082038930,410842,-0.0117,0.0020,1.0259,-0.1221,0.7324,-0.1831,1,466,856,2421
2082043922,410843,-0.0117,0.0024,1.0269,-0.0610,0.8545,-0.1221,1,484,863,2421
2082048931,410844,-0.0117,0.0024,1.0273,-0.3052,0.8545,-0.1831,1,466,898,2421
2082053922,410845,-0.0122,0.0020,1.0278,-0.2441,0.9155,-0.1831,1,475,931,2421
2082058925,410846,-0.0122,0.0020,1.0278,-0.3052,0.9766,-0.1831,1,483,872,2421
2082063922,410847,-0.0112,0.0024,1.0273,-0.4272,0.9766,-0.0610,1,465,872,2421
2082068944,410848,-0.0088,0.0010,1.0283,-0.4272,1.0986,-0.1831,1,469,860,2421
2082073927,410849,-0.0073,-0.0005,1.0278,-0.4272,1.2207,-0.1831,1,470,854,2421
2082078923,410850,-0.0088,-0.0005,1.0254,-0.4272,1.3428,-0.0610,1,509,858,2421
2082083929,410851,-0.0122,0.0010,1.0249,-0.3662,1.4038,-0.1221,1,502,847,2421
2082088925,410852,-0.0142,0.0020,1.0254,-0.4272,1.3428,-0.1221,1,493,770,2421
2082093929,410853,-0.0122,0.0015,1.0264,-0.5493,1.5259,-0.1221,1,478,816,2421
2082098923,410854,-0.0083,0.0015,1.0269,-0.5493,1.7700,-0.0610,1,491,844,2421
2082103928,410855,-0.0073,0.0029,1.0273,-0.6104,1.8921,-0.0610,1,483,842,2421
2082108922,410856,-0.0093,0.0029,1.0273,-0.6714,2.0752,-0.0610,1,486,867,2421
2082113923,410857,-0.0112,0.0024,1.0264,-0.6104,2.0752,-0.0610,1,477,842,2421
2082118925,410858,-0.0117,0.0024,1.0254,-0.6714,2.1973,-0.0610,1,479,845,2421
2082123924,410859,-0.0107,0.0020,1.0249,-0.6714,2.3804,0.0000,1,493,846,2421
2082128924,410860,-0.0146,0.0010,1.0195,-0.6714,2.6855,-0.0610,1,465,829,2421
2082133924,410861,-0.0244,-0.0015,1.0117,-0.5493,2.3804,-0.0610,1,466,874,2421
2082138925,410862,-0.0298,-0.0039,1.0088,-0.4272,1.7090,-0.0610,1,466,877,2421
2082143924,410863,-0.0254,-0.0029,1.0127,-0.1831,1.5259,-0.1221,1,483,872,2421
2082148930,410864,-0.0146,0.0000,1.0225,-0.3052,1.4038,-0.1221,1,465,861,2421
2082153928,410865,-0.0078,0.0020,1.0298,-0.3052,1.6479,-0.0610,1,484,830,2421
2082158923,410866,-0.0107,0.0015,1.0288,-0.2441,1.7090,-0.1221,1,465,896,2421
2082163930,410867,-0.0161,0.0015,1.0234,-0.3662,1.5259,-0.1221,1,467,862,2421
2082168930,410868,-0.0171,0.0010,1.0200,-0.3662,1.5259,-0.0610,1,482,864,2421
2082173930,410869,-0.0142,0.0000,1.0210,-0.1831,1.5259,-0.0610,1,466,865,2421
2082178956,410870,-0.0103,0.0005,1.0244,-0.1831,1.5259,-0.1221,1,466,814,2421
2082183929,410871,-0.0098,0.0020,1.0269,-0.1831,1.7090,-0.1221,1,466,849,2421
2082188926,410872,-0.0122,0.0015,1.0283,-0.1831,2.0142,-0.1221,1,493,846,2421
2082193922,410873,-0.0146,0.0010,1.0269,-0.1221,2.0142,-0.1831,1,512,853,2421
2082198930,410874,-0.0156,0.0010,1.0239,-0.1221,2.0142,-0.1831,1,464,795,2421
2082203926,410875,-0.0142,0.0010,1.0239,-0.1831,2.1973,-0.1221,1,478,852,2421
2082208924,410876,-0.0127,0.0010,1.0249,-0.1221,2.2583,0.0000,1,490,844,2421
2082213930,410877,-0.0142,0.0005,1.0229,-0.1221,2.4414,0.0000,1,478,799,2421
2082218925,410878,-0.0190,-0.0010,1.0171,-0.1221,2.5635,-0.1221,1,480,797,2421
2082223928,410879,-0.0259,-0.0015,1.0103,-0.0610,2.3193,-0.0610,1,490,835,2421
2082228925,410880,-0.0303,-0.0005,1.0063,-0.0610,1.8311,-0.0610,1,490,842,2421
2082233929,410881,-0.0283,0.0005,1.0068,-0.0610,1.4648,-0.1221,1,493,834,2421
2082238928,410882,-0.0259,0.0005,1.0078,0.1221,1.4038,-0.1221,1,466,870,2421
2082243946,410883,-0.0288,0.0010,1.0068,0.1831,0.7935,-0.1221,1,466,864,2421
2082248928,410884,-0.0312,0.0010,1.0063,0.0000,0.2441,-0.1221,1,466,871,2421
2082253922,410885,-0.0303,0.0005,1.0068,0.0000,0.0000,-0.1831,1,465,838,2421
2082258928,410886,-0.0298,-0.0015,1.0093,0.1221,-0.6104,-0.1831,1,483,819,2421
2082263922,410887,-0.0288,-0.0029,1.0137,0.3052,-0.9155,-0.2441,1,465,893,2421
2082268924,410888,-0.0273,-0.0029,1.0146,0.4272,-1.0986,-0.3052,1,481,933,2421
2082273929,410889,-0.0259,-0.0010,1.0117,0.4883,-1.4648,-0.2441,1,466,876,2421
2082278929,410890,-0.0254,0.0000,1.0103,0.4883,-1.6479,-0.4883,1,466,874,2421
2082283929,410891,-0.0259,0.0000,1.0098,0.6104,-2.0752,-0.4883,1,470,814,2421
2082288922,410892,-0.0283,-0.0010,1.0068,0.7935,-2.3193,-0.6104,1,472,808,2421
2082293927,410893,-0.0332,-0.0039,1.0024,1.0376,-2.8687,-0.6104,1,484,854,2421
2082298924,410894,-0.0366,-0.0073,1.0010,1.2817,-3.4790,-0.7324,1,512,856,2421
2082303927,410895,-0.0337,-0.0078,1.0073,1.4038,-4.3945,-0.7935,1,466,778,2421
2082308924,410896,-0.0234,-0.0044,1.0195,1.6479,-4.6387,-0.9155,1,473,863,2421
2082313927,410897,-0.0137,-0.0005,1.0288,1.7090,-4.8828,-0.7935,1,484,855,2421
2082318924,410898,-0.0103,0.0010,1.0273,1.6479,-4.7607,-0.7935,1,492,845,2421
2082323931,410899,-0.0181,-0.0010,1.0156,1.7700,-4.8218,-0.8545,1,483,845,2421
2082328924,410900,-0.0293,-0.0059,1.0063,1.8311,-5.4932,-0.7935,1,486,842,2421
2082333924,410901,-0.0303,-0.0073,1.0083,2.1973,-6.4697,-0.8545,1,489,843,2421
2082338923,410902,-0.0190,-0.0015,1.0181,2.3193,-6.6528,-0.9155,1,466,852,2421
2082343929,410903,-0.0093,0.0034,1.0239,2.1973,-6.3477,-0.9155,1,465,880,2421
2082348928,410904,-0.0103,0.0039,1.0215,2.2583,-6.2866,-0.8545,1,466,879,2421
2082353928,410905,-0.0166,0.0029,1.0176,2.1362,-6.6528,-0.7324,1,483,881,2421
2082358924,410906,-0.0171,0.0024,1.0190,2.1973,-7.3242,-0.7324,1,466,885,2421
2082363923,410907,-0.0093,0.0024,1.0259,2.1362,-7.1411,-0.7935,1,484,871,2421
2082368929,410908,-0.0015,0.0039,1.0327,2.0752,-6.8970,-0.7324,1,472,908,2421
2082373929,410909,-0.0029,0.0078,1.0298,1.8311,-6.6528,-0.6104,1,472,864,2421
2082378922,410910,-0.0093,0.0103,1.0229,1.3428,-6.8970,-0.3662,1,475,871,2421
2082383929,410911,-0.0044,0.0059,1.0269,1.0986,-7.0190,-0.3052,1,467,876,2421
2082388929,410912,0.0034,0.0015,1.0342,1.4038,-6.2866,-0.4272,1,467,847,2421
2082393927,410913,0.0054,0.0005,1.0366,1.4648,-5.9204,-0.4272,1,492,857,2421
2082398924,410914,0.0054,0.0020,1.0356,1.3428,-5.4321,-0.4883,1,489,853,2421
2082403926,410915,0.0029,0.0049,1.0322,1.4038,-4.9438,-0.4883,1,494,873,2421
2082408926,410916,0.0010,0.0059,1.0293,1.2817,-4.8218,-0.4272,1,465,857,2421
2082413925,410917,0.0024,0.0049,1.0308,1.3428,-4.4556,-0.4272,1,477,840,2421
2082418923,410918,0.0049,0.0044,1.0327,1.2207,-4.0894,-0.4272,1,488,845,2421
2082423922,410919,0.0049,0.0049,1.0327,1.2817,-3.6011,-0.4272,1,481,845,2421
2082428926,410920,0.0029,0.0039,1.0308,1.2817,-3.2959,-0.5493,1,471,845,2421
2082433929,410921,0.0010,0.0029,1.0288,1.3428,-3.3569,-0.6104,1,492,848,2421
2082438930,410922,0.0005,0.0044,1.0273,1.4038,-3.2349,-0.6104,1,492,843,2421
2082443925,410923,0.0029,0.0068,1.0283,1.4648,-3.0518,-0.5493,1,465,867,2421
2082448930,410924,0.0044,0.0093,1.0303,1.2817,-2.6245,-0.6714,1,466,880,2421
2082453926,410925,0.0034,0.0103,1.0317,1.1597,-2.6855,-0.6104,1,466,873,2421
2082458931,410926,0.0054,0.0088,1.0337,0.9155,-2.4414,-0.5493,1,466,875,2421
2082463926,410927,0.0078,0.0068,1.0332,0.9766,-2.0752,-0.4883,1,484,866,2421
2082468930,410928,0.0083,0.0068,1.0317,0.6714,-1.8921,-0.4883,1,465,899,2421
2082473929,410929,0.0068,0.0088,1.0312,0.4883,-1.3428,-0.4883,1,483,862,2421
2082478926,410930,0.0049,0.0107,1.0308,0.2441,-0.9766,-0.4883,1,467,889,2421
2082483927,410931,0.0059,0.0098,1.0312,0.0000,-0.8545,-0.3662,1,474,822,2421
2082488923,410932,0.0083,0.0078,1.0322,-0.0610,-0.6104,-0.1221,1,479,831,2421
2082493928,410933,0.0093,0.0073,1.0332,-0.1221,-0.1831,-0.1221,1,508,850,2421
2082498930,410934,0.0063,0.0063,1.0322,-0.3662,0.1831,-0.2441,1,484,852,2421
2082503923,410935,0.0010,0.0049,1.0283,-0.2441,0.4883,-0.1831,1,475,878,2421
2082508930,410936,-0.0029,0.0039,1.0249,-0.2441,0.7324,-0.1221,1,466,822,2421
2082513928,410937,-0.0049,0.0044,1.0244,-0.3052,0.5493,-0.3052,1,477,846,2421
2082518924,410938,-0.0024,0.0054,1.0264,-0.1831,0.5493,-0.3052,1,488,838,2421
2082523923,410939,0.0020,0.0059,1.0288,-0.2441,0.7935,-0.1221,1,480,869,2421
2082528924,410940,0.0034,0.0059,1.0283,-0.3662,0.9766,-0.1831,1,491,839,2421
2082533929,410941,0.0005,0.0054,1.0259,-0.3662,1.0376,0.0000,1,473,845,2421
2082538922,410942,-0.0015,0.0054,1.0244,-0.3052,1.0376,-0.0610,1,488,790,2421
2082543925,410943,-0.0020,0.0049,1.0254,-0.3052,1.0376,-0.0610,1,466,862,2421
2082548924,410944,0.0005,0.0044,1.0264,-0.2441,1.0986,-0.1831,1,465,861,2421
2082553922,410945,0.0034,0.0049,1.0283,-0.1221,1.2817,-0.0610,1,466,869,2421
2082558928,410946,0.0034,0.0059,1.0298,-0.2441,1.4038,-0.1221,1,483,871,2421
2082563930,410947,0.0024,0.0068,1.0288,-0.3052,1.6479,0.0000,1,466,859,2421
2082568923,410948,0.0015,0.0063,1.0249,-0.3052,1.7090,0.0610,1,484,827,2421
2082573929,410949,-0.0015,0.0049,1.0225,-0.3662,1.8311,0.0610,1,471,903,2421
2082578925,410950,-0.0020,0.0044,1.0254,-0.3662,1.8311,0.0610,1,469,854,2421
2082583922,410951,0.0010,0.0049,1.0283,-0.3662,2.0142,0.0610,1,476,865,2421
2082588924,410952,0.0044,0.0049,1.0288,-0.3662,2.1973,0.0610,1,481,819,2421
2082593926,410953,0.0024,0.0054,1.0254,-0.3662,2.4414,0.0610,1,482,853,2421
2082598929,410954,-0.0063,0.0054,1.0176,-0.3052,2.4414,0.1831,1,509,856,2421
2082603928,410955,-0.0146,0.0039,1.0117,-0.3052,2.0752,0.2441,1,505,854,2421
2082608925,410956,-0.0161,0.0020,1.0112,-0.1221,1.5869,0.1831,1,483,875,2421
2082613930,410957,-0.0132,0.0020,1.0132,-0.0610,1.2817,0.1221,1,466,822,2421
2082618927,410958,-0.0103,0.0015,1.0146,-0.0610,1.0376,0.0000,1,483,841,2421
2082623927,410959,-0.0088,0.0020,1.0151,0.1221,0.8545,0.0610,1,478,822,2421
2082628923,410960,-0.0103,0.0029,1.0137,0.1831,0.6104,0.0000,1,488,835,2421
2082633922,410961,-0.0122,0.0029,1.0142,0.3662,0.0610,0.1221,1,482,795,2421
2082638927,410962,-0.0122,0.0039,1.0161,0.4272,-0.1831,0.0000,1,483,843,2421
2082643923,410963,-0.0117,0.0039,1.0166,0.4272,-0.3662,-0.1221,1,493,808,2421
2082648927,410964,-0.0122,0.0029,1.0146,0.5493,-0.6104,-0.2441,1,466,877,2421
2082653943,410965,-0.0137,0.0029,1.0127,0.5493,-1.2817,-0.2441,1,466,879,2421
2082658923,410966,-0.0117,0.0044,1.0142,0.5493,-1.5259,-0.2441,1,466,881,2421
2082663924,410967,-0.0088,0.0054,1.0181,0.4883,-1.7090,-0.2441,1,465,877,2421
2082668927,410968,-0.0073,0.0063,1.0210,0.5493,-2.1362,-0.2441,1,484,855,2421
2082673930,410969,-0.0068,0.0063,1.0215,0.4883,-2.1973,-0.3052,1,465,880,2421
2082678926,410970,-0.0083,0.0044,1.0195,0.4883,-2.3804,-0.3052,1,472,861,2421
2082683926,410971,-0.0107,0.0029,1.0151,0.4272,-2.7466,-0.3052,1,482,859,2421
2082688924,410972,-0.0127,0.0015,1.0132,0.6104,-3.1738,-0.3662,1,467,875,2421
2082693955,410973,-0.0112,0.0010,1.0161,0.6104,-3.4790,-0.3662,1,477,855,2421
2082698925,410974,-0.0093,0.0015,1.0161,0.8545,-3.8452,-0.3662,1,474,857,2421
2082703922,410975,-0.0103,0.0020,1.0142,0.9155,-4.2725,-0.4272,1,484,856,2421
2082708925,410976,-0.0107,0.0015,1.0146,1.0986,-4.8218,-0.2441,1,478,873,2421
2082713930,410977,-0.0054,0.0034,1.0181,1.0376,-5.3101,-0.3052,1,493,803,2421
2082718928,410978,0.0010,0.0063,1.0229,0.8545,-5.1880,-0.3052,1,491,844,2421
2082723928,410979,0.0029,0.0083,1.0229,0.7935,-5.2490,-0.3052,1,481,839,2421
2082728930,410980,0.0000,0.0068,1.0190,0.6714,-5.4932,-0.3052,1,492,845,2421
2082733931,410981,-0.0010,0.0039,1.0190,0.6714,-5.7373,-0.2441,1,476,800,2421
2082738925,410982,0.0034,0.0049,1.0249,0.8545,-5.6763,-0.3052,1,476,845,2421
2082743929,410983,0.0103,0.0073,1.0317,0.6104,-5.2490,-0.2441,1,488,843,2421
2082748930,410984,0.0146,0.0078,1.0337,0.4272,-4.7607,-0.2441,1,493,849,2421
2082753922,410985,0.0117,0.0073,1.0303,0.5493,-4.5776,-0.3662,1,466,883,2421
2082758930,410986,0.0083,0.0073,1.0264,0.4272,-4.3945,-0.3052,1,466,882,2421
2082763926,410987,0.0088,0.0073,1.0259,0.3052,-4.1504,-0.3052,1,484,876,2421
2082768923,410988,0.0112,0.0073,1.0283,0.4272,-3.9673,-0.3662,1,465,854,2421
2082773924,410989,0.0132,0.0073,1.0303,0.4272,-3.5400,-0.1831,1,484,873,2421
2082778926,410990,0.0107,0.0073,1.0283,0.2441,-3.2349,-0.3052,1,475,904,2421
2082783927,410991,0.0059,0.0034,1.0225,0.3662,-3.3569,-0.3662,1,479,868,2421
2082788928,410992,0.0073,0.0029,1.0234,0.5493,-3.2349,-0.4272,1,482,875,2421
2082793933,410993,0.0103,0.0039,1.0249,0.6104,-3.1738,-0.4883,1,467,878,2421
2082798927,410994,0.0117,0.0054,1.0239,0.6714,-2.8687,-0.5493,1,470,857,2421
2082803930,410995,0.0088,0.0054,1.0210,0.6714,-2.6855,-0.4272,1,500,858,2421
2082808925,410996,0.0059,0.0049,1.0200,0.9155,-2.7466,-0.4272,1,511,853,2421
2082813927,410997,0.0068,0.0049,1.0229,0.8545,-2.7466,-0.5493,1,494,813,2421
2082818929,410998,0.0103,0.0063,1.0264,0.7935,-2.5024,-0.5493,1,464,856,2421
2082823923,410999,0.0142,0.0073,1.0293,0.8545,-2.3193,-0.4883,1,492,847,2421
2082828929,411000,0.0146,0.0083,1.0293,0.6714,-2.0142,-0.4883,1,484,849,2421
2082833926,411001,0.0132,0.0098,1.0283,0.4272,-1.7700,-0.3052,1,488,847,2421
2082838930,411002,0.0137,0.0098,1.0288,0.3662,-1.6479,-0.3662,1,491,844,2421
2082843927,411003,0.0156,0.0093,1.0298,0.2441,-1.5869,-0.3052,1,473,852,2421
2082848928,411004,0.0171,0.0098,1.0303,0.2441,-1.1597,-0.3052,1,493,848,2421
2082853922,411005,0.0171,0.0098,1.0293,0.1831,-0.9155,-0.1831,1,466,865,2421
2082858933,411006,0.0161,0.0078,1.0288,0.0000,-0.6714,-0.1221,1,466,876,2421
2082863927,411007,0.0151,0.0063,1.0278,0.0000,-0.3662,-0.1221,1,466,829,2421
2082868924,411008,0.0151,0.0063,1.0273,-0.0610,-0.2441,-0.1221,1,483,831,2421
2082873925,411009,0.0137,0.0063,1.0269,-0.1221,0.0610,-0.0610,1,473,867,2421
2082878929,411010,0.0117,0.0068,1.0269,-0.1221,0.2441,-0.1221,1,466,866,2421
2082883923,411011,0.0132,0.0059,1.0269,-0.1221,0.3662,-0.0610,1,482,898,2421
2082888928,411012,0.0142,0.0054,1.0273,-0.1831,0.5493,-0.0610,1,472,856,2421
2082893922,411013,0.0132,0.0054,1.0273,-0.0610,0.6714,-0.1221,1,476,867,2421
2082898945,411014,0.0112,0.0063,1.0264,-0.0610,0.7935,-0.0610,1,467,850,2421
2082903922,411015,0.0107,0.0059,1.0244,0.0000,0.9766,-0.0610,1,473,853,2421
2082908924,411016,0.0107,0.0044,1.0239,0.0000,1.1597,-0.0610,1,498,804,2421
2082913927,411017,0.0107,0.0049,1.0234,0.0610,1.2817,-0.0610,1,469,723,2421
2082918926,411018,0.0098,0.0059,1.0220,0.0000,1.2817,-0.1831,1,493,803,2421
2082923925,411019,0.0073,0.0059,1.0210,0.1831,1.3428,-0.2441,1,492,797,2421
2082928929,411020,0.0044,0.0063,1.0215,0.1831,1.1597,-0.1221,1,479,843,2421
2082933924,411021,0.0054,0.0068,1.0234,0.0610,1.2207,-0.1831,1,485,842,2421
2082938923,411022,0.0093,0.0078,1.0254,0.1221,1.3428,-0.1221,1,491,866,2421
2082943927,411023,0.0127,0.0073,1.0254,0.2441,1.2817,-0.1221,1,479,837,2421
2082948925,411024,0.0137,0.0068,1.0249,0.0610,1.3428,0.0610,1,481,848,2421
2082953924,411025,0.0122,0.0068,1.0244,0.0000,1.6479,0.1221,1,493,843,2421
2082958930,411026,0.0098,0.0068,1.0259,0.0610,1.7700,0.0610,1,466,831,2421
2082963922,411027,0.0098,0.0063,1.0264,0.0000,1.7700,0.0610,1,466,867,2421
2082968922,411028,0.0122,0.0059,1.0249,-0.1831,1.9531,0.0000,1,483,821,2421
2082973930,411029,0.0117,0.0068,1.0239,-0.0610,2.0752,0.0000,1,466,823,2421
2082978926,411030,0.0088,0.0068,1.0229,0.0000,2.1973,0.0000,1,484,827,2421
2082983926,411031,0.0054,0.0054,1.0220,0.0000,2.1973,0.0000,1,466,779,2421
2082988927,411032,0.0044,0.0039,1.0210,0.0610,2.0142,0.0610,1,469,730,2421
2082993922,411033,0.0044,0.0049,1.0205,0.2441,1.8921,0.0000,1,472,863,2421
2082998928,411034,0.0059,0.0063,1.0200,0.2441,1.8921,-0.1221,1,481,803,2421
2083003941,411035,0.0078,0.0068,1.0215,0.3052,1.8311,-0.1221,1,483,846,2421
2083008926,411036,0.0083,0.0078,1.0239,0.3662,1.7700,-0.0610,1,476,845,2421
2083013922,411037,0.0068,0.0078,1.0249,0.3662,1.7090,-0.0610,1,511,857,2421
2083018929,411038,0.0054,0.0068,1.0254,0.2441,1.7090,-0.1831,1,492,871,2421
2083023930,411039,0.0054,0.0063,1.0254,0.2441,1.7090,-0.1221,1,464,824,2421
2083028925,411040,0.0059,0.0059,1.0229,0.1831,1.8311,-0.1831,1,483,840,2421
2083033926,411041,0.0049,0.0059,1.0200,0.1831,1.6479,-0.2441,1,478,840,2421
2083038926,411042,0.0039,0.0059,1.0200,0.1831,1.5869,-0.1221,1,486,843,2421
2083043923,411043,0.0034,0.0063,1.0215,0.1831,1.5869,-0.1831,1,487,840,2421
2083048922,411044,0.0029,0.0068,1.0220,0.2441,1.6479,-0.2441,1,476,851,2421
2083053927,411045,0.0044,0.0083,1.0220,0.1221,1.5259,-0.3052,1,493,849,2421
2083058925,411046,0.0068,0.0093,1.0225,0.1221,1.5869,-0.2441,1,466,864,2421
2083063931,411047,0.0078,0.0088,1.0244,0.0000,1.6479,-0.1221,1,466,872,2421
2083068925,411048,0.0073,0.0083,1.0254,-0.1221,1.7700,-0.2441,1,466,827,2421
2083073923,411049,0.0073,0.0083,1.0254,-0.1831,1.9531,-0.2441,1,483,874,2421
2083078929,411050,0.0063,0.0083,1.0229,0.0000,2.0142,-0.1221,1,475,870,2421
2083083927,411051,0.0034,0.0083,1.0186,-0.1221,2.0142,-0.0610,1,465,879,2421
2083088931,411052,-0.0010,0.0073,1.0161,-0.0610,1.8921,-0.1831,1,467,859,2421
2083093928,411053,-0.0044,0.0068,1.0151,-0.0610,1.6479,-0.2441,1,473,859,2421
2083098924,411054,-0.0044,0.0059,1.0161,0.0000,1.3428,-0.2441,1,466,874,2421
2083103929,411055,-0.0020,0.0059,1.0186,0.0610,1.1597,-0.2441,1,477,807,2421
2083108927,411056,0.0005,0.0059,1.0210,0.1221,1.0986,-0.1831,1,478,848,2421
2083113922,411057,0.0015,0.0068,1.0229,0.0610,1.0986,-0.1221,1,505,842,2421
2083118930,411058,0.0039,0.0073,1.0244,0.0000,0.9766,-0.0610,1,485,866,2421
2083123922,411059,0.0063,0.0059,1.0244,0.0000,1.1597,-0.2441,1,464,797,2421
2083128923,411060,0.0063,0.0059,1.0239,-0.0610,1.1597,-0.1831,1,491,798,2421
2083133925,411061,0.0054,0.0068,1.0249,0.0610,1.0986,-0.1831,1,483,843,2421
2083138923,411062,0.0059,0.0068,1.0249,0.1831,1.2207,-0.2441,1,471,866,2421
2083143925,411063,0.0049,0.0068,1.0244,0.1221,1.2817,-0.3052,1,476,847,2421
2083148922,411064,0.0044,0.0068,1.0249,0.0610,1.2207,-0.3662,1,488,841,2421
2083153923,411065,0.0044,0.0063,1.0249,0.1221,1.3428,-0.2441,1,493,845,2421
2083158923,411066,0.0049,0.0059,1.0254,0.1831,1.3428,-0.3662,1,466,872,2421
2083163922,411067,0.0073,0.0063,1.0269,0.1831,1.4038,-0.4272,1,466,870,2421
2083168923,411068,0.0088,0.0083,1.0288,0.0610,1.5259,-0.3052,1,484,876,2421
2083173926,411069,0.0088,0.0098,1.0298,-0.0610,1.4648,-0.2441,1,465,859,2421
2083178924,411070,0.0088,0.0103,1.0288,-0.0610,1.6479,-0.2441,1,484,861,2421
2083183930,411071,0.0103,0.0098,1.0293,-0.1221,1.8921,-0.1831,1,467,903,2421
2083188926,411072,0.0112,0.0098,1.0322,-0.2441,2.1973,-0.0610,1,467,857,2421
2083193928,411073,0.0112,0.0112,1.0332,-0.4272,2.6245,0.0000,1,478,876,2421
2083198930,411074,0.0112,0.0117,1.0337,-0.6104,2.9907,0.0000,1,480,824,2421
2083203930,411075,0.0127,0.0122,1.0366,-0.7935,3.2959,-0.0610,1,465,812,2421
2083208922,411076,0.0156,0.0132,1.0391,-1.0986,3.7842,0.0610,1,466,860,2421
2083213928,411077,0.0190,0.0137,1.0400,-1.3428,4.5166,0.1831,1,510,857,2421
2083218923,411078,0.0142,0.0078,1.0312,-1.5869,5.2490,0.1221,1,481,879,2421
2083223923,411079,-0.0024,0.0010,1.0156,-1.3428,5.2490,0.1221,1,464,804,2421
2083228926,411080,-0.0146,-0.0010,1.0083,-1.0986,4.5776,0.0610,1,483,841,2421
2083233929,411081,-0.0132,-0.0024,1.0132,-0.9766,4.1504,-0.0610,1,492,849,2421
2083238923,411082,-0.0039,-0.0020,1.0210,-0.5493,4.2725,-0.1831,1,480,843,2421
2083243923,411083,0.0020,0.0015,1.0215,-0.4272,4.3945,-0.0610,1,491,848,2421
2083248924,411084,-0.0059,0.0039,1.0127,-0.4272,4.4556,-0.1221,1,481,843,2421
2083253924,411085,-0.0166,0.0039,1.0068,-0.5493,3.6621,-0.0610,1,493,839,2421
2083258922,411086,-0.0171,0.0034,1.0107,-0.3052,2.9907,-0.1831,1,466,911,2421
2083263927,411087,-0.0088,0.0049,1.0200,-0.2441,2.6855,-0.1831,1,466,876,2421
2083268922,411088,-0.0010,0.0063,1.0269,-0.3662,2.7466,-0.1221,1,466,877,2421
2083273923,411089,0.0015,0.0073,1.0278,-0.5493,2.7466,-0.0610,1,465,858,2421
2083278922,411090,0.0000,0.0073,1.0259,-0.6104,2.8687,0.0000,1,484,863,2421
2083283926,411091,-0.0020,0.0068,1.0239,-0.7324,2.7466,0.0000,1,466,782,2421
2083288926,411092,-0.0029,0.0068,1.0239,-0.8545,2.6855,-0.1221,1,466,828,2421
2083293925,411093,-0.0024,0.0073,1.0254,-0.8545,2.8076,0.0000,1,468,872,2421
2083298929,411094,-0.0005,0.0073,1.0254,-0.7935,2.9907,0.0610,1,475,811,2421
2083303925,411095,0.0020,0.0073,1.0259,-0.9155,3.1738,0.0000,1,479,848,2421
2083308927,411096,0.0024,0.0063,1.0259,-0.9155,3.3569,0.0000,1,483,811,2421
2083313924,411097,0.0005,0.0054,1.0244,-0.8545,3.3569,0.0000,1,507,812,2421
2083318924,411098,-0.0024,0.0049,1.0234,-1.0376,3.3569,-0.1221,1,477,719,2421
2083323928,411099,-0.0034,0.0054,1.0229,-1.0986,3.5400,-0.1831,1,466,807,2421
2083328930,411100,-0.0029,0.0054,1.0239,-1.0986,3.7231,-0.1221,1,475,862,2421
2083333925,411101,-0.0020,0.0063,1.0254,-1.1597,3.7842,0.0000,1,484,848,2421
2083338928,411102,-0.0024,0.0083,1.0234,-1.2817,4.0283,-0.1221,1,479,800,2421
2083343929,411103,-0.0078,0.0078,1.0200,-1.4038,4.0894,-0.1221,1,478,852,2421
2083348930,411104,-0.0127,0.0039,1.0176,-1.3428,3.8452,-0.1221,1,492,841,2421
2083353922,411105,-0.0146,0.0010,1.0161,-1.2817,3.5400,-0.1831,1,491,847,2421
2083358930,411106,-0.0161,0.0000,1.0127,-1.1597,3.4180,-0.1831,1,466,880,2421
2083363934,411107,-0.0205,-0.0005,1.0078,-1.0376,3.1738,-0.2441,1,466,839,2421
2083368926,411108,-0.0244,-0.0020,1.0059,-0.6714,2.4414,-0.3052,1,466,876,2421
2083373927,411109,-0.0210,-0.0029,1.0122,-0.4883,1.8311,-0.2441,1,483,874,2421
2083378929,411110,-0.0127,-0.0010,1.0215,-0.3662,1.7090,-0.3662,1,469,863,2421
2083383923,411111,-0.0034,0.0020,1.0278,-0.3662,1.5259,-0.4272,1,484,814,2421
2083388922,411112,0.0015,0.0034,1.0283,-0.4272,1.7700,-0.2441,1,480,904,2421
2083393924,411113,-0.0010,0.0034,1.0259,-0.4883,2.0142,-0.3052,1,466,865,2421
2083398924,411114,-0.0054,0.0024,1.0239,-0.3052,2.0142,-0.3662,1,467,854,2421
2083403922,411115,-0.0068,0.0029,1.0244,-0.4272,2.0142,-0.3052,1,471,871,2421
2083408933,411116,-0.0054,0.0034,1.0269,-0.5493,2.0752,-0.2441,1,476,853,2421
2083413925,411117,-0.0039,0.0039,1.0273,-0.5493,2.2583,-0.3052,1,465,856,2421
2083418922,411118,-0.0024,0.0059,1.0269,-0.6104,2.4414,-0.3052,1,510,860,2421
2083423926,411119,-0.0029,0.0063,1.0283,-0.6714,2.5635,-0.3052,1,482,866,2421
2083428930,411120,-0.0029,0.0063,1.0293,-0.7324,2.8076,-0.2441,1,493,799,2421
2083433925,411121,-0.0020,0.0068,1.0288,-0.8545,3.1128,-0.2441,1,490,858,2421
2083438927,411122,-0.0010,0.0068,1.0283,-1.0376,3.4180,-0.1831,1,481,849,2421
2083443930,411123,-0.0020,0.0054,1.0273,-1.0986,3.4790,-0.1221,1,480,844,2421
2083448930,411124,-0.0020,0.0029,1.0283,-1.1597,3.6621,-0.1221,1,486,871,2421
2083453929,411125,-0.0020,0.0015,1.0298,-1.1597,3.9062,-0.1831,1,475,846,2421
2083458928,411126,-0.0029,0.0024,1.0303,-1.2207,4.2114,-0.1831,1,479,844,2421
2083463929,411127,-0.0034,0.0029,1.0303,-1.3428,4.6387,-0.1831,1,493,849,2421
2083468928,411128,-0.0034,0.0029,1.0308,-1.4038,4.9438,-0.1831,1,465,875,2421
2083473927,411129,-0.0034,0.0039,1.0312,-1.4038,5.1270,-0.0610,1,466,879,2421
2083478923,411130,-0.0049,0.0049,1.0317,-1.3428,5.3101,-0.1221,1,483,906,2421
2083483923,411131,-0.0068,0.0039,1.0303,-1.4038,5.4321,-0.1221,1,466,856,2421
2083488929,411132,-0.0083,0.0024,1.0293,-1.5259,5.6152,-0.1831,1,484,817,2421
2083493924,411133,-0.0103,0.0020,1.0278,-1.4038,5.9204,-0.1221,1,467,906,2421
2083498930,411134,-0.0137,0.0015,1.0264,-1.4038,5.9204,-0.0610,1,481,863,2421
2083503925,411135,-0.0161,0.0005,1.0249,-1.2817,5.8594,-0.1221,1,480,871,2421
2083508922,411136,-0.0151,-0.0015,1.0239,-1.2817,5.6763,-0.1221,1,469,874,2421
2083513944,411137,-0.0137,-0.0020,1.0234,-1.2207,5.9204,-0.1221,1,481,861,2421
2083518929,411138,-0.0176,-0.0005,1.0205,-1.0986,5.9814,-0.1831,1,466,857,2421
2083523928,411139,-0.0259,0.0020,1.0151,-1.0986,5.4321,-0.0610,1,511,858,2421
2083528928,411140,-0.0234,-0.0005,1.0161,-1.2207,4.6997,0.0000,1,494,877,2421
2083533924,411141,-0.0186,-0.0020,1.0210,-0.7935,5.3101,-0.1221,1,466,804,2421
2083538927,411142,-0.0215,0.0024,1.0215,-1.0376,4.9438,-0.1831,1,482,836,2421
2083543930,411143,-0.0225,0.0029,1.0210,-1.3428,4.5776,-0.1221,1,490,851,2421
2083548927,411144,-0.0190,0.0005,1.0225,-1.2207,4.4556,0.0000,1,492,845,2421
2083553922,411145,-0.0186,0.0005,1.0229,-0.9766,4.5166,-0.1221,1,483,798,2421
2083558923,411146,-0.0210,0.0005,1.0220,-0.9766,4.4556,-0.1221,1,474,841,2421
2083563929,411147,-0.0215,-0.0005,1.0215,-0.9155,4.4556,-0.1831,1,493,836,2421
2083568926,411148,-0.0200,-0.0005,1.0210,-0.9766,4.3335,-0.1221,1,466,873,2421
2083573925,411149,-0.0205,0.0000,1.0195,-0.9766,4.1504,-0.2441,1,466,864,2421
2083578925,411150,-0.0210,0.0000,1.0205,-0.7935,4.0894,-0.2441,1,483,836,2421
2083583928,411151,-0.0200,0.0005,1.0220,-0.7935,4.0894,-0.1831,1,465,823,2421
2083588924,411152,-0.0215,0.0000,1.0210,-0.8545,4.0894,-0.1831,1,485,857,2421
2083593923,411153,-0.0234,-0.0010,1.0195,-0.8545,3.8452,-0.1221,1,465,822,2421
2083598925,411154,-0.0225,-0.0010,1.0200,-0.6104,3.7231,-0.2441,1,467,863,2421
2083603922,411155,-0.0200,-0.0015,1.0205,-0.6104,3.7842,-0.3052,1,467,870,2421
2083608926,411156,-0.0195,-0.0024,1.0200,-0.4883,3.8452,-0.1831,1,474,821,2421
2083613931,411157,-0.0215,-0.0010,1.0200,-0.4272,3.7231,-0.1831,1,476,864,2421
2083618923,411158,-0.0225,0.0000,1.0200,-0.5493,3.7231,-0.3662,1,475,857,2421
2083623930,411159,-0.0244,-0.0005,1.0195,-0.4883,3.7842,-0.3052,1,505,821,2421
2083628928,411160,-0.0273,-0.0024,1.0186,-0.3052,3.6621,-0.2441,1,466,869,2421
2083633925,411161,-0.0288,-0.0063,1.0161,-0.3052,3.4180,-0.3662,1,493,883,2421
2083638929,411162,-0.0273,-0.0073,1.0151,0.0610,3.1128,-0.3662,1,485,777,2421
2083643926,411163,-0.0249,-0.0044,1.0195,0.1221,2.9907,-0.3662,1,490,863,2421
2083648923,411164,-0.0229,-0.0020,1.0234,0.0610,3.2959,-0.3052,1,491,851,2421
2083653927,411165,-0.0239,-0.0005,1.0225,0.1221,3.4790,-0.4272,1,480,866,2421
2083658927,411166,-0.0254,0.0005,1.0210,0.2441,3.1738,-0.4272,1,485,843,2421
2083663928,411167,-0.0283,-0.0034,1.0171,0.5493,3.1128,-0.4272,1,491,846,2421
2083668931,411168,-0.0283,-0.0034,1.0161,0.5493,3.0518,-0.5493,1,493,852,2421
2083673923,411169,-0.0283,-0.0029,1.0161,0.4883,2.9297,-0.4883,1,466,883,2421
2083678947,411170,-0.0259,-0.0005,1.0181,0.7324,2.6245,-0.4272,1,466,878,2421
2083683923,411171,-0.0220,0.0010,1.0229,0.5493,3.0518,-0.4272,1,466,875,2421
2083688928,411172,-0.0210,0.0000,1.0254,0.3662,3.2959,-0.3662,1,465,875,2421
2083693924,411173,-0.0215,0.0005,1.0244,0.6104,3.2959,-0.3662,1,475,779,2421
2083698927,411174,-0.0234,0.0010,1.0234,0.4883,3.4790,-0.3662,1,466,869,2421
2083703923,411175,-0.0249,-0.0015,1.0225,0.4272,3.5400,-0.4272,1,482,903,2421
2083708928,411176,-0.0273,-0.0054,1.0200,0.7935,3.4180,-0.3662,1,467,868,2421
2083713926,411177,-0.0312,-0.0068,1.0166,0.9766,3.3569,-0.3052,1,465,868,2421
2083718924,411178,-0.0312,-0.0020,1.0181,1.2207,3.0518,-0.3052,1,469,902,2421
2083723939,411179,-0.0269,0.0015,1.0215,0.9766,2.9907,-0.3662,1,474,876,2421
2083728929,411180,-0.0264,-0.0044,1.0215,0.9766,3.0518,-0.3662,1,478,854,2421
2083733926,411181,-0.0303,-0.0083,1.0181,1.4648,3.0518,-0.3052,1,505,853,2421
2083738923,411182,-0.0303,-0.0073,1.0171,1.7090,2.9907,-0.3052,1,479,868,2421
2083743923,411183,-0.0273,-0.0054,1.0176,1.7090,3.0518,-0.2441,1,464,765,2421
2083748929,411184,-0.0254,0.0000,1.0195,1.7090,3.2959,-0.0610,1,471,855,2421
2083753926,411185,-0.0288,0.0078,1.0195,1.4038,3.6011,-0.0610,1,473,806,2421
2083758929,411186,-0.0293,0.0054,1.0190,0.9766,3.2349,-0.0610,1,485,848,2421
2083763922,411187,-0.0244,-0.0068,1.0239,1.2207,3.2959,0.0610,1,490,869,2421
2083768922,411188,-0.0234,-0.0132,1.0249,1.7090,3.8452,0.1221,1,486,852,2421
2083773929,411189,-0.0288,-0.0083,1.0195,1.8921,3.7231,0.3052,1,487,850,2421
2083778926,411190,-0.0317,-0.0005,1.0166,1.7700,3.6011,0.3052,1,493,852,2421
2083783927,411191,-0.0308,0.0024,1.0176,1.7700,3.7231,0.3662,1,465,867,2421
2083788925,411192,-0.0269,-0.0020,1.0186,1.8311,3.7231,0.4883,1,466,879,2421
2083793925,411193,-0.0234,-0.0059,1.0186,2.1362,4.2114,0.3662,1,483,875,2421
2083798922,411194,-0.0269,-0.0020,1.0176,2.2583,4.4556,0.4272,1,465,870,2421
2083803928,411195,-0.0312,0.0054,1.0161,2.1973,4.2725,0.4883,1,484,820,2421
2083808924,411196,-0.0278,0.0068,1.0171,2.0142,4.3945,0.6104,1,470,901,2421
2083813930,411197,-0.0229,0.0054,1.0186,2.1362,5.3101,0.4883,1,479,864,2421
2083818922,411198,-0.0254,0.0015,1.0142,2.1362,5.4932,0.7324,1,476,872,2421
2083823928,411199,-0.0298,0.0005,1.0122,2.0142,5.6152,0.9766,1,466,875,2421
2083828940,411200,-0.0293,0.0059,1.0190,2.0142,5.6152,1.0376,1,465,853,2421
2083833925,411201,-0.0195,0.0088,1.0278,1.5869,6.1035,1.0986,1,479,853,2421
2083838930,411202,-0.0137,0.0054,1.0288,1.5869,7.6904,0.9155,1,512,864,2421
2083843925,411203,-0.0171,-0.0005,1.0210,1.8311,8.2397,0.9766,1,487,879,2421
2083848925,411204,-0.0244,-0.0020,1.0142,2.1362,8.9722,1.0376,1,494,754,2421
2083853925,411205,-0.0308,0.0024,1.0117,2.4414,9.7656,0.9155,1,476,872,2421
2083858930,411206,-0.0322,0.0083,1.0132,2.3804,10.0098,0.7935,1,483,857,2421
2083863929,411207,-0.0288,0.0117,1.0186,2.3804,10.6201,0.9155,1,487,854,2421
2083868930,411208,-0.0259,0.0107,1.0229,2.2583,11.5967,0.9155,1,471,890,2421
2083873922,411209,-0.0283,0.0049,1.0225,2.0142,11.9019,0.9155,1,482,902,2421
2083878928,411210,-0.0356,-0.0044,1.0186,2.2583,12.1460,0.9155,1,485,863,2421
2083883923,411211,-0.0410,-0.0127,1.0171,2.6855,11.9019,0.8545,1,493,871,2421
2083888926,411212,-0.0435,-0.0127,1.0171,3.4790,11.7187,0.7935,1,466,922,2421
2083893923,411213,-0.0464,-0.0049,1.0166,3.8452,11.5967,0.7935,1,466,896,2421
2083898930,411214,-0.0493,0.0015,1.0161,3.8452,11.1084,0.5493,1,483,898,2421
2083903923,411215,-0.0522,0.0034,1.0156,4.1504,10.8032,0.3052,1,465,900,2421
2083908930,411216,-0.0557,0.0034,1.0132,4.2725,10.2539,0.0610,1,484,881,2421
2083913930,411217,-0.0586,0.0044,1.0103,4.3335,9.7046,0.0000,1,465,837,2421
2083918923,411218,-0.0635,0.0122,1.0093,4.3335,9.1553,0.0610,1,471,814,2421
2083923922,411219,-0.0679,0.0210,1.0083,3.7842,8.1787,0.0000,1,478,867,2421
2083928925,411220,-0.0659,0.0215,1.0112,3.1738,7.4463,-0.1221,1,465,817,2421
2083933929,411221,-0.0615,0.0171,1.0161,2.9297,6.8359,-0.0610,1,482,881,2421
2083938928,411222,-0.0630,0.0156,1.0137,2.5024,5.9814,-0.0610,1,482,864,2421
2083943929,411223,-0.0723,0.0142,1.0029,2.0142,4.9438,-0.1221,1,481,864,2421
2083948924,411224,-0.0796,0.0142,0.9946,1.7090,3.5400,0.0000,1,510,859,2421
2083953927,411225,-0.0747,0.0205,0.9995,1.2817,2.1362,0.0610,1,479,756,2421
2083958926,411226,-0.0645,0.0239,1.0083,0.7324,1.6479,-0.2441,1,492,818,2421
2083963927,411227,-0.0674,0.0186,1.0063,0.3052,1.4038,-0.4272,1,473,866,2421
2083968924,411228,-0.0830,0.0098,0.9941,0.1221,0.3052,-0.5493,1,480,848,2421
2083973925,411229,-0.0933,0.0063,0.9854,0.1221,-1.7090,-0.4272,1,489,841,2421
2083978923,411230,-0.0840,0.0093,0.9922,0.0000,-3.4180,-0.3662,1,476,843,2421
2083983926,411231,-0.0654,0.0103,1.0068,0.0000,-3.6621,-0.5493,1,478,801,2421
2083988930,411232,-0.0576,0.0049,1.0112,0.1221,-3.9062,-0.7324,1,479,810,2421
2083993927,411233,-0.0625,-0.0054,1.0034,0.4883,-4.4556,-0.5493,1,493,851,2421
2083998929,411234,-0.0718,-0.0137,0.9951,1.0986,-5.3101,-0.5493,1,466,875,2421
2084003929,411235,-0.0737,-0.0122,0.9946,1.8921,-6.2256,-0.8545,1,466,881,2421
2084008926,411236,-0.0693,-0.0054,0.9985,2.4414,-6.8970,-1.0986,1,484,882,2421
2084013925,411237,-0.0684,-0.0010,1.0010,2.8687,-7.6904,-1.0986,1,466,874,2421
2084018930,411238,-0.0679,-0.0005,1.0029,3.2349,-8.7891,-1.1597,1,484,814,2421
2084023929,411239,-0.0635,0.0024,1.0073,3.8452,-9.6436,-1.2817,1,474,898,2421
2084028927,411240,-0.0576,0.0073,1.0151,3.9062,-10.1929,-1.4038,1,479,874,2421
2084033928,411241,-0.0498,0.0073,1.0264,3.7231,-10.6812,-1.4648,1,465,892,2421
2084038930,411242,-0.0381,0.0083,1.0400,3.9673,-11.0474,-1.3428,1,466,902,2421
2084043922,411243,-0.0293,0.0107,1.0488,4.0283,-10.6201,-1.5259,1,468,875,2421
2084048930,411244,-0.0288,0.0127,1.0488,3.8452,-10.4980,-1.5869,1,474,881,2421
2084053930,411245,-0.0303,0.0146,1.0444,3.8452,-10.6201,-1.5259,1,510,889,2421
2084058927,411246,-0.0308,0.0151,1.0405,3.7842,-10.4980,-1.5259,1,466,903,2421
2084063923,411247,-0.0293,0.0142,1.0410,3.6011,-10.1929,-1.5259,1,494,896,2421
2084068930,411248,-0.0283,0.0142,1.0420,3.7231,-9.9487,-1.5259,1,491,826,2421
2084073928,411249,-0.0278,0.0190,1.0405,3.5400,-9.7046,-1.4648,1,473,860,2421
2084078926,411250,-0.0269,0.0254,1.0381,3.1738,-9.4604,-1.5259,1,487,857,2421
2084083930,411251,-0.0278,0.0269,1.0337,2.9297,-9.0942,-1.5869,1,487,872,2421
2084088929,411252,-0.0303,0.0264,1.0273,2.8076,-8.7891,-1.5259,1,491,857,2421
2084093929,411253,-0.0312,0.0269,1.0229,2.3804,-8.3618,-1.7090,1,478,850,2421
2084098926,411254,-0.0327,0.0244,1.0215,2.1362,-8.2397,-1.9531,1,494,879,2421
2084103933,411255,-0.0371,0.0229,1.0200,2.3193,-8.1177,-2.3193,1,466,892,2421
2084108924,411256,-0.0396,0.0249,1.0190,2.2583,-8.2397,-2.6245,1,466,891,2421
2084113927,411257,-0.0376,0.0298,1.0200,1.9531,-8.3008,-3.2959,1,483,894,2421
2084118927,411258,-0.0415,0.0342,1.0186,1.8311,-7.9956,-3.8452,1,469,868,2421
2084123930,411259,-0.0518,0.0361,1.0117,1.5259,-8.6060,-4.3335,1,483,875,2421
2084128925,411260,-0.0576,0.0317,1.0088,0.9766,-9.8267,-4.8218,1,472,911,2421
2084133926,411261,-0.0552,0.0244,1.0132,0.6714,-11.1084,-4.7607,1,480,871,2421
2084138927,411262,-0.0498,0.0205,1.0195,0.3052,-11.7798,-4.3335,1,482,886,2421
2084143923,411263,-0.0435,0.0190,1.0249,-0.2441,-12.7563,-3.8452,1,466,898,2421
2084148922,411264,-0.0322,0.0190,1.0298,-0.3662,-13.7939,-3.5400,1,475,908,2421
2084153926,411265,-0.0186,0.0176,1.0322,-0.4883,-13.9770,-3.8452,1,475,887,2421
2084158922,411266,-0.0122,0.0132,1.0308,-0.2441,-13.3667,-4.1504,1,510,886,2421
2084163924,411267,-0.0156,0.0132,1.0288,-0.0610,-13.1836,-4.2114,1,475,896,2421
2084168923,411268,-0.0137,0.0151,1.0278,0.0610,-13.1836,-3.9062,1,493,900,2421
2084173923,411269,-0.0083,0.0127,1.0269,0.2441,-12.2681,-4.0283,1,491,797,2421
2084178927,411270,-0.0122,0.0103,1.0210,0.4272,-11.7798,-3.9673,1,478,880,2421
2084183927,411271,-0.0186,0.0127,1.0166,0.5493,-11.8408,-3.9062,1,475,869,2421
2084188922,411272,-0.0151,0.0137,1.0186,0.6714,-11.9629,-3.8452,1,485,873,2421
2084193930,411273,-0.0054,0.0093,1.0195,0.9766,-11.4746,-3.9062,1,474,873,2421
2084198928,411274,-0.0093,0.0098,1.0112,1.6479,-10.8032,-4.0283,1,472,865,2421
2084203924,411275,-0.0210,0.0117,1.0054,1.6479,-11.3525,-3.9062,1,493,866,2421
2084208927,411276,-0.0142,0.0103,1.0142,1.4648,-12.0239,-3.6621,1,465,901,2421
2084213922,411277,-0.0020,0.0112,1.0234,2.1973,-11.2305,-3.8452,1,466,901,2421
2084218928,411278,-0.0034,0.0122,1.0190,2.3804,-11.1694,-3.9673,1,483,901,2421
2084223930,411279,-0.0161,0.0083,1.0083,2.5635,-11.2915,-4.2114,1,465,902,2421
2084228929,411280,-0.0288,0.0049,1.0029,3.1128,-12.0239,-4.5166,1,484,896,2421
2084233925,411281,-0.0283,0.0073,1.0068,3.5400,-12.9395,-4.6997,1,472,901,2421
2084238927,411282,-0.0181,0.0122,1.0132,3.8452,-13.3667,-5.0049,1,481,944,2421
2084243929,411283,-0.0146,0.0176,1.0186,4.0283,-13.7329,-5.3101,1,482,888,2421
2084248925,411284,-0.0166,0.0225,1.0210,3.7842,-14.7705,-5.4321,1,465,899,2421
2084253928,411285,-0.0181,0.0205,1.0186,3.5400,-15.4419,-5.4321,1,473,884,2421
2084258925,411286,-0.0229,0.0166,1.0142,3.6011,-16.4795,-5.4932,1,467,880,2421
2084263924,411287,-0.0308,0.0151,1.0073,3.8452,-17.9443,-5.4932,1,511,872,2421
2084268931,411288,-0.0400,0.0151,1.0024,3.8452,-19.8975,-5.2490,1,473,896,2421
2084273925,411289,-0.0439,0.0151,1.0029,3.9062,-22.0947,-5.0049,1,494,895,2421
2084278925,411290,-0.0396,0.0156,1.0068,4.3335,-24.1699,-4.8828,1,491,794,2421
2084283927,411291,-0.0322,0.0122,1.0083,4.4556,-26.0010,-4.9438,1,491,858,2421
2084288929,411292,-0.0303,0.0063,1.0054,4.8218,-27.7710,-5.1880,1,478,873,2421
2084293931,411293,-0.0342,0.0068,1.0049,5.7373,-30.1514,-4.7607,1,485,862,2421
2084298925,411294,-0.0356,0.0151,1.0112,5.7983,-32.8369,-4.6387,1,491,869,2421
2084303923,411295,-0.0308,0.0254,1.0225,5.9814,-35.7056,-4.6997,1,481,877,2421
2084308924,411296,-0.0239,0.0376,1.0337,5.8594,-38.2080,-5.0659,1,493,864,2421
2084313933,411297,-0.0186,0.0459,1.0391,5.0049,-41.0767,-5.3101,1,466,892,2421
2084318930,411298,-0.0142,0.0444,1.0400,4.0894,-44.0674,-5.4321,1,466,885,2421
2084323926,411299,-0.0146,0.0415,1.0410,3.1738,-47.6685,-5.3101,1,483,899,2421
2084328927,411300,-0.0205,0.0444,1.0420,2.2583,-51.2695,-4.8218,1,467,903,2421
2084333923,411301,-0.0195,0.0513,1.0425,0.9766,-55.5420,-4.3945,1,484,896,2421
2084338930,411302,-0.0054,0.0522,1.0469,-0.4883,-59.7534,-4.1504,1,479,900,2421
2084343927,411303,0.0083,0.0557,1.0532,-1.6479,-61.5845,-3.2349,1,477,953,2421
2084348922,411304,0.0156,0.0596,1.0576,-3.1738,-64.6362,-1.7700,1,482,891,2421
2084353930,411305,0.0210,0.0625,1.0605,-4.9438,-67.5049,-0.4272,1,469,899,2421
2084358931,411306,0.0239,0.0718,1.0635,-6.8359,-69.8853,0.7935,1,465,874,2421
2084363922,411307,0.0449,0.0728,1.0625,-9.0942,-73.7305,1.7090,1,465,876,2421
2084368931,411308,0.0615,0.0693,1.0601,-10.9863,-73.8525,2.4414,1,511,869,2421
2084373923,411309,0.0527,0.0620,1.0586,-12.4512,-75.1343,3.6621,1,466,917,2421
2084378927,411310,0.0205,0.0576,1.0562,-13.6108,-76.9653,4.4556,1,493,916,2421
2084383924,411311,-0.0454,0.0664,1.0620,-14.7095,-82.8857,4.8218,1,465,814,2421
2084388929,411312,-0.1338,0.0752,1.0747,-16.4185,-93.2007,5.0049,1,487,849,2421
2084393924,411313,-0.2324,0.0820,1.0869,-18.1274,-108.2764,5.0659,1,488,877,2421
2084398926,411314,-0.3428,0.1074,1.1074,-20.8740,-127.6855,5.2490,1,481,895,2421
2084403930,411315,-0.4497,0.1470,1.1338,-25.8179,-157.1045,5.5542,1,485,902,2421
2084408926,411316,-0.5532,0.1714,1.1616,-33.0811,-189.2090,5.7373,1,488,893,2421
2084413928,411317,-0.6626,0.1934,1.2104,-41.0767,-226.8066,6.3477,1,493,894,2421
2084418923,411318,-0.7529,0.2495,1.2812,-52.5513,-271.4844,8.2397,1,494,899,2421
2084423927,411319,-0.8130,0.3423,1.3848,-69.5801,-321.9604,14.2822,1,466,959,2421
2084428923,411320,-0.9229,0.4185,1.5405,-90.7593,-373.7182,15.1978,1,466,938,2421
2084433928,411321,-0.9814,0.4019,1.6890,-109.3750,-437.5000,15.3198,1,466,945,2421
2084438923,411322,-0.7935,0.3330,1.7378,-122.6196,-494.5678,14.5264,1,484,951,2421
2084443929,411323,-0.5977,0.3384,1.7573,-141.1133,-522.3389,7.1411,1,465,945,2421
2084448926,411324,-0.7056,0.3872,1.8257,-163.7573,-550.4150,2.0752,1,469,923,2421
2084453923,411325,-0.9556,0.3975,1.8408,-182.0068,-604.3701,1.0376,1,473,966,2421
2084458928,411326,-1.0767,0.3892,1.7285,-199.2187,-655.6396,0.8545,1,478,910,2421
2084463924,411327,-1.0645,0.3423,1.5010,-219.4214,-691.8945,-2.9907,1,475,932,2421
2084468942,411328,-0.9946,0.1899,1.2158,-234.2529,-726.5014,-14.3433,1,482,881,2421
2084473929,411329,-0.8857,-0.0962,0.9028,-233.8257,-756.8359,-28.1372,1,467,958,2421
2084478930,411330,-0.7554,-0.5234,0.5059,-210.0830,-785.8886,-38.5132,1,510,934,2421
2084483929,411331,-0.6528,-0.8965,0.0894,-163.5742,-818.2372,-44.9219,1,485,942,2421
2084488922,411332,1.2026,0.4307,1.2212,-97.6562,-815.4296,-24.7803,1,494,952,2421
2084493924,411333,3.6050,0.6914,3.3628,-145.4468,-682.3120,-34.2407,1,481,946,2421
2084498928,411334,4.7856,-0.2773,5.6797,-135.1929,-454.8340,-83.7402,1,488,840,2421
2084503922,411335,3.7993,-1.1250,6.5176,-33.4473,-252.8076,-106.2622,1,475,926,2421
2084508930,411336,1.5991,-1.0923,5.7388,1.1597,-79.9561,-120.0561,1,490,920,2421
2084513930,411337,-0.4170,-0.6401,4.4087,-2.2583,17.3340,-125.9155,1,489,914,2421
2084518930,411338,-1.3896,-0.3101,3.3008,5.8594,42.6025,-114.1968,1,492,897,2421
2084523925,411339,-1.3828,-0.2485,2.5698,10.0708,61.4624,-106.2012,1,493,898,2421
2084528925,411340,-1.0869,-0.3081,2.0859,22.2778,84.8389,-102.1728,1,466,947,2421
2084533930,411341,-0.9810,-0.3066,1.7090,35.7056,96.1304,-98.2056,1,466,953,2421
2084538926,411342,-1.0703,-0.2085,1.4243,42.2974,97.3511,-97.2900,1,466,923,2421
2084543922,411343,-1.1538,-0.0820,1.2720,43.0908,92.5293,-96.7407,1,484,937,2421
2084548927,411344,-1.0991,0.0044,1.2505,40.3442,91.6138,-97.1680,1,465,930,2421
2084553927,411345,-0.9502,0.0269,1.3027,35.7666,100.4639,-99.6704,1,473,883,2421
2084558922,411346,-0.8164,0.0015,1.3647,31.6162,114.9292,-102.6611,1,477,973,2421
2084563924,411347,-0.7495,-0.0400,1.4043,27.7710,131.7139,-105.6518,1,466,939,2421
2084568928,411348,-0.7344,-0.0796,1.4307,24.3530,148.7427,-108.0322,1,466,929,2421
2084573952,411349,-0.7271,-0.1187,1.4570,21.5454,164.9780,-109.3750,1,465,937,2421
2084578927,411350,-0.7026,-0.1655,1.4858,20.7520,180.9082,-109.3140,1,466,931,2421
2084583923,411351,-0.6602,-0.2192,1.5078,22.2778,196.5332,-107.6050,1,465,930,2421
2084588927,411352,-0.6064,-0.2764,1.5132,25.8179,211.7920,-104.7974,1,472,948,2421
2084593926,411353,-0.5464,-0.3354,1.4995,31.4941,227.0508,-101.3794,1,493,947,2421
2084598924,411354,-0.4927,-0.3916,1.4653,38.9404,242.1264,-96.8628,1,492,951,2421
2084603929,411355,-0.4570,-0.4341,1.4170,47.1802,256.2256,-91.5527,1,482,926,2421
2084608925,411356,-0.4375,-0.4556,1.3657,54.6265,268.0664,-85.6934,1,484,909,2421
2084613922,411357,-0.4141,-0.4595,1.3228,60.3027,276.9775,-78.9795,1,476,913,2421
2084618929,411358,-0.3740,-0.4565,1.2930,64.2700,285.0952,-72.1436,1,481,902,2421
2084623930,411359,-0.3232,-0.4502,1.2759,66.0400,292.9077,-65.2466,1,482,901,2421
2084628924,411360,-0.2686,-0.4331,1.2690,66.0400,300.1099,-58.5937,1,493,896,2421
2084633923,411361,-0.2056,-0.4072,1.2681,63.2935,307.3120,-52.7954,1,466,929,2421
2084638924,411362,-0.1323,-0.3799,1.2603,58.1055,315.4907,-47.4853,1,484,937,2421
2084643929,411363,-0.0635,-0.3540,1.2324,51.6968,323.9135,-42.6025,1,465,941,2421
2084648924,411364,-0.0117,-0.3223,1.1782,43.8843,331.4209,-38.4521,1,484,949,2421
2084653926,411365,0.0146,-0.2871,1.1055,34.2407,337.8296,-35.2783,1,465,929,2421
2084658931,411366,0.0190,-0.2583,1.0356,23.6816,341.1865,-32.0435,1,467,934,2421
2084663923,411367,0.0200,-0.2402,0.9888,12.6343,341.3086,-28.8086,1,465,930,2421
2084668930,411368,0.0342,-0.2354,0.9746,1.5259,339.6606,-25.2075,1,476,924,2421
2084673925,411369,0.0601,-0.2476,0.9927,-8.9722,337.3413,-21.3013,1,469,923,2421
2084678926,411370,0.0874,-0.2729,1.0381,-18.2495,334.6557,-16.7236,1,473,898,2421
2084683925,411371,0.1079,-0.2988,1.1123,-26.5503,331.9091,-11.4136,1,466,919,2421
2084688922,411372,0.1333,-0.3213,1.2153,-34.1187,329.4677,-5.1880,1,510,930,2421
2084693922,411373,0.1724,-0.3384,1.3384,-40.7104,329.2846,2.1362,1,477,930,2421
2084698926,411374,0.2114,-0.3423,1.4600,-45.9595,331.4819,9.8267,1,493,929,2421
2084703923,411375,0.2476,-0.3306,1.5688,-50.1709,334.6557,17.5781,1,491,824,2421
2084708928,411376,0.2852,-0.3066,1.6582,-53.4668,339.2334,25.0244,1,480,919,2421
2084713923,411377,0.3213,-0.2661,1.7202,-55.8472,344.5434,31.7993,1,487,928,2421
2084718925,411378,0.3516,-0.2065,1.7568,-58.1055,349.6093,37.7808,1,489,923,2421
2084723927,411379,0.3784,-0.1343,1.7837,-60.7300,354.6142,42.4805,1,480,936,2421
2084728924,411380,0.4058,-0.0645,1.8096,-63.5986,359.1919,45.8374,1,483,917,2421
2084733924,411381,0.4282,-0.0098,1.8320,-66.0400,363.5864,48.0957,1,493,911,2421
2084738926,411382,0.4307,0.0303,1.8477,-67.3828,366.7602,49.5605,1,466,931,2421
2084743923,411383,0.4170,0.0679,1.8687,-68.3594,367.4926,50.4150,1,466,935,2421
2084748930,411384,0.4209,0.1050,1.9028,-69.0308,366.5161,50.9033,1,465,936,2421
2084753927,411385,0.4517,0.1338,1.9409,-69.0918,367.2485,50.5371,1,482,926,2421
2084758924,411386,0.4780,0.1558,1.9717,-68.6646,368.4692,49.7436,1,466,928,2421
2084763924,411387,0.4834,0.1714,1.9995,-68.4814,367.9199,48.7671,1,479,933,2421
2084768927,411388,0.4844,0.1719,2.0415,-68.2983,366.0278,47.5464,1,482,967,2421
2084773927,411389,0.5024,0.1523,2.1055,-67.3828,364.3799,46.6309,1,482,930,2421
2084778927,411390,0.5352,0.1157,2.1885,-65.5518,363.5864,46.3867,1,466,930,2421
2084783925,411391,0.5747,0.0698,2.2798,-62.7441,363.1591,46.5088,1,469,941,2421
2084788928,411392,0.6245,0.0229,2.3672,-59.1431,363.5864,47.4243,1,484,931,2421
2084793922,411393,0.6797,-0.0254,2.4438,-55.9692,365.6006,49.0112,1,511,929,2421
2084798925,411394,0.7246,-0.0674,2.5112,-53.2837,367.9809,51.1475,1,475,944,2421
2084803927,411395,0.7646,-0.0942,2.5791,-51.9409,368.8965,53.5889,1,494,948,2421
2084808925,411396,0.8315,-0.1162,2.6582,-52.3071,369.6289,56.2744,1,490,949,2421
2084813922,411397,0.9448,-0.1484,2.7412,-52.9175,372.6806,59.3872,1,479,881,2421
2084818927,411398,1.0879,-0.1865,2.7974,-52.6123,377.9907,62.9883,1,483,939,2421
2084823922,411399,1.2285,-0.2124,2.7915,-52.0630,384.2163,66.5283,1,486,920,2421
2084828928,411400,1.3511,-0.2183,2.7134,-51.4526,388.9160,69.5190,1,483,941,2421
2084833926,411401,1.4604,-0.2129,2.5728,-50.8423,390.4419,72.2656,1,483,913,2421
2084838922,411402,1.5703,-0.2153,2.3843,-49.9878,387.7563,74.4629,1,494,911,2421
2084843929,411403,1.6831,-0.2300,2.1631,-48.0347,380.9814,76.4160,1,466,944,2421
2084848922,411404,1.7925,-0.2329,1.9272,-45.1050,369.7509,77.8198,1,466,941,2421
2084853926,411405,1.8989,-0.1997,1.6948,-43.2129,354.4922,77.7588,1,466,945,2421
2084858924,411406,2.0103,-0.1211,1.4824,-43.7012,336.0595,75.6836,1,484,947,2421
2084863929,411407,2.1387,0.0010,1.2993,-47.1191,315.5518,71.0449,1,465,924,2421
2084868925,411408,2.2866,0.1436,1.1436,-54.8096,294.6777,63.0493,1,474,880,2421
2084873929,411409,2.4395,0.2754,1.0044,-64.3311,274.5361,51.7578,1,482,970,2421
2084878930,411410,2.5874,0.3774,0.8569,-73.4253,253.6011,37.7808,1,466,923,2421
2084883926,411411,2.7266,0.4448,0.6753,-81.7261,232.4219,22.1558,1,468,924,2421
2084888939,411412,2.8398,0.4878,0.4541,-88.5010,209.7778,6.0425,1,477,942,2421
2084893929,411413,2.9175,0.5098,0.2148,-94.0552,183.2886,-8.9722,1,484,909,2421
2084898925,411414,2.9653,0.4927,-0.0024,-98.5107,152.3438,-21.6064,1,511,907,2421
2084903930,411415,2.9932,0.4058,-0.1582,-99.9756,118.2251,-30.1514,1,492,978,2421
2084908930,411416,3.0063,0.2363,-0.2344,-95.1538,82.2754,-33.3862,1,464,941,2421
2084913926,411417,2.9961,0.0166,-0.2432,-81.7261,45.2881,-30.7007,1,487,940,2421
2084918926,411418,2.9365,-0.1982,-0.2109,-60.6079,7.8735,-23.1323,1,480,911,2421
2084923930,411419,2.8140,-0.3599,-0.1421,-35.0952,-29.7241,-12.2070,1,481,905,2421
2084928925,411420,2.6655,-0.4297,-0.0200,-8.4229,-66.2842,0.1221,1,486,930,2421
2084933924,411421,2.5474,-0.4111,0.1602,14.1602,-98.6938,11.1694,1,480,866,2421
2084938923,411422,2.4702,-0.3496,0.3599,29.3579,-124.3286,18.2495,1,492,915,2421
2084943924,411423,2.3774,-0.3042,0.5264,36.6821,-143.9209,20.9961,1,466,949,2421
2084948929,411424,2.1157,-0.1851,0.5005,35.0342,-169.7388,17.7612,1,466,929,2421
2084953925,411425,0.7266,0.7598,-0.0596,31.3110,-246.2158,-5.9204,1,483,929,2421
2084958926,411426,-1.5098,1.2598,-0.2148,-86.3647,-310.9741,-37.5977,1,466,929,2421
2084963925,411427,-2.4717,-0.1372,0.9043,-182.9223,-328.6133,-29.1748,1,484,938,2421
2084968930,411428,-2.0049,-1.6484,2.0718,-108.2153,-267.0898,-17.3340,1,472,948,2421
2084973924,411429,-1.2856,-2.1753,2.1387,-48.8281,-264.0991,-3.5400,1,472,938,2421
2084978925,411430,-0.6465,-2.2329,1.2900,4.3335,-271.3623,-11.5356,1,481,923,2421
2084983927,411431,-0.0898,-1.8105,0.1489,99.3652,-308.5938,-0.4272,1,466,957,2421
2084988930,411432,0.1416,-0.7500,-0.6982,134.0332,-354.0039,10.0708,1,466,952,2421
2084993926,411433,0.0430,0.2861,-0.6885,86.5478,-403.9917,10.3149,1,465,915,2421
2084998931,411434,0.0371,0.6069,0.3276,30.5176,-441.8335,30.4565,1,483,926,2421
2085003929,411435,0.3228,0.3843,1.8906,-2.1973,-435.1196,53.4668,1,466,941,2421
2085008922,411436,0.7144,0.2324,3.1851,-5.7373,-400.4516,58.3496,1,493,926,2421
2085013925,411437,0.9399,0.4575,3.6851,7.0190,-363.3423,48.8892,1,473,932,2421
2085018927,411438,0.9487,0.9424,3.5317,15.9912,-331.7260,30.9448,1,482,826,2421
2085023929,411439,0.9155,1.3389,3.1831,12.7563,-302.0020,13.1836,1,476,906,2421
2085028929,411440,0.9185,1.3765,2.8813,2.6245,-264.6484,-4.6997,1,485,913,2421
2085033930,411441,0.8101,1.0015,2.6104,-12.6953,-224.6094,-19.2261,1,492,886,2421
2085038931,411442,0.5498,0.3862,2.2915,-16.7236,-197.8760,-27.6489,1,476,900,2421
2085043924,411443,0.2607,-0.2046,1.9297,-13.9160,-182.1289,-29.1138,1,492,924,2421
2085048923,411444,0.0986,-0.6123,1.6274,-14.8315,-174.7436,-23.6816,1,466,944,2421
2085053925,411445,0.0781,-0.7739,1.4390,-14.5874,-166.5039,-14.1602,1,466,958,2421
2085058930,411446,0.0859,-0.7090,1.3320,-13.4277,-158.0811,-5.6152,1,483,946,2421
2085063922,411447,-0.1167,-0.6733,1.3135,-8.1177,-147.5220,0.2441,1,466,921,2421
2085068929,411448,-0.3779,-0.8608,1.6357,8.9111,-140.0757,18.9819,1,484,908,2421
2085073926,411449,0.0283,-0.9766,1.9438,48.2178,-173.4009,35.4004,1,466,862,2421
2085078923,411450,0.5776,-0.9424,1.7769,54.3823,-122.9858,31.5552,1,481,880,2421
2085083922,411451,0.3872,-0.8794,1.5610,66.8335,-96.4966,31.3110,1,465,993,2421
2085088927,411452,0.1035,-0.6655,1.5684,95.5810,-116.3940,43.8232,1,465,926,2421
2085093923,411453,0.2036,-0.3335,1.5791,107.2388,-109.0698,42.6636,1,465,950,2421
2085098940,411454,0.2573,-0.0210,1.4688,109.7412,-78.1860,33.0811,1,474,902,2421
2085103926,411455,0.1196,0.1626,1.3374,110.4126,-76.2939,31.3110,1,476,958,2421
2085108928,411456,0.0342,0.1851,1.2622,105.5908,-75.6836,30.8838,1,511,926,2421
2085113930,411457,0.0571,0.1270,1.2686,102.0508,-67.9932,28.7476,1,479,933,2421
2085118928,411458,0.1113,0.1084,1.3169,102.2339,-60.2417,27.0386,1,465,932,2421
2085123925,411459,0.1270,0.2344,1.3643,99.1821,-52.8564,23.6206,1,471,872,2421
2085128923,411460,0.0122,0.5522,1.4917,85.6934,-45.4712,17.0288,1,487,841,2421
2085133930,411461,0.0054,0.9121,1.6509,63.0493,-51.4526,5.6152,1,476,906,2421
2085138929,411462,0.1592,0.8501,1.5903,29.0527,-40.1001,2.6245,1,480,892,2421
2085143928,411463,0.1289,0.3208,1.3359,16.1133,-24.1089,-1.2817,1,491,877,2421
2085148922,411464,-0.0249,-0.1089,1.1079,20.8740,-30.3345,-0.2441,1,493,890,2421
2085153930,411465,-0.0938,-0.1143,1.0239,25.0244,-34.1797,0.8545,1,493,890,2421
2085158931,411466,-0.0542,0.0967,1.0732,17.1509,-33.1421,-1.2817,1,466,938,2421
2085163928,411467,0.0200,0.1880,1.1411,7.8735,-30.3345,-1.1597,1,483,902,2421
2085168922,411468,0.0552,0.1260,1.1670,5.6152,-26.9165,-1.1597,1,465,904,2421
2085173923,411469,0.0757,0.0566,1.1797,4.0894,-24.6582,-1.0376,1,484,895,2421
2085178922,411470,0.0908,0.0312,1.1699,2.0752,-18.3716,-1.4038,1,471,899,2421
2085183928,411471,0.0498,0.0103,1.1162,0.4883,-13.7939,-1.5259,1,478,946,2421
2085188925,411472,-0.0142,-0.0122,1.0581,0.4883,-15.2588,-1.2817,1,474,892,2421
2085193930,411473,-0.0308,-0.0156,1.0400,1.2817,-16.6016,-1.5259,1,480,893,2421
2085198922,411474,-0.0142,-0.0049,1.0483,1.2817,-15.6250,-2.0142,1,465,869,2421
2085203925,411475,-0.0068,0.0024,1.0498,1.4648,-14.8315,-2.3804,1,474,880,2421
2085208927,411476,-0.0059,0.0010,1.0444,1.7700,-14.9536,-2.5635,1,510,883,2421
2085213926,411477,-0.0034,-0.0088,1.0444,2.0142,-14.5874,-3.1738,1,465,890,2421
2085218931,411478,-0.0029,-0.0181,1.0420,3.2349,-13.8550,-3.7231,1,493,899,2421
2085223922,411479,-0.0088,-0.0181,1.0342,4.3335,-13.1226,-4.2114,1,464,795,2421
2085228922,411480,-0.0200,-0.0156,1.0264,5.0049,-13.0005,-4.7607,1,477,868,2421
2085233923,411481,-0.0278,-0.0137,1.0195,5.6763,-13.3057,-5.0049,1,488,863,2421
2085238928,411482,-0.0249,-0.0088,1.0200,6.3477,-13.6719,-5.0049,1,477,890,2421
2085243927,411483,-0.0151,-0.0005,1.0269,6.2866,-13.3667,-4.7607,1,485,865,2421
2085248928,411484,-0.0127,0.0054,1.0298,6.3477,-12.7563,-4.5776,1,492,869,2421
2085253926,411485,-0.0151,0.0039,1.0278,6.4697,-13.1226,-3.9673,1,493,872,2421
2085258931,411486,-0.0098,0.0049,1.0288,6.6528,-13.2446,-3.3569,1,466,904,2421
2085263927,411487,0.0010,0.0142,1.0342,6.6528,-12.1460,-3.4790,1,466,901,2421
2085268926,411488,-0.0010,0.0205,1.0337,6.1035,-11.2305,-3.8452,1,466,896,2421
2085273923,411489,-0.0249,0.0269,1.0215,5.9204,-11.5967,-4.6997,1,484,885,2421
2085278923,411490,-0.0479,0.0273,1.0049,5.5542,-13.9770,-5.9204,1,466,856,2421
2085283923,411491,-0.0542,0.0088,0.9932,4.8828,-15.4419,-6.4087,1,471,954,2421
2085288925,411492,-0.0562,-0.0137,0.9907,4.3335,-17.0898,-5.4321,1,478,884,2421
2085293927,411493,-0.0508,-0.0044,0.9995,4.0894,-20.0806,-4.0283,1,480,885,2421
2085298929,411494,-0.0303,0.0254,1.0151,3.2959,-21.4844,-4.6997,1,465,868,2421
2085303925,411495,-0.0098,0.0273,1.0244,2.3193,-21.4844,-5.6763,1,466,883,2421
2085308925,411496,0.0020,0.0122,1.0259,2.4414,-21.4233,-5.3711,1,484,883,2421
2085313927,411497,0.0127,0.0161,1.0288,2.3804,-21.3013,-5.0659,1,466,899,2421
2085318924,411498,0.0273,0.0249,1.0347,1.3428,-20.3247,-5.1880,1,494,900,2421
2085323926,411499,0.0347,0.0190,1.0371,0.8545,-18.6157,-5.3101,1,464,799,2421
2085328925,411500,0.0366,0.0112,1.0371,1.1597,-17.5171,-4.8828,1,476,872,2421
2085333928,411501,0.0430,0.0117,1.0381,1.0986,-16.1743,-4.5166,1,487,869,2421
2085338927,411502,0.0488,0.0122,1.0381,0.7935,-14.3433,-4.3335,1,471,864,2421
2085343930,411503,0.0518,0.0059,1.0361,0.8545,-12.6953,-3.8452,1,485,870,2421
2085348925,411504,0.0312,0.0000,1.0190,1.4038,-9.3994,-2.5024,1,492,869,2421
2085353924,411505,0.0142,0.0029,1.0103,1.7700,-9.4604,-2.2583,1,493,838,2421
2085358946,411506,0.0098,0.0020,1.0083,2.1973,-9.3994,-2.0752,1,466,876,2421
2085363930,411507,0.0161,0.0034,1.0137,2.8076,-9.3384,-1.7700,1,466,874,2421
2085368926,411508,0.0249,0.0151,1.0254,2.9907,-9.0942,-1.4648,1,484,881,2421
2085373927,411509,0.0327,0.0273,1.0361,2.0752,-8.4229,-1.4648,1,484,878,2421
2085378930,411510,0.0386,0.0239,1.0391,1.5869,-7.6294,-1.5869,1,466,887,2421
2085383925,411511,0.0464,0.0186,1.0430,1.6479,-6.8970,-1.5869,1,476,924,2421
2085388925,411512,0.0474,0.0190,1.0439,1.5259,-5.2490,-1.5869,1,465,873,2421
2085393924,411513,0.0288,0.0190,1.0342,1.3428,-4.2114,-1.8311,1,470,882,2421
2085398928,411514,0.0098,0.0166,1.0254,1.2817,-5.3711,-2.1362,1,479,865,2421
2085403945,411515,0.0078,0.0127,1.0254,1.8311,-6.2256,-2.3804,1,477,862,2421
2085408927,411516,0.0117,0.0127,1.0322,2.1973,-6.2256,-2.8076,1,480,854,2421
2085413928,411517,0.0103,0.0166,1.0352,2.0752,-7.0190,-3.0518,1,511,866,2421
2085418926,411518,-0.0024,0.0200,1.0278,2.0142,-8.1177,-3.3569,1,488,877,2421
2085423924,411519,-0.0161,0.0225,1.0190,2.0142,-10.0708,-3.7231,1,465,808,2421
2085428925,411520,-0.0107,0.0229,1.0220,1.5869,-12.3291,-3.5400,1,485,793,2421
2085433930,411521,0.0073,0.0200,1.0303,1.4648,-13.1226,-3.6621,1,471,877,2421
2085438929,411522,0.0205,0.0151,1.0337,1.4648,-13.6719,-3.4790,1,476,871,2421
2085443922,411523,0.0322,0.0142,1.0352,1.7700,-14.2212,-3.2959,1,486,896,2421
2085448929,411524,0.0425,0.0171,1.0356,1.8921,-13.9160,-3.2959,1,481,871,2421
2085453929,411525,0.0381,0.0225,1.0332,1.6479,-13.6719,-3.2349,1,492,868,2421
2085458924,411526,0.0220,0.0298,1.0288,1.2817,-14.4043,-2.6855,1,493,872,2421
2085463928,411527,0.0098,0.0283,1.0254,0.9766,-15.7471,-2.4414,1,466,904,2421
2085468922,411528,0.0049,0.0195,1.0254,1.0376,-17.0898,-2.1973,1,482,896,2421
2085473925,411529,0.0005,0.0190,1.0264,1.0986,-18.5547,-2.3193,1,466,875,2421
2085478922,411530,-0.0049,0.0249,1.0259,0.7935,-20.7520,-2.1973,1,484,874,2421
2085483926,411531,-0.0098,0.0278,1.0239,0.3052,-23.1323,-2.1362,1,473,891,2421
2085488930,411532,-0.0054,0.0229,1.0234,0.1221,-26.0620,-2.0752,1,473,953,2421
2085493924,411533,0.0098,0.0210,1.0269,-0.0610,-27.7100,-2.6855,1,472,882,2421
2085498926,411534,0.0229,0.0239,1.0322,-0.2441,-28.9917,-3.2959,1,480,881,2421
2085503930,411535,0.0249,0.0293,1.0352,-0.7935,-30.8838,-3.6621,1,465,905,2421
2085508956,411536,0.0137,0.0366,1.0361,-1.8921,-32.7759,-3.7231,1,482,883,2421
2085513923,411537,-0.0034,0.0391,1.0376,-3.4180,-36.0718,-3.6621,1,479,879,2421
2085518926,411538,-0.0200,0.0381,1.0381,-4.6387,-40.5884,-4.2725,1,466,891,2421
2085523930,411539,-0.0518,0.0400,1.0327,-6.5918,-46.9971,-5.6763,1,494,893,2421
2085528928,411540,-0.0776,0.0488,1.0264,-8.5449,-54.8096,-6.6528,1,494,898,2421
2085533922,411541,-0.0605,0.0649,1.0308,-10.9253,-62.0117,-8.3618,1,486,804,2421
2085538923,411542,-0.0244,0.0640,1.0386,-13.7939,-67.4438,-10.8032,1,480,890,2421
2085543925,411543,-0.0215,0.0430,1.0381,-15.8691,-73.4863,-11.8408,1,489,908,2421
2085548925,411544,-0.0527,0.0283,1.0269,-18.5547,-80.9326,-10.9863,1,473,903,2421
2085553927,411545,-0.0913,0.0347,1.0117,-19.8975,-89.9658,-10.6201,1,481,925,2421
2085558924,411546,-0.1509,0.0640,1.0034,-22.5830,-98.9990,-11.7798,1,477,905,2421
2085563927,411547,-0.1860,0.0854,1.0068,-26.4282,-115.1733,-12.2681,1,493,909,2421
2085568926,411548,-0.2422,0.1060,1.0210,-30.2124,-130.0659,-15.3809,1,466,948,2421
2085573928,411549,-0.4907,0.1489,1.0269,-36.6821,-147.8882,-20.9961,1,483,933,2421
2085578922,411550,-0.8584,0.2300,1.0298,-42.6025,-182.4951,-21.2402,1,466,933,2421
2085583931,411551,-1.1719,0.3037,1.0869,-53.8330,-224.1821,-19.9585,1,484,950,2421
2085588925,411552,-0.9536,0.1650,1.2148,-67.3218,-285.3394,-13.7939,1,465,932,2421
2085593925,411553,-0.2100,-0.0103,1.3013,-62.9272,-326.5381,-12.6343,1,473,939,2421
2085598927,411554,-0.2002,0.0522,1.4336,-76.4771,-313.2935,-21.7285,1,479,930,2421
2085603925,411555,-0.7822,0.2012,1.7017,-83.6792,-380.8593,-11.4746,1,480,925,2421
2085608931,411556,-0.6138,0.3569,1.8276,-85.9375,-447.0215,-6.5918,1,470,944,2421
2085613929,411557,0.1069,0.6587,1.6948,-123.8403,-451.8432,-20.4468,1,468,912,2421
2085618925,411558,-0.0029,0.7476,1.6797,-185.3638,-432.0678,-37.4146,1,483,936,2421
2085623929,411559,-1.0054,0.4619,1.9971,-213.5620,-479.4922,-44.9829,1,466,938,2421
2085628922,411560,-1.5781,0.2314,2.0801,-205.5664,-578.7964,-40.0391,1,486,951,2421
2085633926,411561,-1.3311,0.0366,1.5923,-223.9380,-631.4087,-49.6216,1,466,824,2421
2085638922,411562,-0.8335,-0.2515,0.9570,-224.8535,-657.1044,-67.5049,1,473,846,2421
2085643924,411563,-0.5366,-0.5303,0.5591,-199.8901,-693.7255,-76.6602,1,488,917,2421
2085648927,411564,-0.3872,-0.4097,0.5137,-171.0205,-722.7783,-78.8574,1,475,914,2421
2085653927,411565,0.0454,-0.1045,0.6958,-145.3247,-697.5097,-66.2231,1,483,934,2421
2085658925,411566,1.0654,-0.4038,1.8589,-125.6714,-559.6313,-62.0728,1,484,915,2421
2085663930,411567,2.5903,-1.1035,4.1235,-78.7354,-437.9272,-68.6035,1,492,920,2421
2085668924,411568,3.2744,-1.4570,5.7188,-13.7329,-232.1777,-72.3877,1,466,945,2421
2085673931,411569,1.9570,-1.3257,5.5513,19.7754,-36.8042,-73.1812,1,484,985,2421
2085678925,411570,-0.2036,-0.8945,4.1401,48.1567,57.6782,-64.1479,1,465,921,2421
2085683926,411571,-1.5132,-0.3833,2.6587,57.8613,78.7964,-52.8564,1,484,948,2421
2085688922,411572,-1.5620,-0.0747,1.7021,51.6968,91.9189,-46.8750,1,467,933,2421
2085693926,411573,-1.0845,-0.0171,1.1445,52.2461,108.8867,-43.3350,1,475,943,2421
2085698929,411574,-0.7769,-0.0459,0.7466,56.4575,117.8589,-42.6025,1,478,931,2421
2085703931,411575,-0.7368,-0.0444,0.4648,59.1431,114.4409,-43.3960,1,480,934,2421
2085708928,411576,-0.7588,-0.0215,0.3408,60.7910,106.3843,-43.3350,1,465,947,2421
2085713923,411577,-0.7188,-0.0127,0.3628,63.6597,102.6611,-43.7622,1,468,920,2421
2085718924,411578,-0.6289,-0.0200,0.4619,66.8945,104.0039,-44.2505,1,483,974,2421
2085723922,411579,-0.5352,-0.0234,0.5713,69.7632,109.3140,-45.0439,1,466,932,2421
2085728922,411580,-0.4536,-0.0171,0.6543,70.3735,118.1030,-45.8374,1,483,935,2421
2085733924,411581,-0.3828,-0.0103,0.6953,69.2749,130.0049,-46.8750,1,464,937,2421
2085738930,411582,-0.3286,-0.0029,0.6860,66.8945,143.2495,-47.9126,1,481,825,2421
2085743926,411583,-0.3115,0.0063,0.6362,62.6831,155.6396,-49.4385,1,481,916,2421
2085748927,411584,-0.3306,0.0103,0.5762,57.0679,164.6728,-50.9033,1,477,914,2421
2085753923,411585,-0.3579,-0.0044,0.5430,50.8423,170.2270,-51.6357,1,485,908,2421
2085758927,411586,-0.3657,-0.0479,0.5571,44.5557,173.7060,-51.2695,1,486,932,2421
2085763923,411587,-0.3442,-0.1211,0.6113,39.1846,177.5513,-49.6216,1,488,919,2421
2085768938,411588,-0.3110,-0.2124,0.6875,35.6445,183.4106,-45.6543,1,466,910,2421
2085773922,411589,-0.2881,-0.3062,0.7676,33.6914,190.7348,-39.6118,1,466,944,2421
2085778925,411590,-0.2725,-0.3887,0.8506,32.5928,197.5098,-31.3110,1,466,931,2421
2085783925,411591,-0.2485,-0.4565,0.9380,32.8369,204.8950,-21.1792,1,479,934,2421
2085788928,411592,-0.2134,-0.5107,1.0254,33.5083,213.6841,-10.2539,1,466,932,2421
2085793927,411593,-0.1680,-0.5479,1.1060,34.1187,222.7173,1.4038,1,466,880,2421
2085798922,411594,-0.1006,-0.5669,1.1733,33.9355,233.2764,13.9160,1,469,976,2421
2085803923,411595,-0.0190,-0.5747,1.2207,33.2642,246.5210,26.1230,1,476,929,2421
2085808923,411596,0.0479,-0.5679,1.2368,33.0200,260.4370,37.8418,1,479,937,2421
2085813927,411597,0.0869,-0.5381,1.2202,32.4707,272.7661,48.4619,1,465,904,2421
2085818923,411598,0.1089,-0.4883,1.1792,31.4331,282.6538,57.4951,1,478,918,2421
2085823929,411599,0.1387,-0.4365,1.1216,30.5786,289.9780,65.0635,1,510,924,2421
2085828925,411600,0.1846,-0.3916,1.0493,29.9683,294.8608,71.1060,1,493,932,2421
2085833922,411601,0.2280,-0.3569,0.9731,28.1982,296.8750,75.5615,1,492,932,2421
2085838923,411602,0.2598,-0.3364,0.9131,25.1465,295.3491,79.2847,1,466,861,2421
