t_us, seq, ax, ay, az, gx, gy, gz, valid, t_imu_us, t_serial_us, missed
400393923,76700,-0.0337,-0.0366,1.0205,0.1221,0.3052,-0.3662,1,477,830,234
400398928,76701,-0.0322,-0.0376,1.0205,0.0610,0.1831,-0.3052,1,465,864,234
400403926,76702,-0.0308,-0.0376,1.0215,0.0610,0.2441,-0.3052,1,465,873,234
400408928,76703,-0.0308,-0.0376,1.0215,0.0610,0.1221,-0.2441,1,472,850,234
400413923,76704,-0.0312,-0.0376,1.0210,-0.0610,0.1831,-0.3052,1,471,853,234
400418923,76705,-0.0312,-0.0376,1.0215,-0.1831,0.3052,-0.3662,1,483,878,234
400423926,76706,-0.0312,-0.0381,1.0215,-0.1221,0.3662,-0.4272,1,465,901,234
400428923,76707,-0.0322,-0.0376,1.0220,-0.1831,0.3662,-0.3052,1,466,900,234
400433925,76708,-0.0332,-0.0381,1.0229,-0.1831,0.3052,-0.3052,1,492,878,234
400438929,76709,-0.0322,-0.0381,1.0229,-0.1221,0.3052,-0.2441,1,466,872,234
400443927,76710,-0.0317,-0.0376,1.0229,-0.1221,0.6104,-0.2441,1,493,873,234
400448925,76711,-0.0322,-0.0361,1.0239,-0.1221,0.6714,-0.3052,1,466,857,234
400453929,76712,-0.0327,-0.0352,1.0249,-0.1831,0.6104,-0.3662,1,479,847,234
400458926,76713,-0.0322,-0.0356,1.0254,-0.3052,0.5493,-0.1831,1,485,852,234
400463930,76714,-0.0322,-0.0371,1.0220,-0.3052,0.6104,-0.3052,1,476,853,234
400468923,76715,-0.0327,-0.0386,1.0225,-0.3052,0.7324,-0.1831,1,473,842,234
400473926,76716,-0.0327,-0.0391,1.0234,-0.4272,0.8545,-0.1831,1,489,848,234
400478923,76717,-0.0332,-0.0391,1.0234,-0.3052,0.9155,-0.2441,1,492,850,234
400483927,76718,-0.0327,-0.0381,1.0225,-0.3052,0.8545,-0.2441,1,480,865,234
400488922,76719,-0.0327,-0.0371,1.0225,-0.3052,0.9155,-0.2441,1,466,872,234
400493925,76720,-0.0327,-0.0376,1.0225,-0.1831,0.9155,-0.2441,1,465,921,234
400498925,76721,-0.0332,-0.0381,1.0220,-0.2441,0.9155,-0.2441,1,466,872,234
400503925,76722,-0.0332,-0.0376,1.0215,-0.2441,0.7935,-0.1221,1,466,880,234
400508926,76723,-0.0322,-0.0371,1.0220,-0.2441,0.9766,-0.1221,1,469,875,234
400513923,76724,-0.0317,-0.0356,1.0220,-0.3662,0.9155,-0.2441,1,472,859,234
400518931,76725,-0.0317,-0.0366,1.0220,-0.3662,0.9766,-0.3052,1,472,867,234
400523927,76726,-0.0317,-0.0391,1.0220,-0.1831,0.9766,-0.3052,1,483,859,234
400528922,76727,-0.0327,-0.0405,1.0229,-0.1831,0.9766,-0.3052,1,466,872,234
400533943,76728,-0.0337,-0.0400,1.0229,-0.1221,0.9766,-0.2441,1,466,878,234
400538927,76729,-0.0337,-0.0376,1.0225,-0.1831,0.9155,-0.3052,1,466,876,234
400543930,76730,-0.0332,-0.0366,1.0220,-0.3052,0.8545,-0.3052,1,493,875,234
400548929,76731,-0.0327,-0.0371,1.0229,-0.1831,0.8545,-0.3052,1,488,871,234
400553926,76732,-0.0322,-0.0371,1.0234,-0.1221,0.8545,-0.2441,1,464,785,234
400558928,76733,-0.0317,-0.0371,1.0239,-0.1831,0.7935,-0.2441,1,488,862,234
400563922,76734,-0.0308,-0.0386,1.0244,-0.1221,0.7935,-0.1831,1,492,857,234
400568929,76735,-0.0317,-0.0396,1.0234,-0.0610,0.7324,-0.2441,1,476,845,234
400573922,76736,-0.0332,-0.0386,1.0225,0.0610,0.7324,-0.2441,1,476,852,234
400578926,76737,-0.0337,-0.0381,1.0215,0.1221,0.6104,-0.0610,1,490,850,234
400583930,76738,-0.0322,-0.0381,1.0220,-0.0610,0.4883,-0.2441,1,490,837,234
400588926,76739,-0.0317,-0.0376,1.0229,-0.0610,0.6104,-0.1831,1,493,835,234
400593928,76740,-0.0332,-0.0376,1.0229,-0.0610,0.6714,-0.2441,1,484,866,234
400598923,76741,-0.0337,-0.0386,1.0220,0.0610,0.6104,-0.3052,1,465,907,234
400603927,76742,-0.0342,-0.0391,1.0220,0.2441,0.4883,-0.0610,1,474,857,234
400608930,76743,-0.0337,-0.0381,1.0234,0.1831,0.4883,-0.1221,1,473,870,234
400613925,76744,-0.0332,-0.0376,1.0239,0.1221,0.4272,-0.2441,1,474,873,234
400618929,76745,-0.0327,-0.0381,1.0239,0.1831,0.3662,-0.1221,1,482,862,234
400623923,76746,-0.0327,-0.0381,1.0234,0.4272,0.4272,-0.1831,1,482,861,234
400628922,76747,-0.0327,-0.0376,1.0229,0.3052,0.3052,-0.2441,1,484,864,234
400633930,76748,-0.0327,-0.0361,1.0229,0.3052,0.3662,-0.2441,1,466,875,234
400638936,76749,-0.0322,-0.0366,1.0229,0.3052,0.3662,-0.1831,1,466,883,234
400643925,76750,-0.0312,-0.0371,1.0234,0.3662,0.4883,-0.2441,1,466,883,234
400648923,76751,-0.0303,-0.0371,1.0244,0.3662,0.6104,-0.1831,1,493,909,234
400653929,76752,-0.0298,-0.0376,1.0239,0.3052,0.6104,-0.1831,1,477,877,234
400658927,76753,-0.0308,-0.0381,1.0225,0.3052,0.6104,-0.1221,1,493,795,234
400663929,76754,-0.0322,-0.0386,1.0220,0.2441,0.6104,-0.1221,1,491,794,234
400668930,76755,-0.0327,-0.0381,1.0229,0.2441,0.6714,-0.1831,1,487,845,234
400673925,76756,-0.0322,-0.0371,1.0234,0.1831,0.7324,-0.1221,1,491,853,234
400678931,76757,-0.0317,-0.0381,1.0229,0.0610,0.7324,-0.1831,1,485,874,234
400683928,76758,-0.0317,-0.0386,1.0239,0.1221,0.9155,-0.0610,1,488,850,234
400688929,76759,-0.0317,-0.0366,1.0234,0.0000,0.8545,-0.0610,1,483,848,234
400693929,76760,-0.0312,-0.0352,1.0229,0.0000,0.9766,-0.0610,1,492,793,234
400698925,76761,-0.0312,-0.0356,1.0239,0.0610,1.0986,-0.1221,1,484,796,234
400703931,76762,-0.0317,-0.0376,1.0249,-0.0610,1.2207,0.0000,1,465,853,234
400708922,76763,-0.0312,-0.0391,1.0249,-0.0610,1.4038,0.0610,1,482,822,234
400713926,76764,-0.0312,-0.0381,1.0244,-0.1221,1.5259,-0.0610,1,473,887,234
400718924,76765,-0.0308,-0.0366,1.0249,-0.2441,1.5259,0.0000,1,474,887,234
400723927,76766,-0.0308,-0.0376,1.0269,-0.3662,1.7700,0.1221,1,479,816,234
400728923,76767,-0.0317,-0.0386,1.0278,-0.4272,1.9531,0.1221,1,478,853,234
400733930,76768,-0.0332,-0.0376,1.0249,-0.3662,2.1362,0.1221,1,483,863,234
400738930,76769,-0.0356,-0.0361,1.0229,-0.4272,2.0142,0.1831,1,466,882,234
400743937,76770,-0.0361,-0.0376,1.0229,-0.4883,2.0752,0.0610,1,466,885,234
400748922,76771,-0.0342,-0.0396,1.0225,-0.4272,2.0752,0.1831,1,466,876,234
400753929,76772,-0.0337,-0.0410,1.0220,-0.4272,2.1973,0.1831,1,493,878,234
400758930,76773,-0.0352,-0.0410,1.0200,-0.3662,2.0142,0.1831,1,475,879,234
400763930,76774,-0.0381,-0.0396,1.0171,-0.2441,1.8311,0.2441,1,493,874,234
400768928,76775,-0.0400,-0.0386,1.0161,-0.5493,1.7090,0.0610,1,475,816,234
400773924,76776,-0.0391,-0.0381,1.0171,-0.6104,1.4648,0.1831,1,477,846,234
400778930,76777,-0.0371,-0.0381,1.0186,-0.4272,1.4648,0.2441,1,490,842,234
400783923,76778,-0.0361,-0.0396,1.0210,-0.4883,1.4038,0.1831,1,490,873,234
400788926,76779,-0.0361,-0.0400,1.0229,-0.4883,1.2207,0.1831,1,484,850,234
400793925,76780,-0.0366,-0.0396,1.0220,-0.4272,1.4038,0.3052,1,509,851,234
400798923,76781,-0.0381,-0.0400,1.0186,-0.5493,1.4038,0.2441,1,493,836,234
400803929,76782,-0.0396,-0.0405,1.0161,-0.5493,1.2207,0.2441,1,484,835,234
400808927,76783,-0.0386,-0.0396,1.0171,-0.4272,1.0376,0.1831,1,465,879,234
400813927,76784,-0.0371,-0.0400,1.0190,-0.3662,1.2207,0.3052,1,476,930,234
400818922,76785,-0.0371,-0.0405,1.0195,-0.3052,1.1597,0.3052,1,476,865,234
400823925,76786,-0.0376,-0.0391,1.0190,-0.1831,1.0986,0.3052,1,482,863,234
400828923,76787,-0.0381,-0.0405,1.0181,-0.0610,0.8545,0.3052,1,482,870,234
400833928,76788,-0.0381,-0.0430,1.0186,0.0610,0.9766,0.3052,1,465,846,234
400838923,76789,-0.0381,-0.0430,1.0205,0.2441,0.8545,0.2441,1,478,847,234
400843925,76790,-0.0376,-0.0415,1.0205,0.2441,0.7935,0.0610,1,466,858,234
400848926,76791,-0.0371,-0.0400,1.0200,0.1831,0.7935,0.0610,1,466,877,234
400853926,76792,-0.0376,-0.0386,1.0210,0.3052,0.6714,0.1221,1,465,874,234
400858927,76793,-0.0391,-0.0376,1.0205,0.3662,0.6104,0.1221,1,492,867,234
400863927,76794,-0.0396,-0.0371,1.0190,0.3662,0.3662,0.0610,1,466,867,234
400868929,76795,-0.0386,-0.0356,1.0186,0.4272,0.1831,0.1221,1,494,878,234
400873926,76796,-0.0376,-0.0366,1.0200,0.3052,0.0610,-0.1221,1,465,800,234
400878926,76797,-0.0352,-0.0381,1.0220,0.3662,0.0000,-0.0610,1,481,840,234
400883929,76798,-0.0347,-0.0400,1.0220,0.3052,0.2441,-0.0610,1,490,797,234
400888927,76799,-0.0356,-0.0405,1.0210,0.3052,0.1831,-0.1221,1,475,868,234
400893945,76800,-0.0352,-0.0400,1.0215,0.2441,0.3052,-0.0610,1,487,842,234
400898930,76801,-0.0352,-0.0396,1.0234,0.1831,0.2441,-0.1221,1,476,840,234
400903925,76802,-0.0356,-0.0376,1.0244,0.1831,0.1831,-0.1831,1,489,849,234
400908927,76803,-0.0352,-0.0361,1.0249,0.1831,0.3662,-0.1221,1,511,846,234
400913923,76804,-0.0347,-0.0356,1.0244,0.1831,0.4883,-0.1221,1,465,876,234
400918929,76805,-0.0352,-0.0371,1.0234,0.1831,0.6104,-0.1831,1,476,917,234
400923925,76806,-0.0361,-0.0386,1.0234,0.0610,0.7324,-0.1831,1,472,869,234
400928929,76807,-0.0361,-0.0386,1.0234,0.0610,0.7324,-0.1831,1,481,879,234
400933930,76808,-0.0356,-0.0376,1.0234,-0.0610,0.7324,-0.1221,1,481,880,234
400938924,76809,-0.0356,-0.0376,1.0234,-0.0610,0.9155,-0.1831,1,466,858,234
400943930,76810,-0.0361,-0.0381,1.0234,-0.0610,1.0376,-0.1831,1,484,863,234
400948922,76811,-0.0366,-0.0381,1.0229,-0.0610,1.0986,-0.1831,1,466,859,234
400953924,76812,-0.0376,-0.0376,1.0225,-0.0610,1.0986,-0.1831,1,466,879,234
400958931,76813,-0.0371,-0.0366,1.0225,-0.1831,1.0986,-0.3052,1,466,876,234
400963926,76814,-0.0356,-0.0361,1.0234,-0.2441,0.9155,-0.3052,1,492,879,234
400968925,76815,-0.0356,-0.0361,1.0249,-0.2441,0.9155,-0.3052,1,467,883,234
400973926,76816,-0.0366,-0.0366,1.0254,-0.3052,1.0376,-0.2441,1,492,883,234
400978927,76817,-0.0371,-0.0376,1.0249,-0.4883,1.1597,-0.3052,1,466,821,234
400983922,76818,-0.0366,-0.0376,1.0234,-0.5493,1.1597,-0.3662,1,490,848,234
400988926,76819,-0.0376,-0.0371,1.0229,-0.4272,1.0376,-0.4272,1,483,856,234
400993926,76820,-0.0386,-0.0376,1.0220,-0.4272,0.9766,-0.4272,1,490,873,234
400998923,76821,-0.0391,-0.0396,1.0210,-0.4883,0.9155,-0.4272,1,481,848,234
401003925,76822,-0.0391,-0.0405,1.0210,-0.4883,0.9155,-0.3052,1,504,843,234
401008923,76823,-0.0391,-0.0381,1.0220,-0.4883,0.8545,-0.3052,1,492,828,234
401013929,76824,-0.0381,-0.0366,1.0229,-0.5493,0.9155,-0.4272,1,484,769,234
401018929,76825,-0.0371,-0.0386,1.0225,-0.4883,1.0986,-0.4883,1,466,880,234
401023922,76826,-0.0371,-0.0405,1.0210,-0.3052,1.0376,-0.4883,1,482,917,234
401028924,76827,-0.0376,-0.0410,1.0200,-0.2441,0.9155,-0.4272,1,469,869,234
401033925,76828,-0.0386,-0.0391,1.0195,-0.2441,0.9766,-0.4883,1,475,878,234
401038923,76829,-0.0386,-0.0386,1.0200,-0.3052,0.9766,-0.4272,1,476,856,234
401043927,76830,-0.0386,-0.0391,1.0205,-0.1831,1.0376,-0.4883,1,482,852,234
401048925,76831,-0.0381,-0.0405,1.0210,0.0000,1.0986,-0.6104,1,483,854,234
401053930,76832,-0.0376,-0.0425,1.0215,0.1221,1.0376,-0.6714,1,466,822,234
401058938,76833,-0.0381,-0.0420,1.0210,0.2441,0.9766,-0.6104,1,466,868,234
401063923,76834,-0.0371,-0.0400,1.0205,0.0610,1.0986,-0.4883,1,466,866,234
401068929,76835,-0.0366,-0.0381,1.0205,0.0000,1.0986,-0.6104,1,493,874,234
401073927,76836,-0.0376,-0.0376,1.0210,0.0610,0.9766,-0.5493,1,465,754,234
401078922,76837,-0.0391,-0.0381,1.0205,-0.1221,1.0376,-0.5493,1,494,870,234
401083926,76838,-0.0396,-0.0396,1.0200,0.0000,1.0376,-0.4883,1,473,850,234
401088925,76839,-0.0391,-0.0405,1.0210,0.1221,0.8545,-0.5493,1,480,798,234
401093928,76840,-0.0386,-0.0405,1.0215,0.1221,0.9766,-0.4883,1,488,840,234
401098927,76841,-0.0386,-0.0405,1.0225,0.2441,0.8545,-0.6104,1,473,861,234
401103923,76842,-0.0386,-0.0396,1.0234,0.1221,0.7935,-0.5493,1,475,843,234
401108930,76843,-0.0386,-0.0371,1.0225,0.1221,0.8545,-0.4883,1,507,846,234
401113929,76844,-0.0391,-0.0352,1.0215,0.0610,0.7935,-0.4883,1,492,833,234
401118927,76845,-0.0391,-0.0352,1.0220,-0.0610,0.9155,-0.5493,1,484,827,234
401123928,76846,-0.0391,-0.0356,1.0225,0.0610,0.9155,-0.4883,1,465,901,234
401128925,76847,-0.0381,-0.0366,1.0229,-0.1221,0.8545,-0.3052,1,470,863,234
401133925,76848,-0.0381,-0.0391,1.0234,-0.1831,0.9766,-0.4272,1,477,869,234
401138931,76849,-0.0381,-0.0396,1.0225,-0.1221,0.8545,-0.4883,1,481,871,234
401143924,76850,-0.0391,-0.0391,1.0215,-0.1831,0.9155,-0.4272,1,482,851,234
401148924,76851,-0.0396,-0.0386,1.0205,-0.2441,1.0376,-0.4883,1,468,857,234
401153922,76852,-0.0391,-0.0391,1.0200,-0.2441,0.8545,-0.3662,1,483,857,234
401158924,76853,-0.0376,-0.0381,1.0205,-0.2441,0.8545,-0.3662,1,466,870,234
401163945,76854,-0.0376,-0.0371,1.0220,-0.4883,0.6104,-0.3662,1,466,876,234
401168928,76855,-0.0391,-0.0371,1.0225,-0.4883,0.6104,-0.3052,1,466,876,234
401173922,76856,-0.0400,-0.0381,1.0215,-0.4883,0.6104,-0.3662,1,492,866,234
401178922,76857,-0.0400,-0.0386,1.0215,-0.4883,0.6714,-0.4272,1,466,868,234
401183922,76858,-0.0391,-0.0386,1.0220,-0.5493,0.5493,-0.4883,1,493,818,234
401188928,76859,-0.0386,-0.0391,1.0205,-0.6104,0.6714,-0.4272,1,474,856,234
401193931,76860,-0.0376,-0.0400,1.0200,-0.4883,0.6714,-0.3662,1,478,841,234
401198925,76861,-0.0376,-0.0391,1.0205,-0.3662,0.5493,-0.4883,1,481,845,234
401203928,76862,-0.0386,-0.0381,1.0215,-0.4272,0.5493,-0.4272,1,473,868,234
401208927,76863,-0.0391,-0.0391,1.0234,-0.4883,0.6104,-0.4272,1,492,850,234
401213927,76864,-0.0396,-0.0405,1.0229,-0.4883,0.5493,-0.4883,1,481,840,234
401218927,76865,-0.0396,-0.0396,1.0229,-0.4883,0.5493,-0.3662,1,493,849,234
401223927,76866,-0.0396,-0.0386,1.0239,-0.6104,0.4883,-0.3662,1,511,840,234
401228926,76867,-0.0396,-0.0396,1.0225,-0.6104,0.4883,-0.2441,1,466,872,234
401233922,76868,-0.0400,-0.0420,1.0205,-0.5493,0.4883,-0.4272,1,472,930,234
401238924,76869,-0.0400,-0.0444,1.0205,-0.5493,0.3662,-0.3662,1,477,866,234
401243930,76870,-0.0391,-0.0439,1.0220,-0.3662,0.3662,-0.2441,1,477,881,234
401248930,76871,-0.0386,-0.0425,1.0215,-0.4883,0.2441,-0.3662,1,474,878,234
401253925,76872,-0.0391,-0.0420,1.0200,-0.4272,0.2441,-0.3052,1,476,858,234
401258931,76873,-0.0396,-0.0415,1.0210,-0.1831,0.1221,-0.1831,1,476,853,234
401263923,76874,-0.0400,-0.0400,1.0225,-0.3052,0.1831,-0.3052,1,483,859,234
401268928,76875,-0.0405,-0.0400,1.0210,-0.2441,0.3052,-0.3052,1,466,868,234
401273931,76876,-0.0410,-0.0415,1.0181,-0.2441,0.3052,-0.3052,1,466,868,234
401278928,76877,-0.0420,-0.0430,1.0156,0.0000,0.1831,-0.3662,1,466,870,234
401283923,76878,-0.0430,-0.0435,1.0146,0.1221,-0.1221,-0.4272,1,493,832,234
401288922,76879,-0.0425,-0.0430,1.0161,0.0610,-0.2441,-0.3052,1,479,870,234
401293928,76880,-0.0405,-0.0410,1.0195,0.1831,-0.3662,-0.3052,1,466,806,234
401298928,76881,-0.0376,-0.0391,1.0239,0.1831,-0.2441,-0.4272,1,492,802,234
401303923,76882,-0.0381,-0.0386,1.0229,0.2441,-0.4272,-0.3052,1,477,852,234
401308930,76883,-0.0391,-0.0391,1.0220,0.1221,-0.4272,-0.2441,1,481,847,234
401313929,76884,-0.0386,-0.0410,1.0220,0.0000,-0.3662,-0.3052,1,484,868,234
401318925,76885,-0.0381,-0.0410,1.0225,0.0000,-0.1831,-0.3662,1,492,799,234
401323927,76886,-0.0381,-0.0400,1.0215,-0.0610,-0.2441,-0.4272,1,506,800,234
401328930,76887,-0.0386,-0.0405,1.0215,-0.0610,-0.2441,-0.3662,1,493,833,234
401333928,76888,-0.0391,-0.0410,1.0220,0.0000,-0.1221,-0.3662,1,484,865,234
401338928,76889,-0.0391,-0.0410,1.0220,-0.0610,-0.3662,-0.2441,1,466,813,234
401343925,76890,-0.0391,-0.0420,1.0210,-0.1221,-0.2441,-0.3662,1,468,863,234
401348925,76891,-0.0396,-0.0439,1.0205,0.0610,-0.1831,-0.3662,1,474,869,234
401353930,76892,-0.0391,-0.0435,1.0225,0.1831,-0.2441,-0.3662,1,478,876,234
401358924,76893,-0.0381,-0.0415,1.0234,0.0610,-0.1221,-0.3052,1,477,858,234
401363926,76894,-0.0376,-0.0400,1.0210,0.0610,-0.1221,-0.3052,1,465,852,234
401368929,76895,-0.0386,-0.0400,1.0181,0.1831,-0.2441,-0.3052,1,483,847,234
401373926,76896,-0.0400,-0.0420,1.0186,0.2441,-0.1831,-0.3662,1,466,871,234
401378929,76897,-0.0391,-0.0425,1.0210,0.2441,-0.1831,-0.3662,1,465,880,234
401383928,76898,-0.0386,-0.0410,1.0220,0.1221,-0.2441,-0.3052,1,465,876,234
401388929,76899,-0.0400,-0.0396,1.0200,0.1831,-0.3052,-0.1831,1,493,870,234
401393923,76900,-0.0410,-0.0396,1.0186,0.0610,-0.6104,-0.3662,1,466,872,234
401398931,76901,-0.0396,-0.0410,1.0200,0.0610,-0.7324,-0.3662,1,494,795,234
401403928,76902,-0.0376,-0.0415,1.0234,0.1221,-0.6714,-0.4272,1,473,799,234
401408926,76903,-0.0381,-0.0400,1.0229,0.1221,-0.6714,-0.1831,1,473,849,234
401413927,76904,-0.0391,-0.0400,1.0205,0.1831,-0.9766,-0.1831,1,481,844,234
401418929,76905,-0.0386,-0.0410,1.0200,0.1831,-0.9155,-0.3662,1,487,844,234
401423941,76906,-0.0381,-0.0430,1.0195,0.3052,-0.7324,-0.1831,1,488,850,234
401428930,76907,-0.0386,-0.0400,1.0210,0.4883,-0.7935,-0.2441,1,480,845,234
401433924,76908,-0.0396,-0.0386,1.0215,0.2441,-0.9155,-0.1831,1,492,843,234
401438927,76909,-0.0410,-0.0405,1.0190,0.4272,-1.2207,-0.1831,1,495,840,234
401443929,76910,-0.0400,-0.0410,1.0190,0.4272,-1.4038,-0.2441,1,484,840,234
401448923,76911,-0.0386,-0.0425,1.0181,0.4272,-1.3428,-0.2441,1,467,906,234
401453925,76912,-0.0391,-0.0430,1.0156,0.5493,-1.6479,-0.1831,1,478,865,234
401458929,76913,-0.0400,-0.0400,1.0151,0.4272,-2.0752,-0.1221,1,479,878,234
401463928,76914,-0.0386,-0.0366,1.0195,0.3662,-2.5024,-0.1831,1,479,872,234
401468930,76915,-0.0361,-0.0347,1.0249,0.1221,-2.2583,-0.1831,1,481,884,234
401473928,76916,-0.0352,-0.0361,1.0264,0.0610,-2.1973,-0.0610,1,479,865,234
401478929,76917,-0.0342,-0.0391,1.0264,-0.0610,-2.3804,-0.1221,1,484,857,234
401483922,76918,-0.0332,-0.0400,1.0259,0.0610,-2.2583,-0.1221,1,466,867,234
401488922,76919,-0.0337,-0.0386,1.0249,0.0000,-2.1973,0.0000,1,465,877,234
401493930,76920,-0.0322,-0.0396,1.0249,-0.0610,-2.0752,-0.0610,1,465,788,234
401498931,76921,-0.0317,-0.0430,1.0239,0.0610,-1.5259,0.0000,1,492,875,234
401503931,76922,-0.0371,-0.0415,1.0205,0.0610,-1.3428,-0.0610,1,467,830,234
401508925,76923,-0.0410,-0.0405,1.0176,-0.1221,-2.0142,-0.0610,1,490,876,234
401513929,76924,-0.0386,-0.0415,1.0176,0.1221,-2.0752,-0.0610,1,464,852,234
401518922,76925,-0.0376,-0.0410,1.0186,0.3662,-1.9531,-0.1221,1,492,843,234
401523929,76926,-0.0366,-0.0425,1.0200,0.2441,-2.0752,-0.1221,1,483,849,234
401528923,76927,-0.0342,-0.0439,1.0220,0.3662,-2.0142,-0.1221,1,487,872,234
401533925,76928,-0.0322,-0.0430,1.0225,0.5493,-1.8311,-0.3052,1,479,846,234
401538924,76929,-0.0327,-0.0415,1.0225,0.5493,-1.7090,-0.1831,1,504,845,234
401543930,76930,-0.0337,-0.0410,1.0215,0.4883,-1.7700,-0.1831,1,492,841,234
401548927,76931,-0.0337,-0.0420,1.0205,0.5493,-1.7700,-0.2441,1,511,836,234
401553922,76932,-0.0347,-0.0439,1.0195,0.6714,-1.5259,-0.2441,1,467,907,234
401558922,76933,-0.0356,-0.0444,1.0195,0.7935,-1.7090,-0.1831,1,475,870,234
401563922,76934,-0.0347,-0.0435,1.0210,1.0376,-1.7090,-0.3662,1,479,872,234
401568931,76935,-0.0332,-0.0420,1.0220,1.0986,-1.5259,-0.3662,1,481,870,234
401573928,76936,-0.0332,-0.0400,1.0225,0.9766,-1.4038,-0.3052,1,475,863,234
401578927,76937,-0.0342,-0.0400,1.0234,1.0376,-1.4648,-0.2441,1,478,883,234
401583929,76938,-0.0347,-0.0415,1.0244,0.9766,-1.5259,-0.3662,1,483,862,234
401588925,76939,-0.0332,-0.0400,1.0254,0.9766,-1.4038,-0.4272,1,466,879,234
401593926,76940,-0.0322,-0.0371,1.0273,0.9766,-1.2817,-0.3662,1,465,877,234
401598929,76941,-0.0317,-0.0352,1.0283,0.7324,-1.1597,-0.4272,1,466,885,234
401603930,76942,-0.0312,-0.0356,1.0288,0.6714,-0.9155,-0.3052,1,492,883,234
401608928,76943,-0.0312,-0.0371,1.0293,0.6104,-0.6714,-0.2441,1,493,903,234
401613929,76944,-0.0322,-0.0381,1.0273,0.4883,-0.5493,-0.2441,1,483,900,234
401618925,76945,-0.0317,-0.0386,1.0244,0.4272,-0.4272,-0.3052,1,464,806,234
401623927,76946,-0.0332,-0.0386,1.0225,0.4883,-0.2441,-0.3052,1,481,861,234
401628923,76947,-0.0352,-0.0381,1.0205,0.5493,-0.3662,-0.2441,1,485,847,234
401633923,76948,-0.0337,-0.0391,1.0215,0.3052,-0.5493,-0.1831,1,476,851,234
401638927,76949,-0.0317,-0.0400,1.0220,0.4272,-0.4272,-0.2441,1,487,843,234
401643929,76950,-0.0322,-0.0405,1.0229,0.6104,-0.4272,-0.3662,1,485,851,234
401648928,76951,-0.0322,-0.0415,1.0244,0.6714,-0.4272,-0.4272,1,506,852,234
401653930,76952,-0.0322,-0.0405,1.0244,0.7935,-0.3662,-0.3662,1,506,844,234
401658927,76953,-0.0327,-0.0400,1.0229,0.6104,-0.3052,-0.3052,1,465,825,234
401663925,76954,-0.0332,-0.0405,1.0215,0.7935,-0.1221,-0.3662,1,466,930,234
401668923,76955,-0.0337,-0.0396,1.0205,0.7935,-0.1831,-0.4883,1,468,866,234
401673922,76956,-0.0332,-0.0396,1.0210,0.6714,-0.1831,-0.6104,1,476,866,234
401678928,76957,-0.0322,-0.0391,1.0215,0.7935,-0.3052,-0.3662,1,478,872,234
401683924,76958,-0.0317,-0.0376,1.0225,0.8545,-0.1221,-0.4272,1,476,853,234
401688925,76959,-0.0317,-0.0376,1.0234,0.7935,0.0000,-0.3662,1,479,857,234
401693923,76960,-0.0322,-0.0376,1.0234,0.7935,0.0000,-0.4272,1,484,816,234
401698928,76961,-0.0317,-0.0371,1.0239,0.7324,0.0610,-0.3662,1,466,835,234
401703947,76962,-0.0288,-0.0366,1.0249,0.7935,0.1831,-0.4272,1,466,884,234
401708929,76963,-0.0278,-0.0361,1.0259,0.7935,0.4272,-0.4272,1,466,885,234
401713929,76964,-0.0293,-0.0381,1.0249,0.5493,0.6714,-0.4272,1,492,882,234
401718923,76965,-0.0308,-0.0400,1.0229,0.4883,0.6714,-0.4272,1,466,877,234
401723929,76966,-0.0322,-0.0391,1.0229,0.6104,0.7935,-0.4883,1,493,796,234
401728925,76967,-0.0327,-0.0376,1.0229,0.5493,0.7935,-0.4883,1,478,853,234
401733924,76968,-0.0327,-0.0366,1.0234,0.4883,0.9766,-0.4272,1,492,861,234
401738929,76969,-0.0317,-0.0371,1.0229,0.4883,1.0986,-0.4883,1,480,853,234
401743932,76970,-0.0308,-0.0366,1.0229,0.6714,1.2207,-0.4883,1,474,874,234
401748929,76971,-0.0312,-0.0361,1.0234,0.4883,1.3428,-0.5493,1,483,848,234
401753925,76972,-0.0327,-0.0361,1.0225,0.4272,1.2207,-0.5493,1,495,879,234
401758924,76973,-0.0342,-0.0366,1.0220,0.4272,1.4648,-0.4883,1,496,845,234
401763922,76974,-0.0352,-0.0381,1.0220,0.4272,1.5259,-0.4883,1,484,869,234
401768923,76975,-0.0356,-0.0386,1.0210,0.4272,1.5259,-0.4272,1,477,901,234
401773931,76976,-0.0361,-0.0366,1.0205,0.3662,1.4038,-0.4883,1,480,869,234
401778923,76977,-0.0361,-0.0352,1.0205,0.2441,1.3428,-0.5493,1,474,871,234
401783928,76978,-0.0352,-0.0356,1.0210,0.3052,1.1597,-0.4883,1,466,834,234
401788922,76979,-0.0347,-0.0356,1.0220,0.1831,1.1597,-0.4883,1,482,854,234
401793926,76980,-0.0342,-0.0366,1.0229,0.1221,1.0986,-0.4883,1,465,860,234
401798922,76981,-0.0342,-0.0371,1.0225,0.0610,0.9766,-0.4883,1,484,859,234
401803927,76982,-0.0356,-0.0366,1.0210,0.0000,0.8545,-0.4883,1,465,872,234
401808928,76983,-0.0371,-0.0356,1.0200,0.0000,0.6104,-0.4272,1,466,830,234
401813950,76984,-0.0356,-0.0366,1.0205,0.0000,0.4883,-0.3052,1,466,829,234
401818926,76985,-0.0342,-0.0381,1.0210,0.0000,0.5493,-0.3052,1,466,830,234
401823922,76986,-0.0342,-0.0381,1.0225,-0.1831,0.4883,-0.4272,1,493,824,234
401828924,76987,-0.0342,-0.0371,1.0234,-0.1221,0.3662,-0.3662,1,488,875,234
401833930,76988,-0.0337,-0.0361,1.0220,-0.1221,0.4883,-0.3052,1,466,805,234
401838925,76989,-0.0347,-0.0361,1.0205,-0.3052,0.3052,-0.3662,1,475,823,234
401843929,76990,-0.0342,-0.0371,1.0205,-0.2441,0.3662,-0.3662,1,476,844,234
401848929,76991,-0.0332,-0.0376,1.0220,-0.0610,0.2441,-0.4272,1,478,854,234
401853928,76992,-0.0327,-0.0366,1.0229,-0.0610,0.3052,-0.3662,1,486,871,234
401858928,76993,-0.0332,-0.0361,1.0229,-0.0610,0.3052,-0.3662,1,492,850,234
401863923,76994,-0.0347,-0.0371,1.0215,-0.0610,0.3052,-0.4883,1,497,850,234
401868924,76995,-0.0361,-0.0366,1.0205,-0.0610,0.1831,-0.4883,1,492,831,234
401873922,76996,-0.0356,-0.0352,1.0210,-0.3052,0.1221,-0.4272,1,511,840,234
401878930,76997,-0.0327,-0.0356,1.0225,-0.3662,0.1221,-0.3662,1,468,895,234
401883924,76998,-0.0312,-0.0376,1.0239,-0.3662,0.1221,-0.3052,1,481,921,234
401888925,76999,-0.0308,-0.0376,1.0254,-0.4883,0.1831,-0.3662,1,466,888,234
401893926,77000,-0.0308,-0.0376,1.0259,-0.6104,0.1831,-0.4272,1,466,873,234
401898925,77001,-0.0317,-0.0376,1.0249,-0.4883,0.3052,-0.4272,1,467,856,234
401903922,77002,-0.0322,-0.0376,1.0234,-0.5493,0.3052,-0.4272,1,468,859,234
401908931,77003,-0.0317,-0.0381,1.0229,-0.5493,0.1831,-0.3052,1,483,863,234
401913925,77004,-0.0322,-0.0381,1.0225,-0.5493,0.3052,-0.2441,1,483,861,234
401918924,77005,-0.0322,-0.0381,1.0215,-0.6714,0.3662,-0.2441,1,466,877,234
401923939,77006,-0.0327,-0.0376,1.0215,-0.7324,0.3052,-0.3052,1,466,879,234
401928926,77007,-0.0342,-0.0381,1.0229,-0.6714,0.2441,-0.3052,1,466,871,234
401933925,77008,-0.0356,-0.0391,1.0225,-0.6104,0.3052,-0.3052,1,493,874,234
401938928,77009,-0.0352,-0.0386,1.0220,-0.7324,0.2441,-0.1831,1,483,864,234
401943930,77010,-0.0337,-0.0371,1.0229,-0.7935,0.3052,-0.2441,1,494,880,234
401948923,77011,-0.0322,-0.0381,1.0239,-0.7324,0.1831,-0.1221,1,464,832,234
401953928,77012,-0.0317,-0.0396,1.0239,-0.7324,0.1221,-0.2441,1,478,850,234
401958922,77013,-0.0322,-0.0400,1.0225,-0.6714,0.3662,-0.2441,1,478,853,234
401963925,77014,-0.0337,-0.0391,1.0205,-0.6104,0.2441,-0.1831,1,490,871,234
401968928,77015,-0.0347,-0.0391,1.0200,-0.5493,0.2441,-0.1221,1,476,845,234
401973923,77016,-0.0347,-0.0405,1.0215,-0.4883,0.3052,-0.2441,1,494,842,234
401978923,77017,-0.0342,-0.0420,1.0234,-0.4883,0.2441,-0.3662,1,492,833,234
401983928,77018,-0.0337,-0.0420,1.0249,-0.4883,0.3662,-0.3052,1,511,840,234
401988929,77019,-0.0327,-0.0410,1.0254,-0.4883,0.4272,-0.4272,1,465,901,234
401993926,77020,-0.0332,-0.0405,1.0239,-0.3052,0.5493,-0.3052,1,479,920,234
401998930,77021,-0.0352,-0.0405,1.0210,-0.3052,0.4883,-0.3662,1,482,865,234
402003929,77022,-0.0366,-0.0405,1.0181,-0.3052,0.3662,-0.3662,1,480,861,234
402008923,77023,-0.0356,-0.0400,1.0190,-0.1831,0.3052,-0.3052,1,482,874,234
402013931,77024,-0.0332,-0.0396,1.0225,-0.1221,0.2441,-0.3662,1,467,854,234
402018929,77025,-0.0317,-0.0396,1.0244,-0.1221,0.2441,-0.3052,1,478,860,234
402023925,77026,-0.0327,-0.0391,1.0234,-0.1831,0.2441,-0.3052,1,483,858,234
402028923,77027,-0.0342,-0.0400,1.0205,-0.3052,0.3662,-0.3052,1,466,881,234
402033938,77028,-0.0332,-0.0405,1.0195,-0.3052,0.1831,-0.3662,1,466,871,234
402038954,77029,-0.0317,-0.0405,1.0205,-0.0610,0.4272,-0.3052,1,465,881,234
402043927,77030,-0.0332,-0.0405,1.0220,-0.0610,0.5493,-0.3662,1,466,874,234
402048931,77031,-0.0352,-0.0405,1.0225,-0.0610,0.4272,-0.4272,1,493,881,234
402053930,77032,-0.0352,-0.0405,1.0225,0.0000,0.3052,-0.3662,1,483,875,234
402058928,77033,-0.0332,-0.0405,1.0229,0.1221,0.2441,-0.2441,1,465,799,234
402063924,77034,-0.0322,-0.0415,1.0234,0.1221,0.2441,-0.3662,1,478,864,234
402068929,77035,-0.0327,-0.0425,1.0229,0.2441,0.1831,-0.3052,1,483,854,234
402073927,77036,-0.0347,-0.0430,1.0215,0.3052,0.2441,-0.2441,1,483,852,234
402078935,77037,-0.0352,-0.0430,1.0210,0.3662,0.3662,-0.2441,1,479,867,234
402083927,77038,-0.0342,-0.0415,1.0210,0.3052,0.4272,-0.4272,1,478,848,234
402088922,77039,-0.0327,-0.0396,1.0215,0.3662,0.2441,-0.3052,1,490,845,234
402093923,77040,-0.0322,-0.0386,1.0220,0.4272,0.3662,-0.3662,1,496,837,234
402098929,77041,-0.0347,-0.0376,1.0215,0.4883,0.1831,-0.3052,1,484,842,234
402103923,77042,-0.0347,-0.0386,1.0215,0.3662,0.2441,-0.3662,1,465,899,234
402108927,77043,-0.0347,-0.0391,1.0210,0.4272,0.3662,-0.3662,1,475,869,234
402113930,77044,-0.0342,-0.0391,1.0210,0.4272,0.3052,-0.3662,1,472,873,234
402118927,77045,-0.0337,-0.0386,1.0215,0.4272,0.3052,-0.3052,1,471,869,234
402123931,77046,-0.0337,-0.0386,1.0229,0.4272,0.3662,-0.3052,1,479,851,234
402128927,77047,-0.0337,-0.0391,1.0239,0.3662,0.2441,-0.1831,1,477,859,234
402133928,77048,-0.0342,-0.0396,1.0239,0.4272,0.2441,-0.2441,1,483,862,234
402138923,77049,-0.0347,-0.0396,1.0234,0.4272,0.3662,-0.2441,1,466,882,234
402143929,77050,-0.0342,-0.0391,1.0220,0.4272,0.3052,-0.3052,1,466,883,234
402148939,77051,-0.0337,-0.0381,1.0210,0.3662,0.3052,-0.3052,1,466,868,234
402153922,77052,-0.0332,-0.0391,1.0210,0.4272,0.2441,-0.4272,1,466,866,234
402158924,77053,-0.0347,-0.0405,1.0210,0.5493,0.2441,-0.4272,1,494,877,234
402163922,77054,-0.0361,-0.0405,1.0205,0.6104,0.3662,-0.3052,1,488,878,234
402168930,77055,-0.0352,-0.0396,1.0195,0.6714,0.1221,-0.3662,1,464,770,234
402173925,77056,-0.0332,-0.0391,1.0195,0.7935,0.1221,-0.3662,1,479,819,234
402178922,77057,-0.0327,-0.0386,1.0195,0.7324,0.2441,-0.3662,1,483,846,234
402183930,77058,-0.0332,-0.0376,1.0205,0.7935,0.1831,-0.5493,1,491,857,234
402188926,77059,-0.0342,-0.0376,1.0220,0.7324,0.2441,-0.4883,1,471,852,234
402193928,77060,-0.0347,-0.0386,1.0215,0.7324,0.3052,-0.4272,1,488,848,234
402198931,77061,-0.0347,-0.0391,1.0210,0.7324,0.1831,-0.4272,1,508,846,234
402203924,77062,-0.0332,-0.0391,1.0220,0.6714,0.1831,-0.4272,1,498,836,234
402208929,77063,-0.0317,-0.0400,1.0234,0.5493,0.2441,-0.3662,1,465,873,234
402213929,77064,-0.0317,-0.0400,1.0229,0.6714,0.3052,-0.4272,1,476,910,234
402218929,77065,-0.0332,-0.0361,1.0234,0.5493,0.1831,-0.3662,1,476,865,234
402223923,77066,-0.0347,-0.0342,1.0229,0.3662,0.3052,-0.3052,1,477,877,234
402228924,77067,-0.0347,-0.0361,1.0220,0.4272,0.3052,-0.4272,1,481,870,234
402233931,77068,-0.0342,-0.0391,1.0210,0.3052,0.1221,-0.4883,1,465,858,234
402238926,77069,-0.0347,-0.0396,1.0210,0.3662,0.0610,-0.3662,1,482,844,234
402243922,77070,-0.0352,-0.0391,1.0225,0.4272,0.1831,-0.1831,1,484,857,234
402248924,77071,-0.0347,-0.0391,1.0220,0.4272,0.1221,-0.2441,1,465,876,234
402253929,77072,-0.0347,-0.0400,1.0210,0.4883,0.1831,-0.3052,1,466,872,234
402258946,77073,-0.0356,-0.0396,1.0210,0.3662,0.0610,-0.3052,1,465,870,234
402263926,77074,-0.0356,-0.0376,1.0205,0.3052,0.0000,-0.2441,1,466,871,234
402268929,77075,-0.0342,-0.0371,1.0205,0.3662,0.0000,-0.3662,1,494,830,234
402273928,77076,-0.0332,-0.0376,1.0210,0.4272,0.0610,-0.3662,1,484,782,234
402278928,77077,-0.0327,-0.0381,1.0205,0.3662,0.0610,-0.3662,1,494,874,234
402283922,77078,-0.0327,-0.0376,1.0200,0.1831,0.0000,-0.2441,1,471,858,234
402288926,77079,-0.0342,-0.0366,1.0205,0.1831,0.1221,-0.3052,1,486,806,234
402293925,77080,-0.0352,-0.0371,1.0210,0.1831,0.1831,-0.3662,1,487,845,234
402298938,77081,-0.0352,-0.0386,1.0210,0.1221,0.1221,-0.3662,1,471,851,234
402303925,77082,-0.0342,-0.0400,1.0210,0.3052,0.1221,-0.3662,1,488,840,234
402308930,77083,-0.0347,-0.0405,1.0205,0.3662,0.2441,-0.3662,1,499,838,234
402313923,77084,-0.0361,-0.0386,1.0210,0.2441,0.1221,-0.4272,1,491,841,234
402318926,77085,-0.0366,-0.0366,1.0205,0.1831,0.0610,-0.3662,1,511,789,234
402323923,77086,-0.0356,-0.0366,1.0200,0.1831,0.0000,-0.2441,1,472,909,234
402328929,77087,-0.0356,-0.0376,1.0200,0.2441,-0.0610,-0.3052,1,479,826,234
402333930,77088,-0.0356,-0.0386,1.0215,0.3662,-0.1221,-0.3052,1,475,872,234
402338925,77089,-0.0347,-0.0396,1.0220,0.3662,0.0000,-0.3662,1,476,871,234
402343924,77090,-0.0337,-0.0391,1.0225,0.3052,0.0610,-0.3052,1,482,813,234
402348930,77091,-0.0337,-0.0391,1.0225,0.1831,0.0610,-0.3052,1,482,846,234
402353930,77092,-0.0342,-0.0400,1.0225,0.1831,0.1221,-0.3662,1,483,851,234
402358924,77093,-0.0337,-0.0410,1.0234,0.3052,-0.0610,-0.3662,1,466,873,234
402363929,77094,-0.0332,-0.0396,1.0229,0.2441,-0.1221,-0.3662,1,466,874,234
402368950,77095,-0.0332,-0.0391,1.0215,0.3052,-0.0610,-0.2441,1,466,881,234
402373928,77096,-0.0342,-0.0396,1.0200,0.3662,0.0000,-0.3052,1,465,874,234
402378923,77097,-0.0356,-0.0400,1.0195,0.3662,-0.0610,-0.3052,1,492,826,234
402383923,77098,-0.0361,-0.0396,1.0205,0.3662,-0.1221,-0.3662,1,466,874,234
402388928,77099,-0.0352,-0.0391,1.0220,0.4883,-0.1221,-0.4272,1,494,823,234
402393925,77100,-0.0337,-0.0386,1.0225,0.5493,-0.1221,-0.3662,1,478,851,234
402398928,77101,-0.0337,-0.0386,1.0225,0.6104,-0.2441,-0.3662,1,489,848,234
402403929,77102,-0.0352,-0.0376,1.0225,0.6104,-0.1831,-0.3662,1,492,847,234
402408940,77103,-0.0356,-0.0366,1.0220,0.7935,-0.2441,-0.3662,1,480,867,234
402413929,77104,-0.0347,-0.0371,1.0220,0.7324,-0.3052,-0.3662,1,490,854,234
402418925,77105,-0.0342,-0.0386,1.0220,0.7324,-0.2441,-0.3662,1,508,848,234
402423927,77106,-0.0337,-0.0391,1.0229,0.7935,-0.2441,-0.2441,1,503,840,234
402428923,77107,-0.0337,-0.0381,1.0225,0.6714,-0.2441,-0.3052,1,484,839,234
402433927,77108,-0.0332,-0.0371,1.0225,0.7324,-0.2441,-0.3662,1,483,897,234
402438929,77109,-0.0337,-0.0356,1.0234,0.6714,-0.1831,-0.2441,1,482,875,234
402443923,77110,-0.0342,-0.0356,1.0234,0.5493,-0.1831,-0.3052,1,482,873,234
402448928,77111,-0.0337,-0.0381,1.0229,0.4883,-0.1831,-0.3052,1,468,879,234
402453927,77112,-0.0332,-0.0391,1.0229,0.5493,-0.0610,-0.4272,1,465,855,234
402458929,77113,-0.0327,-0.0371,1.0244,0.6714,-0.0610,-0.3662,1,465,860,234
402463924,77114,-0.0327,-0.0352,1.0244,0.4883,-0.0610,-0.3052,1,483,864,234
402468928,77115,-0.0327,-0.0347,1.0225,0.4272,0.0000,-0.3052,1,466,874,234
402473927,77116,-0.0327,-0.0352,1.0210,0.5493,0.0610,-0.2441,1,466,829,234
402478937,77117,-0.0332,-0.0371,1.0195,0.3662,0.0610,-0.1831,1,466,877,234
402483926,77118,-0.0337,-0.0391,1.0176,0.4272,0.1221,-0.3052,1,466,884,234
402488928,77119,-0.0347,-0.0391,1.0186,0.4883,0.1221,-0.3662,1,493,867,234
402493930,77120,-0.0342,-0.0381,1.0220,0.4272,0.0610,-0.3052,1,483,868,234
402498923,77121,-0.0337,-0.0371,1.0234,0.3662,0.0610,-0.3662,1,464,812,234
402503924,77122,-0.0327,-0.0366,1.0229,0.3662,0.0610,-0.3662,1,480,815,234
402508927,77123,-0.0327,-0.0366,1.0220,0.4883,-0.0610,-0.3052,1,482,855,234
402513928,77124,-0.0337,-0.0361,1.0205,0.3662,0.0000,-0.3052,1,478,846,234
402518925,77125,-0.0342,-0.0366,1.0195,0.2441,0.1221,-0.4272,1,487,800,234
402523929,77126,-0.0337,-0.0371,1.0195,0.3662,-0.0610,-0.3662,1,478,850,234
402528922,77127,-0.0327,-0.0371,1.0205,0.3052,-0.0610,-0.3662,1,497,853,234
402533928,77128,-0.0312,-0.0366,1.0205,0.3662,-0.2441,-0.3662,1,511,837,234
402538929,77129,-0.0317,-0.0366,1.0205,0.3052,-0.0610,-0.3662,1,465,853,234
402543927,77130,-0.0327,-0.0361,1.0210,0.3662,0.0000,-0.4272,1,483,903,234
402548928,77131,-0.0332,-0.0342,1.0225,0.2441,-0.0610,-0.3662,1,465,826,234
402553924,77132,-0.0327,-0.0347,1.0229,0.2441,0.0610,-0.3052,1,466,878,234
402558926,77133,-0.0332,-0.0356,1.0220,0.3662,-0.0610,-0.3662,1,470,875,234
402563922,77134,-0.0337,-0.0366,1.0220,0.2441,0.0610,-0.3662,1,472,865,234
402568927,77135,-0.0337,-0.0371,1.0225,0.1831,0.1221,-0.4883,1,473,861,234
402573930,77136,-0.0332,-0.0361,1.0234,0.1831,0.0000,-0.4272,1,484,857,234
402578923,77137,-0.0337,-0.0352,1.0229,0.1831,0.1221,-0.4883,1,466,839,234
402583924,77138,-0.0332,-0.0356,1.0229,0.0610,0.1221,-0.3662,1,466,876,234
402588948,77139,-0.0327,-0.0356,1.0229,0.1831,0.1221,-0.3662,1,466,880,234
402593931,77140,-0.0327,-0.0352,1.0229,0.1221,0.0610,-0.3662,1,466,883,234
402598924,77141,-0.0327,-0.0361,1.0234,0.0610,0.1831,-0.4272,1,493,878,234
402603929,77142,-0.0332,-0.0376,1.0239,-0.0610,0.0610,-0.4272,1,488,884,234
402608926,77143,-0.0332,-0.0376,1.0234,0.0000,0.0610,-0.4272,1,466,774,234
402613930,77144,-0.0337,-0.0371,1.0229,0.0610,0.1221,-0.3662,1,475,804,234
402618924,77145,-0.0322,-0.0366,1.0220,-0.0610,0.1221,-0.3662,1,478,850,234
402623930,77146,-0.0312,-0.0361,1.0229,-0.0610,0.3052,-0.3052,1,490,848,234
402628926,77147,-0.0317,-0.0361,1.0239,-0.1221,0.0610,-0.3052,1,490,869,234
402633930,77148,-0.0322,-0.0366,1.0244,-0.0610,0.3052,-0.3662,1,487,845,234
402638927,77149,-0.0327,-0.0371,1.0239,0.0610,0.2441,-0.3662,1,480,849,234
402643930,77150,-0.0332,-0.0366,1.0229,-0.1221,0.3052,-0.3662,1,504,845,234
402648922,77151,-0.0342,-0.0361,1.0225,-0.1221,0.1831,-0.2441,1,465,876,234
402653926,77152,-0.0337,-0.0371,1.0229,-0.1831,0.1221,-0.3662,1,474,930,234
402658928,77153,-0.0327,-0.0376,1.0234,-0.1831,0.1831,-0.3662,1,472,871,234
402663928,77154,-0.0322,-0.0361,1.0225,-0.1221,0.3052,-0.3662,1,475,885,234
402668924,77155,-0.0327,-0.0356,1.0205,-0.1221,0.3052,-0.2441,1,478,874,234
402673928,77156,-0.0342,-0.0376,1.0195,-0.1221,0.2441,-0.3052,1,466,859,234
402678928,77157,-0.0352,-0.0381,1.0200,-0.1831,0.2441,-0.3052,1,478,854,234
402683922,77158,-0.0352,-0.0366,1.0195,-0.0610,0.1831,-0.3052,1,466,855,234
402688922,77159,-0.0342,-0.0361,1.0190,-0.1221,0.1221,-0.3662,1,466,876,234
402693927,77160,-0.0327,-0.0361,1.0210,-0.2441,0.1221,-0.3052,1,466,874,234
402698927,77161,-0.0317,-0.0371,1.0239,-0.1221,0.1831,-0.3662,1,466,874,234
402703926,77162,-0.0322,-0.0371,1.0259,-0.1831,0.3052,-0.3662,1,492,883,234
402708922,77163,-0.0337,-0.0361,1.0254,-0.1831,0.1831,-0.3052,1,469,881,234
402713922,77164,-0.0347,-0.0356,1.0225,-0.1831,0.3052,-0.3052,1,494,877,234
402718927,77165,-0.0347,-0.0361,1.0215,-0.1831,0.3052,-0.3052,1,465,853,234
402723930,77166,-0.0342,-0.0366,1.0225,-0.1831,0.2441,-0.3662,1,489,845,234
402728924,77167,-0.0332,-0.0366,1.0225,-0.1831,0.3052,-0.3052,1,475,854,234
402733942,77168,-0.0327,-0.0361,1.0220,-0.1831,0.1831,-0.1831,1,492,867,234
402738931,77169,-0.0332,-0.0366,1.0220,-0.2441,0.1831,-0.3052,1,480,883,234
402743923,77170,-0.0332,-0.0366,1.0215,-0.2441,0.2441,-0.3052,1,489,852,234
402748923,77171,-0.0332,-0.0366,1.0215,-0.2441,0.2441,-0.3052,1,500,842,234
402753925,77172,-0.0327,-0.0371,1.0220,-0.2441,0.1221,-0.3662,1,465,832,234
402758925,77173,-0.0317,-0.0366,1.0220,-0.2441,0.1831,-0.3052,1,466,919,234
402763928,77174,-0.0308,-0.0356,1.0220,-0.3052,0.3052,-0.4272,1,465,869,234
402768922,77175,-0.0317,-0.0366,1.0210,-0.3662,0.3662,-0.3052,1,467,861,234
402773930,77176,-0.0327,-0.0366,1.0210,-0.2441,0.3052,-0.3052,1,477,877,234
402778922,77177,-0.0342,-0.0371,1.0215,-0.1221,0.3662,-0.3662,1,474,856,234
402783929,77178,-0.0347,-0.0376,1.0220,-0.3052,0.2441,-0.4272,1,478,860,234
402788929,77179,-0.0342,-0.0366,1.0225,-0.1831,0.1831,-0.4272,1,484,857,234
402793928,77180,-0.0332,-0.0356,1.0239,-0.3052,0.3052,-0.2441,1,466,883,234
402798922,77181,-0.0327,-0.0356,1.0254,-0.3052,0.2441,-0.1831,1,466,878,234
402803927,77182,-0.0322,-0.0381,1.0239,-0.3662,0.3052,-0.3052,1,466,881,234
402808930,77183,-0.0327,-0.0386,1.0220,-0.1831,0.4272,-0.2441,1,466,873,234
402813928,77184,-0.0332,-0.0376,1.0220,-0.1221,0.4272,-0.3662,1,492,882,234
402818927,77185,-0.0332,-0.0371,1.0215,-0.2441,0.3662,-0.3052,1,472,877,234
402823927,77186,-0.0322,-0.0381,1.0215,-0.2441,0.3662,-0.3052,1,494,800,234
402828929,77187,-0.0317,-0.0391,1.0229,-0.3662,0.3662,-0.1831,1,483,856,234
402833930,77188,-0.0322,-0.0391,1.0234,-0.3052,0.3662,-0.3052,1,488,853,234
402838924,77189,-0.0332,-0.0381,1.0220,-0.1831,0.5493,-0.2441,1,492,844,234
402843941,77190,-0.0337,-0.0371,1.0200,-0.1831,0.4272,-0.1831,1,478,852,234
402848926,77191,-0.0347,-0.0376,1.0190,-0.1221,0.3662,-0.2441,1,481,852,234
402853931,77192,-0.0352,-0.0386,1.0200,-0.1221,0.3662,-0.4272,1,503,848,234
402858927,77193,-0.0347,-0.0400,1.0220,-0.0610,0.3052,-0.3052,1,496,834,234
402863928,77194,-0.0337,-0.0400,1.0229,-0.1221,0.3662,-0.2441,1,511,770,234
402868931,77195,-0.0327,-0.0386,1.0234,-0.1221,0.4272,-0.2441,1,476,903,234
402873924,77196,-0.0322,-0.0381,1.0229,0.0000,0.3662,-0.2441,1,475,871,234
402878926,77197,-0.0327,-0.0376,1.0225,-0.1221,0.2441,-0.3052,1,482,835,234
402883922,77198,-0.0332,-0.0366,1.0225,-0.0610,0.1831,-0.3052,1,480,872,234
402888926,77199,-0.0337,-0.0361,1.0234,-0.1221,0.2441,-0.3052,1,467,859,234
402893927,77200,-0.0322,-0.0376,1.0234,-0.2441,0.4272,-0.2441,1,465,858,234
402898928,77201,-0.0327,-0.0376,1.0215,-0.1831,0.4272,-0.2441,1,484,867,234
402903925,77202,-0.0337,-0.0366,1.0200,-0.3662,0.4883,-0.3052,1,466,882,234
402908930,77203,-0.0332,-0.0366,1.0215,-0.4272,0.3662,-0.3052,1,466,875,234
402913924,77204,-0.0327,-0.0371,1.0234,-0.1831,0.5493,-0.2441,1,466,881,234
402918928,77205,-0.0327,-0.0371,1.0225,-0.1221,0.4272,-0.1831,1,466,888,234
402923922,77206,-0.0332,-0.0371,1.0220,-0.3052,0.4272,-0.2441,1,466,881,234
402928927,77207,-0.0332,-0.0381,1.0220,-0.3052,0.5493,-0.3052,1,465,880,234
402933927,77208,-0.0322,-0.0381,1.0225,-0.3662,0.6104,-0.1831,1,494,869,234
402938922,77209,-0.0322,-0.0381,1.0220,-0.4272,0.6104,-0.1831,1,464,801,234
402943927,77210,-0.0337,-0.0391,1.0215,-0.3662,0.7324,-0.1831,1,489,828,234
402948928,77211,-0.0347,-0.0400,1.0215,-0.1831,0.7324,-0.0610,1,483,850,234
402953931,77212,-0.0352,-0.0400,1.0210,-0.1831,0.6714,-0.0610,1,488,847,234
402958922,77213,-0.0342,-0.0396,1.0220,-0.3052,0.6104,-0.2441,1,490,869,234
402963925,77214,-0.0327,-0.0391,1.0234,-0.1221,0.6104,-0.1831,1,504,841,234
402968924,77215,-0.0327,-0.0391,1.0239,-0.1831,0.4883,-0.1831,1,478,834,234
402973923,77216,-0.0342,-0.0396,1.0225,-0.2441,0.7324,-0.2441,1,511,839,234
402978924,77217,-0.0347,-0.0405,1.0215,-0.1831,0.6104,-0.1831,1,465,851,234
402983922,77218,-0.0352,-0.0410,1.0205,-0.1831,0.6714,-0.2441,1,465,930,234
402988923,77219,-0.0342,-0.0410,1.0205,0.0000,0.5493,-0.2441,1,467,868,234
402993926,77220,-0.0322,-0.0396,1.0205,0.0000,0.4272,-0.3662,1,469,832,234
402998927,77221,-0.0317,-0.0376,1.0220,0.0000,0.5493,-0.3662,1,467,816,234
403003924,77222,-0.0327,-0.0376,1.0234,0.0000,0.5493,-0.3052,1,468,816,234
403008925,77223,-0.0337,-0.0381,1.0225,0.0610,0.4883,-0.2441,1,467,814,234
403013926,77224,-0.0352,-0.0376,1.0210,0.0610,0.5493,-0.2441,1,483,854,234
403018925,77225,-0.0352,-0.0386,1.0215,0.0000,0.4883,-0.2441,1,466,874,234
403023922,77226,-0.0337,-0.0410,1.0225,0.0610,0.4272,-0.1221,1,466,829,234
403028930,77227,-0.0332,-0.0410,1.0225,0.0000,0.4883,-0.1831,1,466,871,234
403033927,77228,-0.0337,-0.0405,1.0220,0.1221,0.4272,-0.2441,1,465,833,234
403038929,77229,-0.0347,-0.0400,1.0210,0.0000,0.4272,-0.3052,1,492,877,234
403043925,77230,-0.0347,-0.0405,1.0195,0.1221,0.2441,-0.2441,1,466,752,234
403048926,77231,-0.0337,-0.0400,1.0200,0.1831,0.3052,-0.2441,1,492,878,234
403053931,77232,-0.0332,-0.0391,1.0215,0.1831,0.3052,-0.2441,1,464,826,234
403058926,77233,-0.0332,-0.0386,1.0225,0.1221,0.3052,-0.3052,1,481,846,234
403063929,77234,-0.0337,-0.0391,1.0229,0.0000,0.4272,-0.3052,1,492,839,234
403068934,77235,-0.0347,-0.0386,1.0239,0.0000,0.4272,-0.2441,1,477,797,234
403073924,77236,-0.0347,-0.0381,1.0234,0.1221,0.4272,-0.1831,1,477,805,234
403078928,77237,-0.0347,-0.0376,1.0220,0.0610,0.4272,-0.2441,1,504,846,234
403083927,77238,-0.0347,-0.0381,1.0215,0.0610,0.3662,-0.3052,1,478,837,234
403088926,77239,-0.0347,-0.0386,1.0220,0.0000,0.3662,-0.3662,1,511,782,234
403093927,77240,-0.0342,-0.0381,1.0225,0.0000,0.4272,-0.2441,1,467,821,234
403098923,77241,-0.0327,-0.0381,1.0220,-0.1221,0.4272,-0.0610,1,467,827,234
403103930,77242,-0.0322,-0.0376,1.0220,-0.0610,0.5493,-0.2441,1,468,871,234
403108930,77243,-0.0327,-0.0371,1.0234,-0.1221,0.4883,-0.2441,1,482,870,234
403113929,77244,-0.0337,-0.0376,1.0239,-0.0610,0.3662,-0.2441,1,482,880,234
403118930,77245,-0.0332,-0.0366,1.0225,-0.0610,0.4883,-0.2441,1,483,861,234
403123925,77246,-0.0327,-0.0366,1.0220,-0.1831,0.6104,-0.3662,1,479,861,234
403128929,77247,-0.0337,-0.0391,1.0220,-0.1221,0.6104,-0.3662,1,483,863,234
403133923,77248,-0.0342,-0.0396,1.0225,-0.0610,0.4272,-0.2441,1,466,869,234
403138925,77249,-0.0342,-0.0381,1.0225,-0.0610,0.3662,-0.1831,1,466,878,234
403143940,77250,-0.0337,-0.0381,1.0225,0.0000,0.4883,-0.2441,1,466,874,234
403148927,77251,-0.0332,-0.0386,1.0234,0.0000,0.4272,-0.2441,1,466,828,234
403153930,77252,-0.0337,-0.0381,1.0234,-0.1221,0.4272,-0.1831,1,493,836,234
403158931,77253,-0.0347,-0.0376,1.0220,-0.0610,0.3662,-0.1831,1,473,875,234
403163930,77254,-0.0347,-0.0376,1.0210,-0.1221,0.3662,-0.2441,1,493,812,234
403168929,77255,-0.0337,-0.0386,1.0225,-0.1221,0.4272,-0.2441,1,484,856,234
403173923,77256,-0.0327,-0.0391,1.0229,-0.1221,0.4272,-0.3052,1,492,858,234
403178928,77257,-0.0337,-0.0391,1.0234,-0.2441,0.5493,-0.3662,1,492,845,234
403183922,77258,-0.0352,-0.0396,1.0229,-0.1831,0.4883,-0.3662,1,492,851,234
403188922,77259,-0.0352,-0.0405,1.0215,-0.1221,0.3662,-0.2441,1,487,850,234
403193931,77260,-0.0342,-0.0405,1.0210,-0.1221,0.4272,-0.3052,1,488,846,234
403198923,77261,-0.0337,-0.0396,1.0215,-0.0610,0.4883,-0.3052,1,502,828,234
403203928,77262,-0.0342,-0.0381,1.0210,-0.0610,0.4883,-0.1831,1,465,866,234
403208927,77263,-0.0347,-0.0386,1.0205,-0.1221,0.4272,-0.3052,1,482,895,234
403213926,77264,-0.0342,-0.0396,1.0220,0.0000,0.3052,-0.3052,1,465,860,234
403218923,77265,-0.0337,-0.0396,1.0234,-0.1221,0.4272,-0.3052,1,467,821,234
403223927,77266,-0.0337,-0.0386,1.0234,0.0000,0.3662,-0.2441,1,472,871,234
403228929,77267,-0.0342,-0.0386,1.0234,0.0000,0.3662,-0.2441,1,472,817,234
403233925,77268,-0.0347,-0.0391,1.0239,-0.0610,0.4272,-0.2441,1,470,816,234
403238926,77269,-0.0342,-0.0381,1.0239,-0.0610,0.5493,-0.3662,1,484,858,234
403243929,77270,-0.0342,-0.0381,1.0244,0.0000,0.4272,-0.3052,1,466,878,234
403248925,77271,-0.0352,-0.0386,1.0234,-0.0610,0.4883,-0.2441,1,466,827,234
403253931,77272,-0.0361,-0.0381,1.0205,0.0610,0.4272,-0.3052,1,466,876,234
403258929,77273,-0.0352,-0.0386,1.0186,0.0610,0.1831,-0.2441,1,465,872,234
403263926,77274,-0.0337,-0.0396,1.0186,0.1221,0.2441,-0.2441,1,492,875,234
403268925,77275,-0.0327,-0.0400,1.0210,0.1221,0.3662,-0.2441,1,466,874,234
403273930,77276,-0.0327,-0.0405,1.0229,0.1831,0.3662,-0.1831,1,494,875,234
403278924,77277,-0.0342,-0.0400,1.0225,0.1831,0.4883,-0.3662,1,473,810,234
403283925,77278,-0.0366,-0.0381,1.0195,0.1221,0.3052,-0.3052,1,476,847,234
403288922,77279,-0.0366,-0.0376,1.0195,0.0610,0.3052,-0.3052,1,481,839,234
403293937,77280,-0.0356,-0.0391,1.0215,-0.0610,0.2441,-0.1831,1,492,842,234
403298924,77281,-0.0342,-0.0405,1.0234,0.0610,0.2441,-0.1831,1,481,847,234
403303924,77282,-0.0332,-0.0410,1.0234,-0.0610,0.1221,-0.1831,1,501,850,234
403308926,77283,-0.0337,-0.0405,1.0225,0.0610,0.1831,-0.2441,1,492,837,234
403313926,77284,-0.0352,-0.0396,1.0215,0.0000,0.1831,-0.3662,1,511,790,234
403318929,77285,-0.0352,-0.0400,1.0210,0.1221,0.1221,-0.3052,1,465,820,234
403323927,77286,-0.0347,-0.0405,1.0210,0.0610,0.1831,-0.3052,1,482,851,234
403328922,77287,-0.0352,-0.0405,1.0215,0.0610,0.1221,-0.2441,1,483,860,234
403333926,77288,-0.0352,-0.0400,1.0220,0.0610,0.1831,-0.1831,1,467,871,234
403338927,77289,-0.0337,-0.0400,1.0215,-0.0610,0.2441,-0.1831,1,482,873,234
403343925,77290,-0.0332,-0.0400,1.0210,-0.0610,0.1831,-0.3662,1,481,858,234
403348923,77291,-0.0332,-0.0400,1.0215,0.1221,0.1221,-0.1831,1,477,857,234
403353929,77292,-0.0342,-0.0400,1.0215,0.1221,0.1221,-0.2441,1,483,854,234
403358930,77293,-0.0352,-0.0415,1.0210,0.1831,0.2441,-0.3662,1,466,869,234
403363924,77294,-0.0352,-0.0420,1.0210,0.1831,0.1831,-0.3662,1,466,879,234
403368936,77295,-0.0352,-0.0400,1.0215,0.3052,0.2441,-0.3662,1,466,878,234
403373929,77296,-0.0347,-0.0376,1.0225,0.1221,0.1221,-0.4272,1,466,874,234
403378925,77297,-0.0347,-0.0376,1.0229,0.0610,0.1221,-0.3662,1,492,871,234
403383923,77298,-0.0347,-0.0391,1.0225,0.1831,0.1221,-0.3052,1,466,873,234
403388923,77299,-0.0356,-0.0400,1.0225,0.1831,0.1221,-0.3052,1,492,867,234
403393928,77300,-0.0352,-0.0396,1.0225,0.1831,0.1221,-0.3662,1,467,815,234
403398923,77301,-0.0347,-0.0391,1.0220,0.0000,0.3052,-0.3662,1,491,856,234
403403922,77302,-0.0347,-0.0396,1.0210,0.1221,0.3052,-0.3662,1,480,795,234
403408931,77303,-0.0356,-0.0400,1.0220,0.1221,0.3662,-0.2441,1,485,840,234
403413927,77304,-0.0352,-0.0405,1.0229,0.1831,0.1831,-0.3052,1,491,848,234
403418931,77305,-0.0337,-0.0396,1.0234,0.3052,0.2441,-0.3052,1,480,848,234
403423931,77306,-0.0332,-0.0376,1.0225,0.3662,0.3662,-0.3052,1,477,832,234
403428926,77307,-0.0342,-0.0386,1.0210,0.2441,0.3052,-0.2441,1,500,837,234
403433929,77308,-0.0352,-0.0405,1.0205,0.2441,0.1221,-0.3052,1,465,870,234
403438930,77309,-0.0347,-0.0410,1.0215,0.4272,0.0610,-0.3052,1,465,859,234
403443927,77310,-0.0347,-0.0396,1.0210,0.3662,0.0000,-0.3052,1,465,860,234
403448927,77311,-0.0356,-0.0386,1.0195,0.3052,0.1221,-0.3662,1,467,823,234
403453924,77312,-0.0361,-0.0405,1.0181,0.3662,0.1221,-0.3052,1,468,874,234
403458926,77313,-0.0361,-0.0410,1.0186,0.3052,0.0000,-0.3052,1,474,852,234
403463927,77314,-0.0356,-0.0396,1.0200,0.3052,-0.0610,-0.3662,1,470,806,234
403468925,77315,-0.0356,-0.0386,1.0210,0.2441,0.1221,-0.3052,1,484,855,234
403473929,77316,-0.0356,-0.0391,1.0210,0.1831,0.0000,-0.3662,1,466,872,234
403478922,77317,-0.0352,-0.0396,1.0210,0.3052,0.0000,-0.3052,1,466,830,234
403483929,77318,-0.0332,-0.0386,1.0215,0.4272,-0.1221,-0.2441,1,466,819,234
403488925,77319,-0.0327,-0.0386,1.0220,0.3662,-0.0610,-0.3662,1,466,878,234
403493927,77320,-0.0327,-0.0400,1.0220,0.1831,0.1221,-0.3662,1,492,878,234
403498928,77321,-0.0332,-0.0396,1.0215,0.4272,0.1831,-0.3052,1,466,876,234
403503931,77322,-0.0347,-0.0391,1.0205,0.3662,0.1831,-0.3052,1,494,876,234
403508925,77323,-0.0356,-0.0400,1.0186,0.3052,0.1221,-0.3662,1,464,796,234
403513924,77324,-0.0352,-0.0415,1.0181,0.4883,-0.1221,-0.3052,1,490,851,234
403518926,77325,-0.0347,-0.0415,1.0195,0.6104,0.0000,-0.3052,1,472,839,234
403523932,77326,-0.0347,-0.0410,1.0215,0.5493,-0.0610,-0.3662,1,475,797,234
403528926,77327,-0.0352,-0.0396,1.0225,0.6714,-0.0610,-0.4272,1,471,848,234
403533926,77328,-0.0352,-0.0381,1.0225,0.7324,-0.0610,-0.3662,1,505,844,234
403538930,77329,-0.0342,-0.0381,1.0229,0.4883,0.0000,-0.3662,1,484,834,234
403543922,77330,-0.0332,-0.0386,1.0234,0.4883,0.0000,-0.3052,1,511,799,234
403548922,77331,-0.0337,-0.0381,1.0239,0.6104,-0.0610,-0.2441,1,465,817,234
403553928,77332,-0.0342,-0.0371,1.0244,0.4272,0.0610,-0.4272,1,479,862,234
403558928,77333,-0.0342,-0.0361,1.0234,0.4272,0.1221,-0.3052,1,472,869,234
403563922,77334,-0.0342,-0.0381,1.0215,0.4883,0.0610,-0.3662,1,471,864,234
403568925,77335,-0.0347,-0.0405,1.0205,0.3052,-0.0610,-0.3662,1,476,869,234
403573929,77336,-0.0347,-0.0391,1.0210,0.3662,0.0000,-0.3662,1,472,854,234
403578924,77337,-0.0342,-0.0376,1.0220,0.5493,0.0000,-0.3052,1,465,809,234
403583927,77338,-0.0337,-0.0376,1.0225,0.4883,-0.0610,-0.3052,1,483,809,234
403588929,77339,-0.0347,-0.0386,1.0205,0.4883,-0.0610,-0.3052,1,466,869,234
403593930,77340,-0.0356,-0.0400,1.0190,0.6104,0.0000,-0.3052,1,465,869,234
403598922,77341,-0.0352,-0.0405,1.0205,0.6714,0.1831,-0.4272,1,466,825,234
403603925,77342,-0.0347,-0.0405,1.0210,0.6714,0.1221,-0.3052,1,466,877,234
403608923,77343,-0.0347,-0.0400,1.0215,0.6714,-0.0610,-0.3052,1,492,867,234
403613927,77344,-0.0342,-0.0386,1.0229,0.7324,-0.0610,-0.3662,1,493,868,234
403618927,77345,-0.0332,-0.0376,1.0244,0.6714,0.0000,-0.3052,1,475,879,234
403623930,77346,-0.0322,-0.0371,1.0254,0.6104,0.0610,-0.3662,1,493,773,234
403628924,77347,-0.0327,-0.0361,1.0254,0.6714,0.0610,-0.4272,1,483,857,234
403633922,77348,-0.0337,-0.0352,1.0254,0.5493,0.1221,-0.3052,1,471,850,234
403638927,77349,-0.0337,-0.0361,1.0234,0.4883,0.0000,-0.3052,1,482,842,234
403643923,77350,-0.0332,-0.0366,1.0234,0.4883,0.1221,-0.3662,1,481,801,234
403648926,77351,-0.0327,-0.0371,1.0239,0.4883,0.2441,-0.2441,1,504,851,234
403653923,77352,-0.0332,-0.0376,1.0239,0.4272,0.1831,-0.3052,1,484,846,234
403658928,77353,-0.0327,-0.0381,1.0244,0.4272,0.1831,-0.3052,1,507,839,234
403663923,77354,-0.0322,-0.0371,1.0234,0.3662,0.1831,-0.3052,1,465,903,234
403668925,77355,-0.0327,-0.0366,1.0215,0.3662,0.3052,-0.3662,1,483,920,234
403673922,77356,-0.0342,-0.0381,1.0200,0.3052,0.3052,-0.3662,1,482,870,234
403678924,77357,-0.0347,-0.0386,1.0210,0.3052,0.3052,-0.3662,1,465,819,234
403683923,77358,-0.0332,-0.0381,1.0239,0.3052,0.1831,-0.3052,1,483,867,234
403688928,77359,-0.0327,-0.0371,1.0254,0.2441,0.3052,-0.3052,1,465,855,234
403693929,77360,-0.0332,-0.0366,1.0249,0.1831,0.3052,-0.3052,1,476,857,234
403698923,77361,-0.0347,-0.0376,1.0239,0.2441,0.3052,-0.4272,1,484,859,234
403703923,77362,-0.0347,-0.0381,1.0234,0.3052,0.1831,-0.3052,1,466,877,234
403708930,77363,-0.0342,-0.0386,1.0239,0.2441,0.3662,-0.3052,1,466,870,234
403713924,77364,-0.0337,-0.0381,1.0234,0.1831,0.4272,-0.3662,1,465,878,234
403718956,77365,-0.0332,-0.0371,1.0220,0.3052,0.3052,-0.3662,1,466,880,234
403723929,77366,-0.0332,-0.0371,1.0220,0.1221,0.2441,-0.2441,1,465,876,234
403728925,77367,-0.0337,-0.0381,1.0225,0.1831,0.1831,-0.2441,1,493,882,234
403733925,77368,-0.0337,-0.0381,1.0220,0.1831,0.4272,-0.3052,1,492,877,234
403738924,77369,-0.0342,-0.0381,1.0229,0.2441,0.3052,-0.3052,1,466,769,234
403743926,77370,-0.0347,-0.0376,1.0244,0.2441,0.3052,-0.3662,1,483,814,234
403748924,77371,-0.0352,-0.0376,1.0249,0.1831,0.4272,-0.2441,1,480,850,234
403753934,77372,-0.0347,-0.0371,1.0239,0.1221,0.3662,-0.3052,1,490,853,234
403758930,77373,-0.0347,-0.0371,1.0225,0.2441,0.4272,-0.3052,1,484,867,234
403763929,77374,-0.0342,-0.0381,1.0215,0.1221,0.3052,-0.3662,1,493,848,234
403768925,77375,-0.0342,-0.0386,1.0225,0.1221,0.3662,-0.3052,1,473,828,234
403773923,77376,-0.0347,-0.0381,1.0225,0.1831,0.4272,-0.3052,1,511,830,234
403778925,77377,-0.0352,-0.0361,1.0229,0.2441,0.3662,-0.2441,1,465,870,234
403783926,77378,-0.0352,-0.0352,1.0254,0.1221,0.1831,-0.1831,1,465,873,234
403788923,77379,-0.0347,-0.0356,1.0254,0.1221,0.3662,-0.1221,1,467,872,234
403793924,77380,-0.0347,-0.0366,1.0229,0.0610,0.3662,-0.2441,1,472,872,234
403798928,77381,-0.0347,-0.0386,1.0215,-0.0610,0.3662,-0.1221,1,474,863,234
403803926,77382,-0.0347,-0.0386,1.0215,0.0610,0.4272,-0.3052,1,468,854,234
403808926,77383,-0.0337,-0.0381,1.0215,0.1221,0.3662,-0.3052,1,484,852,234
403813926,77384,-0.0332,-0.0376,1.0225,0.1221,0.4272,-0.1831,1,465,850,234
403818926,77385,-0.0337,-0.0371,1.0229,0.1221,0.4883,-0.3052,1,466,877,234
403823925,77386,-0.0347,-0.0366,1.0225,0.0610,0.3052,-0.2441,1,466,874,234
403828947,77387,-0.0356,-0.0381,1.0225,0.0000,0.3662,-0.2441,1,466,874,234
403833930,77388,-0.0356,-0.0391,1.0225,0.0610,0.4883,-0.1831,1,466,833,234
403838924,77389,-0.0352,-0.0381,1.0225,0.1831,0.4272,-0.1831,1,493,874,234
403843926,77390,-0.0342,-0.0376,1.0229,0.1221,0.4272,-0.2441,1,485,876,234
403848928,77391,-0.0337,-0.0371,1.0225,0.0000,0.4883,-0.2441,1,494,876,234
403853929,77392,-0.0337,-0.0366,1.0225,0.0000,0.3662,-0.2441,1,466,804,234
403858929,77393,-0.0342,-0.0366,1.0215,0.0610,0.4272,-0.1831,1,488,807,234
403863929,77394,-0.0347,-0.0371,1.0210,-0.1221,0.4272,-0.2441,1,492,851,234
403868927,77395,-0.0352,-0.0376,1.0215,0.1221,0.4272,-0.3052,1,476,869,234
403873929,77396,-0.0352,-0.0391,1.0220,0.0000,0.5493,-0.2441,1,488,861,234
403878927,77397,-0.0356,-0.0391,1.0215,-0.0610,0.4272,-0.3052,1,477,734,234
403883929,77398,-0.0352,-0.0376,1.0210,0.0610,0.4883,-0.2441,1,504,831,234
403888927,77399,-0.0347,-0.0381,1.0215,0.0000,0.3662,-0.1831,1,511,833,234
403893928,77400,-0.0352,-0.0391,1.0210,0.0610,0.4883,-0.3052,1,479,818,234
403898928,77401,-0.0356,-0.0376,1.0210,0.1221,0.3662,-0.1831,1,480,853,234
403903927,77402,-0.0356,-0.0361,1.0225,0.1831,0.2441,-0.1831,1,481,874,234
403908922,77403,-0.0347,-0.0356,1.0229,0.0610,0.4272,-0.2441,1,480,876,234
403913927,77404,-0.0342,-0.0366,1.0229,0.0610,0.3052,-0.1831,1,466,862,234
403918924,77405,-0.0332,-0.0366,1.0234,0.1831,0.3662,-0.1831,1,478,859,234
403923923,77406,-0.0337,-0.0366,1.0225,0.0610,0.4272,-0.1831,1,483,870,234
403928922,77407,-0.0342,-0.0376,1.0215,-0.0610,0.2441,-0.2441,1,465,879,234
403933924,77408,-0.0352,-0.0381,1.0215,-0.0610,0.3052,-0.2441,1,466,878,234
403938929,77409,-0.0352,-0.0376,1.0215,-0.1221,0.3662,-0.3052,1,466,871,234
403943928,77410,-0.0347,-0.0381,1.0220,-0.0610,0.3052,-0.1831,1,466,870,234
403948923,77411,-0.0347,-0.0376,1.0234,-0.0610,0.3662,-0.1221,1,466,869,234
403953931,77412,-0.0352,-0.0371,1.0234,-0.1221,0.2441,-0.1221,1,492,874,234
403958924,77413,-0.0352,-0.0376,1.0215,0.0000,0.2441,-0.1221,1,466,875,234
403963929,77414,-0.0347,-0.0381,1.0205,0.0610,0.3662,-0.2441,1,494,761,234
403968924,77415,-0.0342,-0.0376,1.0215,-0.0610,0.2441,-0.1831,1,478,856,234
403973924,77416,-0.0342,-0.0361,1.0220,0.0610,0.1831,-0.1221,1,492,859,234
403978930,77417,-0.0347,-0.0361,1.0215,-0.0610,0.3052,-0.1831,1,475,845,234
403983924,77418,-0.0347,-0.0366,1.0210,0.0000,0.2441,-0.1221,1,488,845,234
403988930,77419,-0.0342,-0.0371,1.0210,-0.1221,0.3052,-0.2441,1,498,798,234
403993925,77420,-0.0342,-0.0381,1.0205,-0.0610,0.4272,-0.3052,1,477,832,234
403998927,77421,-0.0347,-0.0391,1.0215,0.0000,0.3662,-0.1831,1,506,784,234
404003925,77422,-0.0342,-0.0391,1.0220,0.0000,0.3052,-0.2441,1,465,815,234
404008927,77423,-0.0347,-0.0381,1.0229,0.0610,0.3052,-0.3052,1,475,813,234
404013926,77424,-0.0352,-0.0371,1.0234,0.1221,0.3662,-0.1831,1,476,856,234
404018930,77425,-0.0352,-0.0371,1.0225,0.1831,0.3662,-0.1221,1,481,878,234
404023924,77426,-0.0352,-0.0366,1.0220,0.0000,0.4272,-0.2441,1,479,876,234
404028926,77427,-0.0356,-0.0361,1.0220,0.0000,0.3052,-0.3052,1,466,817,234
404033928,77428,-0.0356,-0.0371,1.0229,-0.0610,0.3052,-0.2441,1,478,809,234
404038925,77429,-0.0356,-0.0391,1.0229,-0.0610,0.3052,-0.1831,1,483,862,234
404043928,77430,-0.0347,-0.0400,1.0229,0.0610,0.3052,-0.2441,1,465,874,234
404048924,77431,-0.0342,-0.0381,1.0225,0.0610,0.2441,-0.3052,1,466,873,234
404053927,77432,-0.0347,-0.0366,1.0225,0.0000,0.1831,-0.1831,1,466,869,234
404058925,77433,-0.0356,-0.0356,1.0225,0.0000,0.3052,-0.1221,1,466,835,234
404063927,77434,-0.0356,-0.0356,1.0225,0.0000,0.4272,-0.2441,1,492,826,234
404068929,77435,-0.0356,-0.0371,1.0229,-0.0610,0.3052,-0.2441,1,468,734,234
404073922,77436,-0.0361,-0.0381,1.0220,0.1221,0.1831,-0.1831,1,494,879,234
404078926,77437,-0.0356,-0.0381,1.0215,0.1221,0.2441,-0.2441,1,483,801,234
404083928,77438,-0.0352,-0.0381,1.0210,0.0610,0.1831,-0.3052,1,480,849,234
404088922,77439,-0.0352,-0.0381,1.0200,0.0000,0.1831,-0.2441,1,483,839,234
404093925,77440,-0.0352,-0.0381,1.0195,0.0610,0.1831,-0.2441,1,471,799,234
404098924,77441,-0.0347,-0.0386,1.0200,0.1831,0.1831,-0.2441,1,478,847,234
404103922,77442,-0.0342,-0.0386,1.0220,0.1221,0.2441,-0.2441,1,478,839,234
404108926,77443,-0.0347,-0.0381,1.0234,0.0610,0.2441,-0.2441,1,501,836,234
404113929,77444,-0.0352,-0.0376,1.0229,0.1221,0.2441,-0.2441,1,493,798,234
404118928,77445,-0.0352,-0.0371,1.0225,0.0000,0.2441,-0.3052,1,476,876,234
404123925,77446,-0.0352,-0.0376,1.0225,0.0000,0.3662,-0.3052,1,477,825,234
404128929,77447,-0.0347,-0.0391,1.0205,0.0610,0.1831,-0.2441,1,481,825,234
404133926,77448,-0.0347,-0.0391,1.0190,0.0000,0.0610,-0.3052,1,475,873,234
404138923,77449,-0.0347,-0.0381,1.0205,0.1831,0.2441,-0.3052,1,480,803,234
404143929,77450,-0.0356,-0.0376,1.0234,0.1221,0.1831,-0.1831,1,482,856,234
404148927,77451,-0.0352,-0.0386,1.0239,0.0610,0.0000,-0.2441,1,483,862,234
404153928,77452,-0.0352,-0.0381,1.0234,0.0000,0.0610,-0.2441,1,466,813,234
404158930,77453,-0.0356,-0.0376,1.0215,0.0000,0.0610,-0.2441,1,466,830,234
404163922,77454,-0.0356,-0.0381,1.0210,0.0000,0.0610,-0.2441,1,465,832,234
404168938,77455,-0.0352,-0.0391,1.0220,0.0000,0.0000,-0.2441,1,466,827,234
404173924,77456,-0.0356,-0.0386,1.0225,0.0000,-0.0610,-0.2441,1,465,781,234
404178926,77457,-0.0356,-0.0376,1.0225,-0.0610,0.0000,-0.2441,1,493,833,234
404183925,77458,-0.0352,-0.0381,1.0220,-0.1831,-0.0610,-0.1831,1,465,762,234
404188924,77459,-0.0347,-0.0376,1.0220,-0.1221,-0.1221,-0.2441,1,494,874,234
404193928,77460,-0.0337,-0.0376,1.0220,0.0000,-0.1221,-0.2441,1,464,865,234
404198930,77461,-0.0332,-0.0381,1.0225,-0.0610,-0.1221,-0.1221,1,480,800,234
404203929,77462,-0.0327,-0.0371,1.0239,-0.0610,-0.1221,-0.1831,1,483,840,234
404208926,77463,-0.0327,-0.0366,1.0249,-0.2441,0.0000,-0.1831,1,489,852,234
404213925,77464,-0.0337,-0.0386,1.0220,-0.1831,0.1221,-0.1221,1,471,812,234
404218927,77465,-0.0347,-0.0391,1.0190,0.0000,-0.0610,-0.1831,1,493,842,234
404223929,77466,-0.0347,-0.0371,1.0195,-0.0610,-0.0610,-0.1831,1,496,740,234
404228922,77467,-0.0342,-0.0381,1.0210,0.0000,0.0000,-0.1831,1,511,791,234
404233926,77468,-0.0342,-0.0400,1.0220,0.0000,0.0610,-0.2441,1,481,777,234
404238927,77469,-0.0347,-0.0386,1.0220,0.1221,-0.0610,-0.1831,1,479,825,234
404243922,77470,-0.0356,-0.0371,1.0220,-0.0610,0.0000,-0.1831,1,479,870,234
404248927,77471,-0.0361,-0.0371,1.0210,-0.1831,0.0610,-0.3052,1,465,816,234
404253930,77472,-0.0361,-0.0371,1.0200,-0.0610,-0.0610,-0.2441,1,482,858,234
404258926,77473,-0.0361,-0.0376,1.0200,0.0610,-0.1831,-0.2441,1,482,860,234
404263927,77474,-0.0356,-0.0381,1.0210,-0.0610,-0.1221,-0.1831,1,483,860,234
404268923,77475,-0.0352,-0.0396,1.0225,0.0000,-0.1221,-0.2441,1,466,871,234
404273926,77476,-0.0347,-0.0396,1.0234,-0.0610,-0.0610,-0.2441,1,466,827,234
404278928,77477,-0.0342,-0.0381,1.0239,0.0610,0.0000,-0.1831,1,466,878,234
404283938,77478,-0.0332,-0.0366,1.0234,-0.0610,0.0000,-0.1831,1,465,829,234
404288922,77479,-0.0332,-0.0371,1.0234,-0.0610,0.1221,-0.3052,1,466,837,234
404293928,77480,-0.0337,-0.0391,1.0229,0.0000,0.1831,-0.3052,1,493,875,234
404298926,77481,-0.0342,-0.0391,1.0220,0.0610,0.0610,-0.2441,1,473,723,234
404303929,77482,-0.0347,-0.0391,1.0210,0.1221,0.0000,-0.3052,1,494,794,234
404308922,77483,-0.0347,-0.0381,1.0210,0.0000,0.0610,-0.1831,1,485,789,234
404313924,77484,-0.0342,-0.0371,1.0220,0.0610,0.0610,-0.2441,1,491,797,234
404318929,77485,-0.0342,-0.0381,1.0220,0.0000,0.1221,-0.2441,1,491,848,234
404323930,77486,-0.0347,-0.0405,1.0210,0.0000,0.1221,-0.3052,1,475,796,234
404328931,77487,-0.0356,-0.0410,1.0200,0.0610,-0.1221,-0.2441,1,497,781,234
404333928,77488,-0.0366,-0.0396,1.0210,0.0610,-0.0610,-0.1831,1,478,833,234
404338925,77489,-0.0356,-0.0376,1.0229,-0.0610,0.0000,-0.2441,1,506,834,234
404343923,77490,-0.0342,-0.0366,1.0239,-0.1221,0.0610,-0.3052,1,465,822,234
404348923,77491,-0.0337,-0.0386,1.0244,-0.0610,0.0610,-0.3052,1,483,859,234
404353928,77492,-0.0342,-0.0396,1.0244,0.0000,0.0610,-0.2441,1,482,861,234
404358930,77493,-0.0347,-0.0396,1.0234,-0.0610,0.1221,-0.3052,1,480,830,234
404363926,77494,-0.0356,-0.0391,1.0215,0.0000,0.2441,-0.3052,1,481,868,234
404368927,77495,-0.0352,-0.0400,1.0190,-0.0610,0.1221,-0.2441,1,465,809,234
404373927,77496,-0.0356,-0.0405,1.0190,-0.0610,-0.0610,-0.3052,1,478,854,234
404378922,77497,-0.0366,-0.0400,1.0200,0.0000,0.0610,-0.3052,1,483,853,234
404383923,77498,-0.0352,-0.0386,1.0220,-0.0610,0.0610,-0.3052,1,466,824,234
404388928,77499,-0.0327,-0.0381,1.0234,-0.0610,0.0000,-0.3052,1,466,869,234
404393924,77500,-0.0327,-0.0376,1.0239,-0.0610,0.1221,-0.1831,1,466,828,234
404398927,77501,-0.0332,-0.0381,1.0244,-0.1221,0.1221,-0.2441,1,465,877,234
404403924,77502,-0.0322,-0.0391,1.0234,0.0000,0.0610,-0.2441,1,493,874,234
404408924,77503,-0.0322,-0.0391,1.0225,-0.0610,0.1221,-0.1831,1,475,784,234
404413924,77504,-0.0327,-0.0396,1.0229,-0.0610,0.1221,-0.1831,1,493,870,234
404418924,77505,-0.0337,-0.0396,1.0239,-0.0610,0.1831,-0.1831,1,465,821,234
404423923,77506,-0.0347,-0.0396,1.0244,-0.0610,0.3052,-0.1831,1,491,862,234
404428932,77507,-0.0337,-0.0391,1.0234,0.0000,0.3662,-0.2441,1,478,845,234
404433926,77508,-0.0332,-0.0381,1.0225,0.0000,0.3662,-0.2441,1,478,803,234
404438926,77509,-0.0347,-0.0381,1.0210,-0.0610,0.3662,-0.3052,1,491,793,234
404443927,77510,-0.0356,-0.0391,1.0215,0.0000,0.4272,-0.3052,1,471,827,234
404448922,77511,-0.0352,-0.0391,1.0220,0.0610,0.4272,-0.3052,1,489,824,234
404453922,77512,-0.0342,-0.0381,1.0205,0.1221,0.3052,-0.2441,1,467,866,234
404458923,77513,-0.0342,-0.0381,1.0210,0.1831,0.3052,-0.1221,1,471,857,234
404463922,77514,-0.0342,-0.0386,1.0225,0.0610,0.3662,-0.2441,1,472,865,234
404468928,77515,-0.0347,-0.0381,1.0225,0.0610,0.3052,-0.1831,1,473,875,234
404473931,77516,-0.0352,-0.0381,1.0234,0.1221,0.3662,-0.2441,1,472,851,234
404478930,77517,-0.0347,-0.0386,1.0244,0.1221,0.2441,-0.3662,1,470,858,234
404483928,77518,-0.0337,-0.0376,1.0249,0.0610,0.1831,-0.3662,1,484,860,234
404488922,77519,-0.0337,-0.0366,1.0244,0.0610,0.3662,-0.3052,1,466,861,234
404493925,77520,-0.0342,-0.0361,1.0225,0.1221,0.3662,-0.2441,1,466,876,234
404498926,77521,-0.0342,-0.0371,1.0210,0.1221,0.3662,-0.3662,1,465,880,234
404503949,77522,-0.0347,-0.0386,1.0220,0.1221,0.3052,-0.4883,1,466,876,234
404508928,77523,-0.0347,-0.0396,1.0229,0.1221,0.3052,-0.3052,1,466,868,234
404513928,77524,-0.0347,-0.0400,1.0225,0.2441,0.1831,-0.3052,1,465,868,234
404518925,77525,-0.0342,-0.0400,1.0225,0.2441,0.3052,-0.3052,1,466,872,234
404523927,77526,-0.0342,-0.0386,1.0229,0.1831,0.3052,-0.3662,1,494,764,234
404528925,77527,-0.0347,-0.0386,1.0234,0.2441,0.3052,-0.3052,1,487,857,234
404533927,77528,-0.0347,-0.0396,1.0229,0.3052,0.2441,-0.2441,1,475,843,234
404538924,77529,-0.0337,-0.0396,1.0225,0.1831,0.3052,-0.3052,1,482,849,234
404543923,77530,-0.0332,-0.0396,1.0225,0.1221,0.3052,-0.3052,1,475,862,234
404548925,77531,-0.0342,-0.0396,1.0220,0.1221,0.4272,-0.3662,1,473,828,234
404553929,77532,-0.0347,-0.0386,1.0225,0.2441,0.3662,-0.3662,1,498,834,234
404558925,77533,-0.0342,-0.0381,1.0229,0.1831,0.3662,-0.4272,1,492,850,234
404563923,77534,-0.0352,-0.0376,1.0220,0.2441,0.4272,-0.3052,1,470,920,234
404568928,77535,-0.0356,-0.0376,1.0210,0.2441,0.3052,-0.3052,1,472,864,234
404573925,77536,-0.0356,-0.0386,1.0210,0.3052,0.1831,-0.2441,1,470,861,234
404578922,77537,-0.0347,-0.0391,1.0220,0.3052,0.2441,-0.1831,1,474,875,234
404583929,77538,-0.0342,-0.0386,1.0229,0.1831,0.2441,-0.2441,1,482,853,234
404588922,77539,-0.0347,-0.0376,1.0234,0.2441,0.1831,-0.2441,1,475,864,234
404593926,77540,-0.0347,-0.0371,1.0234,0.2441,0.1831,-0.2441,1,483,864,234
404598922,77541,-0.0347,-0.0376,1.0225,0.4272,0.1831,-0.3052,1,466,886,234
404603923,77542,-0.0347,-0.0381,1.0220,0.3052,0.1831,-0.2441,1,466,875,234
404608933,77543,-0.0342,-0.0381,1.0229,0.3052,0.1831,-0.2441,1,466,873,234
404613950,77544,-0.0342,-0.0371,1.0239,0.2441,0.1831,-0.3052,1,466,876,234
404618927,77545,-0.0347,-0.0366,1.0234,0.3052,0.3052,-0.3662,1,466,880,234
404623924,77546,-0.0352,-0.0381,1.0225,0.1831,0.2441,-0.2441,1,465,874,234
404628923,77547,-0.0352,-0.0396,1.0229,0.1831,0.1221,-0.2441,1,493,877,234
404633926,77548,-0.0356,-0.0391,1.0229,0.1831,0.0610,-0.3662,1,464,821,234
404638926,77549,-0.0347,-0.0371,1.0229,0.2441,0.1831,-0.3052,1,483,859,234
404643922,77550,-0.0337,-0.0366,1.0234,0.2441,0.1831,-0.3662,1,488,851,234
404648924,77551,-0.0337,-0.0386,1.0220,0.1831,0.1831,-0.3662,1,486,857,234
404653925,77552,-0.0342,-0.0400,1.0205,0.2441,0.1831,-0.3052,1,471,871,234
404658924,77553,-0.0347,-0.0396,1.0200,0.3052,0.1221,-0.3052,1,476,834,234
404663930,77554,-0.0347,-0.0386,1.0210,0.3052,0.0610,-0.4272,1,507,824,234
404668926,77555,-0.0347,-0.0386,1.0220,0.2441,0.1831,-0.3052,1,493,838,234
404673927,77556,-0.0347,-0.0396,1.0220,0.1831,0.1831,-0.3662,1,470,930,234
404678930,77557,-0.0347,-0.0386,1.0225,0.3662,0.0610,-0.2441,1,469,869,234
404683924,77558,-0.0347,-0.0371,1.0229,0.3052,0.0610,-0.3662,1,470,867,234
404688931,77559,-0.0342,-0.0366,1.0225,0.1221,0.1831,-0.4883,1,479,875,234
404693922,77560,-0.0337,-0.0356,1.0215,0.1831,0.1221,-0.3052,1,477,857,234
404698922,77561,-0.0342,-0.0361,1.0215,0.1221,0.1221,-0.2441,1,482,855,234
404703924,77562,-0.0337,-0.0381,1.0205,0.1221,0.2441,-0.2441,1,466,856,234
404708927,77563,-0.0342,-0.0386,1.0210,0.1221,0.1831,-0.3052,1,466,875,234
404713928,77564,-0.0352,-0.0381,1.0210,0.1831,0.1221,-0.2441,1,466,869,234
404718925,77565,-0.0366,-0.0376,1.0200,0.1221,0.1831,-0.3052,1,466,872,234
404723954,77566,-0.0366,-0.0381,1.0190,0.1831,0.1831,-0.3052,1,466,872,234
404728929,77567,-0.0356,-0.0376,1.0205,0.1831,0.0610,-0.3052,1,466,877,234
404733923,77568,-0.0352,-0.0376,1.0225,0.1831,0.1221,-0.3052,1,494,874,234
404738924,77569,-0.0352,-0.0391,1.0229,0.1831,0.0610,-0.3052,1,493,868,234
404743930,77570,-0.0356,-0.0400,1.0229,0.1831,0.0000,-0.2441,1,465,795,234
404748923,77571,-0.0352,-0.0396,1.0225,0.1831,0.0610,-0.2441,1,472,808,234
404753925,77572,-0.0342,-0.0391,1.0229,0.2441,0.0000,-0.2441,1,486,849,234
404758928,77573,-0.0337,-0.0396,1.0225,0.2441,0.0610,-0.3052,1,490,824,234
404763925,77574,-0.0342,-0.0400,1.0220,0.1831,0.0610,-0.3662,1,475,870,234
404768924,77575,-0.0347,-0.0396,1.0220,0.1831,-0.0610,-0.3052,1,481,834,234
404773923,77576,-0.0342,-0.0381,1.0225,0.1831,-0.0610,-0.3662,1,505,831,234
404778925,77577,-0.0327,-0.0376,1.0225,0.0610,0.0610,-0.4272,1,493,843,234
404783925,77578,-0.0327,-0.0386,1.0225,0.2441,0.1221,-0.2441,1,465,929,234
404788930,77579,-0.0332,-0.0391,1.0215,0.1831,0.1221,-0.2441,1,465,866,234
404793928,77580,-0.0342,-0.0381,1.0205,0.1831,-0.0610,-0.3052,1,467,865,234
404798924,77581,-0.0352,-0.0386,1.0200,0.3052,-0.0610,-0.2441,1,472,868,234
404803922,77582,-0.0361,-0.0396,1.0210,0.2441,-0.0610,-0.1221,1,481,852,234
404808925,77583,-0.0356,-0.0386,1.0220,0.1831,-0.1221,-0.3662,1,481,854,234
404813929,77584,-0.0342,-0.0381,1.0229,0.1221,-0.0610,-0.3052,1,484,859,234
404818930,77585,-0.0337,-0.0391,1.0225,0.1221,-0.1221,-0.2441,1,466,869,234
404823925,77586,-0.0337,-0.0391,1.0220,0.0000,-0.0610,-0.3052,1,466,870,234
404828925,77587,-0.0337,-0.0381,1.0220,0.0610,-0.0610,-0.3052,1,466,822,234
404833927,77588,-0.0342,-0.0376,1.0229,0.1221,-0.1831,-0.3052,1,466,867,234
404838928,77589,-0.0337,-0.0381,1.0234,0.1831,-0.1831,-0.2441,1,466,872,234
404843931,77590,-0.0332,-0.0400,1.0239,0.1221,-0.1221,-0.2441,1,466,881,234
404848929,77591,-0.0332,-0.0405,1.0229,0.0610,-0.0610,-0.2441,1,494,873,234
404853923,77592,-0.0332,-0.0405,1.0220,0.0610,0.0000,-0.2441,1,494,800,234
404858929,77593,-0.0327,-0.0400,1.0210,0.1831,-0.0610,-0.3052,1,491,803,234
404863929,77594,-0.0327,-0.0386,1.0215,0.1221,-0.0610,-0.1831,1,471,843,234
404868930,77595,-0.0332,-0.0381,1.0220,0.0610,-0.0610,-0.3052,1,479,846,234
404873928,77596,-0.0332,-0.0381,1.0229,0.0610,0.0610,-0.2441,1,492,840,234
404878931,77597,-0.0332,-0.0381,1.0229,0.1221,-0.0610,-0.3052,1,472,836,234
404883926,77598,-0.0332,-0.0391,1.0229,0.1221,0.1221,-0.3052,1,508,830,234
404888930,77599,-0.0327,-0.0386,1.0229,0.0610,0.1221,-0.1831,1,492,867,234
404893924,77600,-0.0327,-0.0361,1.0234,0.0610,-0.1221,-0.2441,1,472,930,234
404898931,77601,-0.0332,-0.0366,1.0229,-0.0610,-0.1221,-0.3052,1,481,868,234
404903925,77602,-0.0342,-0.0391,1.0225,0.0000,0.0610,-0.2441,1,475,865,234
404908926,77603,-0.0347,-0.0400,1.0225,-0.0610,0.1221,-0.3052,1,482,809,234
404913928,77604,-0.0352,-0.0396,1.0234,-0.0610,0.0610,-0.3052,1,483,848,234
404918927,77605,-0.0347,-0.0391,1.0249,0.0610,-0.1221,-0.3052,1,478,852,234
404923930,77606,-0.0332,-0.0376,1.0249,0.1221,0.0610,-0.1221,1,483,848,234
404928925,77607,-0.0327,-0.0371,1.0244,0.0000,0.1831,-0.1831,1,466,874,234
404933930,77608,-0.0332,-0.0386,1.0239,-0.0610,0.1831,-0.1831,1,466,841,234
404938922,77609,-0.0337,-0.0391,1.0215,-0.1221,0.1221,-0.1831,1,466,883,234
404943923,77610,-0.0352,-0.0376,1.0195,0.0000,0.0610,-0.3052,1,466,870,234
404948928,77611,-0.0347,-0.0371,1.0200,0.0000,0.2441,-0.1831,1,493,825,234
404953931,77612,-0.0337,-0.0371,1.0225,-0.1221,0.2441,-0.1831,1,494,833,234
404958928,77613,-0.0337,-0.0361,1.0239,0.0000,0.1831,-0.2441,1,488,878,234
404963925,77614,-0.0342,-0.0361,1.0229,-0.1221,0.2441,-0.1831,1,464,810,234
404968928,77615,-0.0352,-0.0371,1.0229,-0.0610,0.2441,-0.2441,1,492,863,234
404973932,77616,-0.0361,-0.0391,1.0229,0.0000,0.2441,-0.3052,1,474,854,234
404978927,77617,-0.0352,-0.0400,1.0239,0.0000,0.3052,-0.3052,1,476,801,234
404983923,77618,-0.0337,-0.0396,1.0249,-0.1221,0.4272,-0.2441,1,500,783,234
404988930,77619,-0.0327,-0.0386,1.0239,-0.0610,0.2441,-0.1831,1,489,838,234
404993930,77620,-0.0327,-0.0371,1.0220,-0.0610,0.2441,-0.1221,1,490,796,234
404998922,77621,-0.0327,-0.0371,1.0210,-0.0610,0.3052,-0.1831,1,468,876,234
405003930,77622,-0.0322,-0.0376,1.0225,-0.0610,0.4272,-0.2441,1,480,864,234
405008928,77623,-0.0322,-0.0381,1.0229,-0.1221,0.4272,-0.2441,1,475,877,234
405013923,77624,-0.0327,-0.0386,1.0220,-0.2441,0.3052,-0.3052,1,481,877,234
405018924,77625,-0.0322,-0.0386,1.0215,-0.1831,0.3662,-0.2441,1,471,855,234
405023930,77626,-0.0327,-0.0381,1.0225,-0.0610,0.4272,-0.1831,1,470,864,234
405028923,77627,-0.0337,-0.0386,1.0234,0.0000,0.3662,-0.1831,1,484,858,234
405033930,77628,-0.0342,-0.0386,1.0234,-0.1221,0.4272,-0.2441,1,466,837,234
405038924,77629,-0.0342,-0.0376,1.0225,-0.1221,0.3662,-0.1221,1,466,879,234
405043928,77630,-0.0337,-0.0376,1.0210,-0.0610,0.3662,-0.2441,1,466,872,234
405048935,77631,-0.0342,-0.0386,1.0205,-0.0610,0.3662,-0.3052,1,466,878,234
405053922,77632,-0.0352,-0.0396,1.0215,-0.0610,0.4272,-0.2441,1,466,871,234
405058928,77633,-0.0347,-0.0386,1.0234,0.0000,0.4272,-0.2441,1,493,876,234
405063924,77634,-0.0332,-0.0371,1.0244,-0.0610,0.4272,-0.1831,1,475,760,234
405068930,77635,-0.0322,-0.0376,1.0234,-0.1831,0.4272,-0.0610,1,466,780,234
405073923,77636,-0.0322,-0.0381,1.0229,-0.1831,0.4883,-0.1831,1,491,835,234
405078926,77637,-0.0327,-0.0376,1.0239,-0.0610,0.3662,-0.1221,1,485,852,234
405083927,77638,-0.0327,-0.0371,1.0239,-0.0610,0.4272,-0.1831,1,483,848,234
405088930,77639,-0.0327,-0.0386,1.0229,0.0000,0.6104,-0.1221,1,492,875,234
405093926,77640,-0.0327,-0.0400,1.0220,-0.2441,0.6104,-0.1221,1,476,741,234
405098922,77641,-0.0332,-0.0386,1.0215,-0.3052,0.6714,-0.2441,1,508,832,234
405103927,77642,-0.0342,-0.0376,1.0205,-0.1831,0.4272,-0.1831,1,465,874,234
405108922,77643,-0.0356,-0.0376,1.0190,-0.1221,0.5493,-0.1831,1,483,922,234
405113928,77644,-0.0366,-0.0386,1.0186,0.0000,0.4272,-0.1831,1,469,876,234
405118922,77645,-0.0366,-0.0396,1.0205,-0.0610,0.4272,-0.2441,1,465,816,234
405123925,77646,-0.0352,-0.0391,1.0229,0.0610,0.3662,-0.3662,1,475,862,234
405128926,77647,-0.0342,-0.0376,1.0229,0.1221,0.3662,-0.3052,1,477,857,234
405133922,77648,-0.0337,-0.0386,1.0225,0.1221,0.3662,-0.2441,1,483,854,234
405138930,77649,-0.0342,-0.0396,1.0215,0.0610,0.3662,-0.3662,1,466,876,234
405143930,77650,-0.0347,-0.0396,1.0215,0.1221,0.4883,-0.1831,1,466,875,234
405148927,77651,-0.0342,-0.0396,1.0220,0.0610,0.4883,-0.1831,1,466,873,234
405153925,77652,-0.0342,-0.0391,1.0215,0.0000,0.3662,-0.2441,1,466,874,234
405158927,77653,-0.0337,-0.0391,1.0200,0.1831,0.3662,-0.3052,1,465,830,234
405163930,77654,-0.0337,-0.0381,1.0200,0.0610,0.3052,-0.3052,1,492,871,234
405168923,77655,-0.0342,-0.0371,1.0210,0.0000,0.4272,-0.3052,1,466,861,234
405173928,77656,-0.0347,-0.0371,1.0225,0.0000,0.4272,-0.2441,1,494,752,234
405178929,77657,-0.0347,-0.0376,1.0234,0.0000,0.4272,-0.3052,1,471,816,234
405183929,77658,-0.0347,-0.0381,1.0234,-0.0610,0.4272,-0.2441,1,480,801,234
405188940,77659,-0.0347,-0.0386,1.0215,-0.1831,0.4883,-0.2441,1,478,848,234
405193930,77660,-0.0347,-0.0396,1.0200,-0.1221,0.4272,-0.1831,1,473,848,234
405198930,77661,-0.0337,-0.0400,1.0220,-0.1221,0.4272,-0.3052,1,489,845,234
405203923,77662,-0.0347,-0.0400,1.0220,-0.1831,0.2441,-0.1221,1,470,829,234
405208923,77663,-0.0352,-0.0405,1.0215,-0.0610,0.2441,-0.0610,1,500,788,234
405213928,77664,-0.0342,-0.0405,1.0215,0.0000,0.3662,-0.2441,1,467,872,234
405218930,77665,-0.0342,-0.0391,1.0220,0.0000,0.2441,-0.2441,1,466,828,234
405223925,77666,-0.0352,-0.0386,1.0225,0.0000,0.1221,-0.2441,1,482,819,234
405228926,77667,-0.0361,-0.0391,1.0225,-0.0610,0.1831,-0.3662,1,467,809,234
405233928,77668,-0.0352,-0.0386,1.0220,0.0000,0.3662,-0.4272,1,467,858,234
405238931,77669,-0.0342,-0.0386,1.0215,0.0610,0.3052,-0.3052,1,467,812,234
405243924,77670,-0.0342,-0.0391,1.0205,0.0000,0.4272,-0.2441,1,480,848,234
405248926,77671,-0.0347,-0.0386,1.0220,-0.0610,0.4272,-0.3052,1,466,811,234
405253924,77672,-0.0352,-0.0381,1.0229,0.0000,0.3052,-0.1221,1,465,874,234
405258923,77673,-0.0356,-0.0386,1.0215,0.0000,0.4272,-0.3662,1,465,823,234
405263924,77674,-0.0347,-0.0396,1.0210,0.0000,0.3662,-0.3662,1,466,834,234
405268950,77675,-0.0337,-0.0396,1.0210,0.0000,0.1831,-0.1831,1,466,830,234
405273927,77676,-0.0332,-0.0400,1.0220,0.0000,0.3662,-0.2441,1,466,831,234
405278929,77677,-0.0332,-0.0396,1.0220,-0.1221,0.2441,-0.3052,1,466,832,234
405283929,77678,-0.0342,-0.0381,1.0210,-0.0610,0.3052,-0.2441,1,490,873,234
405288927,77679,-0.0347,-0.0376,1.0205,-0.1221,0.2441,-0.1831,1,494,799,234
405293930,77680,-0.0352,-0.0381,1.0215,-0.0610,0.1221,-0.2441,1,476,857,234
405298929,77681,-0.0347,-0.0396,1.0225,0.0000,0.2441,-0.1831,1,476,841,234
405303931,77682,-0.0337,-0.0400,1.0229,-0.0610,0.3052,-0.2441,1,487,823,234
405308924,77683,-0.0337,-0.0400,1.0220,0.0610,0.2441,-0.1831,1,473,845,234
405313927,77684,-0.0347,-0.0400,1.0215,0.1221,0.2441,-0.2441,1,483,835,234
405318928,77685,-0.0347,-0.0405,1.0225,0.0000,0.1831,-0.3052,1,500,834,234
405323928,77686,-0.0347,-0.0405,1.0225,0.0610,0.2441,-0.2441,1,492,787,234
405328924,77687,-0.0352,-0.0396,1.0215,0.1221,0.1831,-0.3052,1,470,929,234
405333923,77688,-0.0352,-0.0400,1.0205,0.0000,0.1831,-0.3662,1,475,858,234
405338926,77689,-0.0347,-0.0415,1.0205,0.0000,0.2441,-0.3662,1,479,829,234
405343926,77690,-0.0347,-0.0410,1.0220,-0.0610,0.1221,-0.3662,1,477,816,234
405348922,77691,-0.0356,-0.0391,1.0210,-0.0610,0.1221,-0.2441,1,479,854,234
405353928,77692,-0.0361,-0.0371,1.0195,0.0610,0.0610,-0.2441,1,479,852,234
405358929,77693,-0.0352,-0.0371,1.0210,0.0000,0.0610,-0.2441,1,483,862,234
405363929,77694,-0.0337,-0.0381,1.0244,0.0610,0.1831,-0.2441,1,466,829,234
405368929,77695,-0.0337,-0.0391,1.0249,0.0610,0.1831,-0.3052,1,466,877,234
405373924,77696,-0.0342,-0.0381,1.0234,0.0000,0.1221,-0.2441,1,466,871,234
405378925,77697,-0.0347,-0.0371,1.0215,-0.0610,0.2441,-0.2441,1,466,829,234
405383924,77698,-0.0347,-0.0381,1.0205,0.0000,0.1221,-0.3052,1,466,879,234
405388927,77699,-0.0342,-0.0405,1.0225,-0.0610,0.1221,-0.3052,1,492,820,234
405393927,77700,-0.0332,-0.0415,1.0234,0.0000,0.2441,-0.3662,1,466,866,234
405398926,77701,-0.0332,-0.0400,1.0239,-0.0610,0.1221,-0.3662,1,494,763,234
405403927,77702,-0.0332,-0.0386,1.0239,-0.1831,0.3662,-0.2441,1,483,856,234
405408924,77703,-0.0337,-0.0371,1.0225,-0.1221,0.2441,-0.2441,1,492,857,234
405413923,77704,-0.0342,-0.0371,1.0225,-0.1221,0.0610,-0.1831,1,479,851,234
405418930,77705,-0.0347,-0.0376,1.0229,-0.1831,0.1831,-0.2441,1,501,846,234
405423927,77706,-0.0342,-0.0391,1.0225,-0.1221,0.1831,-0.2441,1,478,853,234
405428930,77707,-0.0337,-0.0396,1.0229,-0.2441,0.1831,-0.3052,1,508,833,234
405433926,77708,-0.0347,-0.0396,1.0229,-0.2441,0.3052,-0.1831,1,492,847,234
405438923,77709,-0.0352,-0.0391,1.0220,-0.1221,0.1831,-0.3052,1,478,929,234
405443926,77710,-0.0352,-0.0391,1.0215,-0.1831,0.1221,-0.2441,1,481,856,234
405448928,77711,-0.0352,-0.0410,1.0220,-0.2441,0.2441,-0.2441,1,479,862,234
405453925,77712,-0.0332,-0.0425,1.0225,-0.1831,0.2441,-0.3052,1,478,880,234
405458924,77713,-0.0332,-0.0405,1.0229,-0.1221,0.3662,-0.3662,1,466,859,234
405463923,77714,-0.0342,-0.0405,1.0229,-0.1831,0.3052,-0.3052,1,480,862,234
405468925,77715,-0.0342,-0.0420,1.0220,-0.2441,0.3052,-0.3052,1,465,854,234
405473927,77716,-0.0337,-0.0415,1.0215,-0.1831,0.3052,-0.3052,1,466,871,234
405478924,77717,-0.0342,-0.0405,1.0215,-0.1221,0.2441,-0.1221,1,466,873,234
405483926,77718,-0.0352,-0.0415,1.0215,-0.1221,0.3052,-0.1831,1,466,873,234
405488941,77719,-0.0356,-0.0420,1.0215,-0.0610,0.3052,-0.2441,1,466,872,234
405493926,77720,-0.0356,-0.0405,1.0220,-0.0610,0.3052,-0.2441,1,465,874,234
405498925,77721,-0.0361,-0.0396,1.0229,-0.0610,0.2441,-0.3052,1,493,876,234
405503925,77722,-0.0366,-0.0400,1.0225,0.0000,0.1831,-0.2441,1,481,877,234
405508925,77723,-0.0366,-0.0420,1.0220,0.0000,0.2441,-0.3662,1,464,805,234
405513930,77724,-0.0356,-0.0430,1.0220,0.0000,0.1831,-0.3662,1,476,807,234
405518922,77725,-0.0342,-0.0415,1.0225,0.0610,0.1831,-0.1831,1,488,806,234
405523928,77726,-0.0337,-0.0400,1.0234,0.0610,0.1221,-0.1831,1,482,849,234
405528925,77727,-0.0342,-0.0400,1.0239,0.0000,0.1221,-0.3052,1,484,844,234
405533928,77728,-0.0347,-0.0410,1.0229,0.0000,0.1831,-0.3052,1,488,783,234
405538927,77729,-0.0342,-0.0415,1.0225,0.1221,0.3052,-0.3662,1,491,799,234
405543925,77730,-0.0337,-0.0410,1.0215,0.1831,0.3662,-0.3662,1,492,841,234
405548925,77731,-0.0337,-0.0415,1.0215,0.1221,0.3052,-0.2441,1,469,918,234
405553922,77732,-0.0342,-0.0420,1.0215,0.0610,0.2441,-0.2441,1,469,861,234
405558925,77733,-0.0342,-0.0410,1.0215,0.1831,0.1831,-0.1831,1,476,866,234
405563929,77734,-0.0337,-0.0400,1.0220,0.1831,0.1221,-0.1831,1,474,877,234
405568924,77735,-0.0337,-0.0400,1.0234,0.1221,0.2441,-0.3662,1,471,856,234
405573922,77736,-0.0342,-0.0396,1.0239,0.1831,0.2441,-0.1831,1,473,859,234
405578923,77737,-0.0332,-0.0391,1.0234,0.0610,0.2441,-0.1831,1,483,864,234
405583922,77738,-0.0332,-0.0391,1.0225,0.0000,0.3662,-0.3662,1,466,878,234
405588922,77739,-0.0342,-0.0396,1.0200,0.1831,0.3052,-0.3052,1,466,832,234
405593930,77740,-0.0342,-0.0396,1.0200,0.1221,0.2441,-0.1831,1,465,870,234
405598931,77741,-0.0337,-0.0391,1.0220,0.1221,0.1831,-0.1221,1,466,875,234
405603928,77742,-0.0332,-0.0391,1.0234,0.0610,0.3052,-0.2441,1,466,868,234
405608925,77743,-0.0337,-0.0396,1.0234,0.0610,0.2441,-0.2441,1,492,874,234
405613929,77744,-0.0342,-0.0391,1.0220,0.1221,0.2441,-0.2441,1,475,879,234
405618930,77745,-0.0342,-0.0386,1.0215,0.0610,0.1221,-0.1221,1,494,872,234
405623924,77746,-0.0337,-0.0386,1.0220,0.1831,0.1831,-0.2441,1,464,849,234
405628926,77747,-0.0337,-0.0396,1.0225,0.0000,0.3052,-0.4272,1,490,861,234
405633947,77748,-0.0342,-0.0415,1.0225,0.0000,0.1221,-0.3052,1,492,797,234
405638930,77749,-0.0347,-0.0420,1.0220,0.1221,0.1221,-0.1831,1,480,795,234
405643928,77750,-0.0356,-0.0410,1.0210,0.1831,0.2441,-0.1831,1,501,862,234
405648925,77751,-0.0356,-0.0400,1.0200,0.1831,0.2441,-0.1831,1,489,842,234
405653924,77752,-0.0342,-0.0396,1.0210,0.1221,0.1831,-0.1831,1,487,851,234
405658922,77753,-0.0332,-0.0396,1.0215,0.1221,0.1831,-0.1831,1,493,834,234
405663923,77754,-0.0342,-0.0391,1.0215,0.2441,0.2441,-0.2441,1,469,866,234
405668929,77755,-0.0352,-0.0386,1.0210,0.1831,0.1831,-0.2441,1,472,869,234
405673926,77756,-0.0347,-0.0381,1.0210,0.0610,0.0000,-0.1221,1,467,877,234
405678925,77757,-0.0347,-0.0386,1.0210,0.1831,0.1221,-0.2441,1,472,803,234
405683922,77758,-0.0347,-0.0396,1.0225,0.1221,0.1831,-0.1831,1,470,855,234
405688927,77759,-0.0342,-0.0381,1.0234,0.1221,0.2441,-0.0610,1,484,857,234
405693928,77760,-0.0342,-0.0376,1.0244,0.0610,0.2441,-0.2441,1,466,873,234
405698923,77761,-0.0347,-0.0391,1.0234,0.1831,0.1221,-0.2441,1,466,881,234
405703923,77762,-0.0347,-0.0405,1.0225,0.1831,0.1831,-0.3052,1,466,877,234
405708937,77763,-0.0337,-0.0410,1.0220,0.0610,0.1221,-0.1221,1,466,877,234
405713929,77764,-0.0327,-0.0410,1.0225,0.1221,0.1831,-0.1221,1,466,868,234
405718928,77765,-0.0332,-0.0396,1.0229,0.1831,0.1221,-0.2441,1,493,873,234
405723923,77766,-0.0337,-0.0371,1.0225,0.0000,0.1831,-0.1831,1,466,880,234
405728922,77767,-0.0347,-0.0381,1.0210,-0.1221,0.2441,-0.2441,1,494,731,234
405733928,77768,-0.0352,-0.0400,1.0200,0.1221,0.1831,-0.2441,1,471,854,234
405738930,77769,-0.0347,-0.0415,1.0210,0.1221,0.0000,-0.2441,1,491,845,234
405743922,77770,-0.0342,-0.0420,1.0225,0.1831,0.0610,-0.2441,1,473,799,234
405748927,77771,-0.0347,-0.0415,1.0229,0.2441,0.0610,-0.2441,1,491,847,234
405753925,77772,-0.0352,-0.0415,1.0229,0.3662,0.1221,-0.2441,1,481,851,234
405758930,77773,-0.0352,-0.0405,1.0229,0.0610,0.1831,-0.3052,1,487,839,234
405763925,77774,-0.0347,-0.0391,1.0225,0.0000,0.1831,-0.3052,1,487,842,234
405768923,77775,-0.0347,-0.0381,1.0215,0.1221,0.1831,-0.1831,1,466,784,234
405773924,77776,-0.0347,-0.0386,1.0225,0.2441,0.1831,-0.3052,1,465,861,234
405778930,77777,-0.0342,-0.0391,1.0249,0.1221,0.3052,-0.3052,1,466,865,234
405783924,77778,-0.0347,-0.0396,1.0244,-0.1221,0.3052,-0.2441,1,466,864,234
405788923,77779,-0.0352,-0.0396,1.0215,-0.1831,0.4272,-0.2441,1,474,855,234
405793922,77780,-0.0352,-0.0396,1.0195,0.0000,0.3662,-0.3052,1,471,863,234
405798923,77781,-0.0342,-0.0400,1.0200,0.0000,0.2441,-0.2441,1,483,810,234
405803925,77782,-0.0337,-0.0410,1.0215,0.0000,0.3662,-0.3052,1,466,829,234
405808922,77783,-0.0332,-0.0405,1.0229,0.0610,0.4272,-0.2441,1,466,829,234
405813922,77784,-0.0337,-0.0400,1.0239,0.0000,0.4272,-0.2441,1,466,885,234
405818927,77785,-0.0342,-0.0405,1.0244,0.0610,0.4272,-0.2441,1,466,835,234
405823926,77786,-0.0342,-0.0410,1.0239,0.1221,0.4272,-0.3052,1,466,879,234
405828926,77787,-0.0332,-0.0405,1.0229,0.1221,0.3052,-0.1831,1,466,872,234
405833929,77788,-0.0327,-0.0400,1.0215,0.0000,0.3052,-0.1831,1,466,874,234
405838930,77789,-0.0332,-0.0396,1.0205,0.0610,0.2441,-0.2441,1,493,725,234
405843928,77790,-0.0332,-0.0391,1.0210,0.0610,0.2441,-0.2441,1,464,823,234
405848927,77791,-0.0332,-0.0400,1.0220,0.0000,0.3662,-0.3662,1,488,827,234
405853940,77792,-0.0337,-0.0415,1.0225,-0.0610,0.2441,-0.2441,1,488,804,234
405858930,77793,-0.0342,-0.0405,1.0225,0.0610,0.0610,-0.2441,1,481,850,234
405863930,77794,-0.0347,-0.0386,1.0220,0.1221,0.2441,-0.3052,1,497,872,234
405868927,77795,-0.0337,-0.0376,1.0225,0.1221,0.2441,-0.3052,1,481,831,234
405873927,77796,-0.0327,-0.0381,1.0229,0.0000,0.2441,-0.3052,1,489,841,234
405878930,77797,-0.0327,-0.0386,1.0229,-0.0610,0.3662,-0.3052,1,499,791,234
405883922,77798,-0.0342,-0.0396,1.0229,0.0000,0.1831,-0.3052,1,471,837,234
405888926,77799,-0.0347,-0.0396,1.0234,0.1221,0.1221,-0.3052,1,479,826,234
405893925,77800,-0.0342,-0.0400,1.0234,0.1221,0.0610,-0.3052,1,477,867,234
405898929,77801,-0.0337,-0.0415,1.0225,0.1221,0.1831,-0.1831,1,478,850,234
405903927,77802,-0.0337,-0.0430,1.0215,0.1831,0.2441,-0.3052,1,474,859,234
405908926,77803,-0.0337,-0.0415,1.0220,0.1831,0.1831,-0.2441,1,484,857,234
405913922,77804,-0.0342,-0.0400,1.0225,0.0610,0.1831,-0.1831,1,466,882,234
405918928,77805,-0.0342,-0.0400,1.0225,0.1221,0.1831,-0.2441,1,466,875,234
405923925,77806,-0.0347,-0.0400,1.0220,0.2441,0.1831,-0.1831,1,466,875,234
405928926,77807,-0.0352,-0.0391,1.0220,0.1221,0.1221,-0.1831,1,466,879,234
405933926,77808,-0.0352,-0.0391,1.0225,0.1221,0.1831,-0.2441,1,465,868,234
405938926,77809,-0.0347,-0.0400,1.0225,0.0610,0.1831,-0.4883,1,466,871,234
405943928,77810,-0.0352,-0.0405,1.0220,0.1221,0.1831,-0.2441,1,466,871,234
405948926,77811,-0.0352,-0.0396,1.0210,0.2441,0.3052,-0.2441,1,494,874,234
405953922,77812,-0.0342,-0.0391,1.0200,0.2441,0.1221,-0.3662,1,493,792,234
405958922,77813,-0.0342,-0.0396,1.0200,0.1221,0.0610,-0.2441,1,491,852,234
405963934,77814,-0.0342,-0.0400,1.0205,0.0610,0.1831,-0.3662,1,474,842,234
405968930,77815,-0.0342,-0.0400,1.0215,0.1221,0.1221,-0.3052,1,491,847,234
405973924,77816,-0.0347,-0.0396,1.0225,0.3052,0.1221,-0.2441,1,502,835,234
405978923,77817,-0.0342,-0.0376,1.0234,0.3052,0.1221,-0.2441,1,495,831,234
405983931,77818,-0.0347,-0.0400,1.0210,0.1221,0.2441,-0.2441,1,498,834,234
405988922,77819,-0.0347,-0.0420,1.0190,0.2441,0.1831,-0.2441,1,493,870,234
405993923,77820,-0.0352,-0.0410,1.0190,0.3662,0.1221,-0.1831,1,475,869,234
405998927,77821,-0.0352,-0.0400,1.0210,0.2441,0.1831,-0.2441,1,475,872,234
406003923,77822,-0.0347,-0.0396,1.0220,0.3052,0.1831,-0.1831,1,474,875,234
406008924,77823,-0.0337,-0.0391,1.0220,0.2441,0.0610,-0.1831,1,477,857,234
406013930,77824,-0.0332,-0.0391,1.0210,0.2441,0.1831,-0.2441,1,477,855,234
406018927,77825,-0.0337,-0.0391,1.0215,0.1831,0.2441,-0.3052,1,484,860,234
406023930,77826,-0.0332,-0.0386,1.0225,0.1831,0.3662,-0.2441,1,466,853,234
406028925,77827,-0.0332,-0.0381,1.0234,0.2441,0.3052,-0.1221,1,466,883,234
406033929,77828,-0.0332,-0.0396,1.0229,0.3052,0.1831,-0.3052,1,466,874,234
406038925,77829,-0.0332,-0.0405,1.0220,0.1831,0.3052,-0.2441,1,466,875,234
406043955,77830,-0.0337,-0.0405,1.0229,0.1831,0.3052,-0.2441,1,466,877,234
406048928,77831,-0.0337,-0.0396,1.0234,0.1221,0.3052,-0.2441,1,466,879,234
406053926,77832,-0.0342,-0.0396,1.0220,0.1831,0.2441,-0.2441,1,465,874,234
406058930,77833,-0.0347,-0.0396,1.0220,0.1831,0.2441,-0.2441,1,468,879,234
406063924,77834,-0.0347,-0.0391,1.0229,0.2441,0.3662,-0.3052,1,494,879,234
406068928,77835,-0.0347,-0.0396,1.0229,0.1831,0.3052,-0.3052,1,483,856,234
406073929,77836,-0.0342,-0.0396,1.0229,0.1221,0.3052,-0.2441,1,488,843,234
406078922,77837,-0.0332,-0.0391,1.0229,0.0610,0.4272,-0.2441,1,491,844,234
406083928,77838,-0.0332,-0.0386,1.0225,0.0610,0.4883,-0.3052,1,506,850,234
406088926,77839,-0.0337,-0.0386,1.0220,0.1831,0.3662,-0.2441,1,472,832,234
406093929,77840,-0.0337,-0.0391,1.0234,0.1831,0.5493,-0.2441,1,503,840,234
406098928,77841,-0.0332,-0.0386,1.0239,0.1221,0.4883,-0.1221,1,492,850,234
406103930,77842,-0.0332,-0.0381,1.0239,0.0610,0.6104,-0.0610,1,508,902,234
406108923,77843,-0.0337,-0.0386,1.0234,0.0000,0.7935,-0.1831,1,479,859,234
406113927,77844,-0.0342,-0.0386,1.0225,0.1221,0.8545,-0.1221,1,465,814,234
406118927,77845,-0.0347,-0.0396,1.0220,0.0610,0.7935,-0.1831,1,465,849,234
406123928,77846,-0.0337,-0.0400,1.0220,0.0000,0.7324,-0.1831,1,465,856,234
406128924,77847,-0.0317,-0.0391,1.0234,0.1221,0.7324,-0.1221,1,482,812,234
406133929,77848,-0.0312,-0.0386,1.0244,0.0610,0.9766,-0.2441,1,466,854,234
406138926,77849,-0.0332,-0.0391,1.0234,0.0610,1.0986,-0.2441,1,466,901,234
406143928,77850,-0.0347,-0.0396,1.0229,0.1221,1.0376,-0.2441,1,466,879,234
406148922,77851,-0.0347,-0.0396,1.0239,0.0610,1.0986,-0.2441,1,466,876,234
406153924,77852,-0.0342,-0.0391,1.0244,0.0000,1.1597,-0.1221,1,466,879,234
406158927,77853,-0.0332,-0.0386,1.0244,0.0000,1.3428,-0.1221,1,466,826,234
406163926,77854,-0.0322,-0.0386,1.0254,-0.0610,1.3428,-0.1221,1,492,832,234
406168924,77855,-0.0332,-0.0391,1.0254,-0.0610,1.4038,0.0000,1,465,874,234
406173930,77856,-0.0342,-0.0391,1.0244,-0.0610,1.4648,-0.1831,1,494,761,234
406178922,77857,-0.0352,-0.0391,1.0239,-0.1831,1.7090,-0.0610,1,473,871,234
406183924,77858,-0.0366,-0.0391,1.0234,-0.1831,1.8311,-0.1831,1,488,854,234
406188922,77859,-0.0371,-0.0391,1.0225,-0.1831,1.7700,-0.2441,1,482,852,234
406193927,77860,-0.0366,-0.0405,1.0215,-0.1831,1.7700,-0.1221,1,509,849,234
406198928,77861,-0.0366,-0.0425,1.0210,-0.0610,1.7700,0.0000,1,488,848,234
406203929,77862,-0.0371,-0.0405,1.0205,-0.1221,1.7700,-0.1221,1,492,797,234
406208924,77863,-0.0386,-0.0386,1.0215,-0.1831,1.7090,-0.1831,1,488,841,234
406213922,77864,-0.0396,-0.0391,1.0210,-0.0610,1.6479,-0.1221,1,510,875,234
406218928,77865,-0.0386,-0.0400,1.0195,0.0610,1.4648,-0.1221,1,465,856,234
406223924,77866,-0.0371,-0.0396,1.0200,-0.1221,1.4648,-0.0610,1,478,870,234
406228923,77867,-0.0356,-0.0386,1.0220,0.0000,1.5259,-0.0610,1,480,874,234
406233926,77868,-0.0356,-0.0381,1.0234,0.0000,1.5259,-0.1221,1,482,812,234
406238922,77869,-0.0356,-0.0391,1.0244,-0.2441,1.4648,-0.1221,1,480,812,234
406243925,77870,-0.0356,-0.0415,1.0249,-0.2441,1.4648,-0.2441,1,484,862,234
406248929,77871,-0.0366,-0.0425,1.0249,-0.2441,1.5259,-0.0610,1,466,889,234
406253923,77872,-0.0376,-0.0420,1.0244,-0.2441,1.7090,-0.0610,1,466,879,234
406258930,77873,-0.0366,-0.0400,1.0239,-0.2441,1.5869,-0.1831,1,466,876,234
406263929,77874,-0.0361,-0.0391,1.0239,-0.0610,1.5259,-0.1831,1,466,887,234
406268949,77875,-0.0366,-0.0400,1.0220,-0.1221,1.6479,-0.2441,1,466,878,234
406273924,77876,-0.0381,-0.0420,1.0195,-0.1221,1.5869,-0.1221,1,466,878,234
406278925,77877,-0.0405,-0.0430,1.0181,-0.1831,1.5259,-0.1831,1,466,871,234
406283930,77878,-0.0420,-0.0430,1.0156,-0.0610,1.2207,-0.3052,1,492,875,234
406288927,77879,-0.0420,-0.0439,1.0151,0.0000,0.9766,-0.1221,1,494,817,234
406293929,77880,-0.0400,-0.0439,1.0181,0.1831,0.8545,-0.1221,1,472,798,234
406298930,77881,-0.0371,-0.0425,1.0225,0.2441,0.8545,-0.2441,1,476,842,234
406303930,77882,-0.0366,-0.0405,1.0244,0.1831,0.7935,-0.1221,1,483,850,234
406308924,77883,-0.0381,-0.0396,1.0239,0.0610,0.8545,-0.2441,1,489,870,234
406313922,77884,-0.0391,-0.0391,1.0215,0.0610,0.9155,-0.2441,1,482,835,234
406318924,77885,-0.0391,-0.0391,1.0195,0.0610,0.9155,-0.1221,1,487,840,234
406323925,77886,-0.0381,-0.0400,1.0200,0.0610,0.7935,-0.2441,1,497,866,234
406328922,77887,-0.0376,-0.0415,1.0210,0.1221,0.7935,-0.1831,1,470,830,234
406333928,77888,-0.0376,-0.0405,1.0205,0.0610,0.7324,-0.1831,1,471,869,234
406338929,77889,-0.0381,-0.0405,1.0195,0.0000,0.6714,-0.1831,1,466,874,234
406343926,77890,-0.0386,-0.0415,1.0200,0.1831,0.5493,-0.1831,1,467,811,234
406348925,77891,-0.0396,-0.0425,1.0195,0.2441,0.3662,-0.2441,1,472,862,234
406353928,77892,-0.0396,-0.0405,1.0200,0.1831,0.4272,-0.2441,1,483,863,234
406358927,77893,-0.0391,-0.0391,1.0220,0.1831,0.4883,-0.1831,1,466,859,234
406363925,77894,-0.0386,-0.0396,1.0244,0.0610,0.4883,-0.2441,1,466,874,234
406368931,77895,-0.0376,-0.0410,1.0244,0.1831,0.4883,-0.1831,1,466,876,234
406373925,77896,-0.0376,-0.0420,1.0225,0.3052,0.5493,-0.1831,1,466,881,234
406378945,77897,-0.0381,-0.0420,1.0210,0.3662,0.4272,-0.1831,1,466,874,234
406383931,77898,-0.0386,-0.0415,1.0200,0.1831,0.4883,-0.1831,1,465,876,234
406388927,77899,-0.0391,-0.0405,1.0190,0.1831,0.4272,-0.2441,1,466,877,234
406393924,77900,-0.0400,-0.0410,1.0186,0.3052,0.3052,-0.2441,1,466,877,234
406398926,77901,-0.0400,-0.0410,1.0210,0.3662,0.1221,-0.2441,1,494,868,234
406403922,77902,-0.0386,-0.0396,1.0234,0.3052,0.0610,-0.3052,1,467,854,234
406408925,77903,-0.0361,-0.0391,1.0249,0.3662,0.1831,-0.3662,1,478,840,234
406413924,77904,-0.0356,-0.0381,1.0244,0.3662,0.1831,-0.3052,1,478,854,234
406418927,77905,-0.0366,-0.0386,1.0229,0.3662,0.1831,-0.3662,1,506,848,234
406423930,77906,-0.0371,-0.0405,1.0200,0.3052,0.0610,-0.3052,1,477,854,234
406428922,77907,-0.0366,-0.0410,1.0195,0.4272,0.0610,-0.3052,1,503,828,234
406433930,77908,-0.0366,-0.0396,1.0210,0.3662,0.0610,-0.3662,1,487,874,234
406438924,77909,-0.0376,-0.0391,1.0225,0.3052,0.3052,-0.3662,1,509,875,234
406443926,77910,-0.0381,-0.0405,1.0229,0.1831,0.3052,-0.3052,1,467,855,234
406448927,77911,-0.0376,-0.0415,1.0229,0.3662,0.3662,-0.2441,1,466,861,234
406453928,77912,-0.0376,-0.0420,1.0225,0.3662,0.3662,-0.1831,1,480,883,234
406458925,77913,-0.0376,-0.0430,1.0215,0.3052,0.2441,-0.2441,1,483,861,234
406463931,77914,-0.0376,-0.0415,1.0210,0.4883,0.2441,-0.3052,1,466,856,234
406468930,77915,-0.0376,-0.0400,1.0210,0.4883,0.3052,-0.3052,1,483,854,234
406473925,77916,-0.0371,-0.0405,1.0210,0.4272,0.1831,-0.3052,1,466,862,234
406478924,77917,-0.0366,-0.0410,1.0220,0.5493,0.3662,-0.4272,1,466,876,234
406483925,77918,-0.0366,-0.0405,1.0225,0.4272,0.3662,-0.3052,1,465,884,234
406488924,77919,-0.0371,-0.0400,1.0220,0.4272,0.4883,-0.2441,1,466,877,234
406493926,77920,-0.0381,-0.0396,1.0215,0.4883,0.5493,-0.2441,1,466,879,234
406498931,77921,-0.0386,-0.0386,1.0225,0.3662,0.4883,-0.3052,1,466,876,234
406503929,77922,-0.0386,-0.0396,1.0239,0.3052,0.5493,-0.3052,1,492,871,234
406508922,77923,-0.0386,-0.0405,1.0244,0.3662,0.4883,-0.1831,1,466,872,234
406513923,77924,-0.0376,-0.0415,1.0244,0.3662,0.4272,-0.2441,1,494,879,234
406518922,77925,-0.0376,-0.0410,1.0234,0.4272,0.6104,-0.3662,1,473,781,234
406523930,77926,-0.0381,-0.0400,1.0225,0.3662,0.6714,-0.3052,1,491,831,234
406528925,77927,-0.0381,-0.0391,1.0229,0.3052,0.7324,-0.2441,1,488,840,234
406533924,77928,-0.0376,-0.0386,1.0234,0.4883,0.6714,-0.2441,1,479,844,234
406538925,77929,-0.0381,-0.0400,1.0234,0.4272,0.7324,-0.3052,1,479,847,234
406543927,77930,-0.0376,-0.0415,1.0229,0.3662,0.7935,-0.3662,1,485,833,234
406548924,77931,-0.0371,-0.0410,1.0225,0.5493,0.7324,-0.2441,1,506,786,234
406553922,77932,-0.0371,-0.0391,1.0220,0.4272,0.8545,-0.3052,1,497,881,234
406558927,77933,-0.0371,-0.0391,1.0229,0.4272,0.8545,-0.3052,1,475,832,234
406563927,77934,-0.0371,-0.0405,1.0249,0.4883,0.9155,-0.3052,1,471,870,234
406568931,77935,-0.0361,-0.0405,1.0259,0.5493,0.9766,-0.3052,1,467,877,234
406573929,77936,-0.0361,-0.0391,1.0249,0.5493,1.0376,-0.3662,1,465,856,234
406578922,77937,-0.0361,-0.0386,1.0249,0.6714,1.2817,-0.2441,1,467,861,234
406583926,77938,-0.0376,-0.0381,1.0249,0.6104,1.2817,-0.3052,1,483,865,234
406588929,77939,-0.0381,-0.0376,1.0249,0.5493,1.3428,-0.2441,1,466,855,234
406593929,77940,-0.0376,-0.0386,1.0244,0.6104,1.4648,-0.2441,1,466,879,234
406598927,77941,-0.0371,-0.0391,1.0239,0.4883,1.5259,-0.2441,1,466,879,234
406603929,77942,-0.0376,-0.0381,1.0239,0.4883,1.5869,-0.1831,1,466,878,234
406608922,77943,-0.0391,-0.0371,1.0239,0.5493,1.6479,-0.1221,1,466,879,234
406613922,77944,-0.0400,-0.0386,1.0239,0.4883,1.7090,-0.2441,1,466,879,234
406618926,77945,-0.0391,-0.0400,1.0244,0.5493,1.7090,-0.3662,1,492,876,234
406623923,77946,-0.0381,-0.0400,1.0249,0.6104,1.7700,-0.3662,1,493,875,234
406628927,77947,-0.0386,-0.0400,1.0244,0.6104,1.7700,-0.2441,1,480,872,234
406633927,77948,-0.0381,-0.0396,1.0234,0.6714,1.7700,-0.1831,1,494,802,234
406638922,77949,-0.0376,-0.0381,1.0220,0.6714,1.8921,-0.2441,1,484,856,234
406643933,77950,-0.0396,-0.0381,1.0200,0.5493,1.9531,-0.1221,1,491,844,234
406648930,77951,-0.0410,-0.0381,1.0190,0.6104,1.7700,-0.1221,1,485,844,234
406653922,77952,-0.0396,-0.0410,1.0190,0.7324,1.8311,-0.1831,1,503,840,234
406658929,77953,-0.0396,-0.0420,1.0195,0.9155,1.8311,-0.1831,1,472,837,234
406663928,77954,-0.0391,-0.0381,1.0244,0.9766,1.6479,-0.1221,1,509,839,234
406668924,77955,-0.0391,-0.0381,1.0259,0.7324,1.9531,-0.1221,1,488,870,234
406673922,77956,-0.0410,-0.0396,1.0239,0.9155,1.8311,-0.0610,1,506,831,234
406678925,77957,-0.0410,-0.0386,1.0220,0.8545,1.8921,-0.1221,1,482,865,234
406683929,77958,-0.0410,-0.0391,1.0200,0.6714,2.0142,-0.1221,1,479,859,234
406688925,77959,-0.0420,-0.0386,1.0186,0.8545,1.7700,-0.0610,1,473,866,234
406693928,77960,-0.0430,-0.0366,1.0195,0.7935,1.6479,-0.0610,1,477,853,234
406698930,77961,-0.0420,-0.0356,1.0210,0.6104,1.6479,0.0000,1,470,861,234
406703927,77962,-0.0405,-0.0376,1.0210,0.5493,1.5869,-0.0610,1,484,811,234
406708927,77963,-0.0405,-0.0396,1.0215,0.6104,1.8311,-0.0610,1,466,875,234
406713923,77964,-0.0420,-0.0391,1.0220,0.6104,1.8311,0.0000,1,466,869,234
406718924,77965,-0.0420,-0.0381,1.0210,0.4883,1.7700,0.0610,1,466,822,234
406723923,77966,-0.0410,-0.0391,1.0200,0.5493,1.8311,-0.0610,1,466,868,234
406728940,77967,-0.0405,-0.0405,1.0195,0.6714,1.6479,0.0000,1,466,869,234
406733925,77968,-0.0425,-0.0391,1.0200,0.6714,1.7700,-0.1221,1,466,833,234
406738923,77969,-0.0425,-0.0381,1.0210,0.7324,1.8311,-0.0610,1,493,866,234
406743931,77970,-0.0430,-0.0396,1.0205,0.7324,1.7090,-0.1831,1,483,867,234
406748929,77971,-0.0435,-0.0425,1.0205,0.9155,1.6479,-0.0610,1,493,876,234
406753925,77972,-0.0435,-0.0435,1.0205,1.0376,1.5869,-0.0610,1,486,773,234
406758931,77973,-0.0435,-0.0415,1.0205,1.1597,1.4648,-0.1221,1,486,845,234
406763922,77974,-0.0435,-0.0381,1.0195,1.2207,1.4038,-0.1831,1,483,850,234
406768926,77975,-0.0430,-0.0356,1.0195,1.3428,1.2817,-0.0610,1,497,849,234
406773924,77976,-0.0435,-0.0356,1.0200,1.2817,1.2207,-0.1221,1,474,840,234
406778930,77977,-0.0435,-0.0366,1.0205,1.3428,1.2207,-0.1221,1,504,837,234
406783922,77978,-0.0425,-0.0376,1.0220,1.0986,1.5259,0.0000,1,492,846,234
406788922,77979,-0.0420,-0.0386,1.0229,1.0986,1.5259,-0.1221,1,506,790,234
406793923,77980,-0.0425,-0.0376,1.0215,1.2207,1.4648,-0.0610,1,477,862,234
406798922,77981,-0.0435,-0.0356,1.0190,1.1597,1.4038,0.0610,1,478,866,234
406803930,77982,-0.0435,-0.0361,1.0195,1.1597,1.4038,0.1221,1,475,875,234
406808923,77983,-0.0425,-0.0371,1.0200,1.2207,1.4648,0.1831,1,469,859,234
406813922,77984,-0.0425,-0.0391,1.0200,1.2207,1.4648,0.1221,1,470,862,234
406818924,77985,-0.0415,-0.0396,1.0205,1.2207,1.7700,0.1831,1,484,853,234
406823925,77986,-0.0405,-0.0376,1.0220,1.2817,1.8311,0.3662,1,466,878,234
406828923,77987,-0.0400,-0.0361,1.0225,1.2817,2.0142,0.4272,1,465,878,234
406833924,77988,-0.0415,-0.0352,1.0234,1.2207,1.9531,0.4272,1,466,879,234
406838928,77989,-0.0430,-0.0352,1.0220,1.0376,2.0142,0.3662,1,466,885,234
406843945,77990,-0.0439,-0.0352,1.0200,1.1597,1.9531,0.5493,1,466,875,234
406848926,77991,-0.0459,-0.0337,1.0195,1.2207,1.8921,0.6104,1,466,881,234
406853928,77992,-0.0454,-0.0342,1.0210,1.0376,1.8921,0.6714,1,493,872,234
406858930,77993,-0.0430,-0.0366,1.0234,1.0986,1.8311,0.7935,1,466,871,234
406863925,77994,-0.0430,-0.0361,1.0244,1.2817,2.0752,0.7324,1,494,877,234
406868926,77995,-0.0435,-0.0386,1.0215,1.0376,1.8311,0.6104,1,465,834,234
406873922,77996,-0.0400,-0.0435,1.0229,1.4038,2.0142,0.6714,1,491,840,234
406878922,77997,-0.0396,-0.0400,1.0225,1.7090,2.5024,0.7935,1,478,846,234
406883928,77998,-0.0464,-0.0352,1.0151,1.5869,2.3804,0.8545,1,508,844,234
406888922,77999,-0.0522,-0.0400,1.0088,1.7090,1.9531,0.7935,1,477,837,234
406893922,78000,-0.0498,-0.0444,1.0093,2.0752,1.8311,1.0376,1,491,834,234
406898930,78001,-0.0444,-0.0386,1.0142,2.3804,2.0752,1.0376,1,491,870,234
406903922,78002,-0.0420,-0.0293,1.0186,2.1362,2.2583,1.0376,1,506,834,234
406908923,78003,-0.0415,-0.0288,1.0195,1.8311,2.4414,1.0376,1,469,877,234
406913928,78004,-0.0425,-0.0347,1.0186,1.8311,2.4414,1.0986,1,470,882,234
406918924,78005,-0.0435,-0.0366,1.0195,1.9531,2.6245,1.2207,1,469,859,234
406923929,78006,-0.0410,-0.0332,1.0229,1.8921,2.9907,1.3428,1,474,869,234
406928923,78007,-0.0410,-0.0298,1.0249,1.8921,3.6011,1.2207,1,484,862,234
406933928,78008,-0.0415,-0.0298,1.0210,1.7700,3.7231,1.4038,1,466,874,234
406938927,78009,-0.0391,-0.0342,1.0166,1.7090,4.0894,1.5259,1,466,880,234
406943930,78010,-0.0376,-0.0371,1.0112,1.8921,5.0049,1.5869,1,466,871,234
406948927,78011,-0.0430,-0.0366,1.0020,2.1362,5.9204,1.6479,1,465,879,234
406953924,78012,-0.0518,-0.0356,0.9971,2.2583,6.1646,1.6479,1,466,883,234
406958957,78013,-0.0518,-0.0342,1.0034,2.3804,5.9204,1.6479,1,466,882,234
406963930,78014,-0.0454,-0.0322,1.0132,2.7466,6.7139,1.6479,1,466,878,234
406968924,78015,-0.0430,-0.0293,1.0181,2.8076,7.3853,1.4648,1,465,885,234
406973925,78016,-0.0415,-0.0312,1.0200,2.7466,7.5684,1.4648,1,493,878,234
406978930,78017,-0.0386,-0.0347,1.0225,3.0518,7.9956,1.4648,1,464,833,234
406983929,78018,-0.0386,-0.0308,1.0269,3.3569,8.6670,1.4038,1,481,815,234
406988928,78019,-0.0405,-0.0249,1.0342,3.1738,9.3384,1.2817,1,480,852,234
406993922,78020,-0.0430,-0.0234,1.0366,2.9907,9.8267,1.2207,1,491,856,234
406998923,78021,-0.0488,-0.0244,1.0317,2.8687,10.1929,1.1597,1,474,842,234
407003925,78022,-0.0552,-0.0273,1.0269,2.6245,10.0098,1.0986,1,501,860,234
407008927,78023,-0.0620,-0.0269,1.0234,2.6245,9.8877,0.9766,1,480,857,234
407013922,78024,-0.0693,-0.0195,1.0205,2.3804,9.3994,0.8545,1,492,894,234
407018926,78025,-0.0669,-0.0176,1.0244,1.8921,8.3618,0.7324,1,468,841,234
407023931,78026,-0.0601,-0.0234,1.0308,1.6479,8.3008,0.7324,1,467,878,234
407028922,78027,-0.0605,-0.0234,1.0288,1.5869,7.9956,0.7935,1,465,870,234
407033925,78028,-0.0645,-0.0171,1.0234,1.0986,7.2021,0.7324,1,472,866,234
407038927,78029,-0.0679,-0.0161,1.0205,0.6714,6.7749,0.6104,1,467,861,234
407043922,78030,-0.0708,-0.0200,1.0210,0.3662,6.1646,0.3662,1,484,859,234
407048925,78031,-0.0713,-0.0225,1.0220,0.2441,5.4321,0.1831,1,466,875,234
407053929,78032,-0.0698,-0.0264,1.0205,0.0000,5.1270,0.1221,1,466,881,234
407058930,78033,-0.0718,-0.0288,1.0146,0.1221,4.5166,0.0000,1,466,830,234
407063928,78034,-0.0762,-0.0278,1.0103,0.1831,3.8452,-0.1221,1,466,835,234
407068947,78035,-0.0757,-0.0273,1.0117,0.1831,3.2959,-0.1221,1,465,878,234
407073930,78036,-0.0737,-0.0259,1.0132,0.2441,2.9907,-0.3662,1,465,880,234
407078925,78037,-0.0767,-0.0205,1.0088,0.1831,2.5024,-0.4272,1,493,882,234
407083927,78038,-0.0840,-0.0190,1.0024,-0.1221,1.6479,-0.5493,1,485,878,234
407088931,78039,-0.0845,-0.0259,1.0029,-0.2441,0.6104,-0.7324,1,494,876,234
407093929,78040,-0.0757,-0.0322,1.0103,0.0610,0.0610,-0.8545,1,464,856,234
407098945,78041,-0.0679,-0.0298,1.0166,0.2441,0.1831,-0.8545,1,491,842,234
407103927,78042,-0.0688,-0.0273,1.0176,0.1221,-0.1221,-0.8545,1,481,852,234
407108926,78043,-0.0723,-0.0342,1.0132,0.4272,-0.5493,-0.7935,1,507,844,234
407113927,78044,-0.0737,-0.0396,1.0093,0.7935,-0.7935,-0.9766,1,491,837,234
407118923,78045,-0.0732,-0.0381,1.0063,1.0986,-1.1597,-0.9766,1,492,833,234
407123925,78046,-0.0708,-0.0352,1.0059,1.4038,-1.3428,-1.0986,1,489,886,234
407128930,78047,-0.0659,-0.0352,1.0083,1.7090,-1.2817,-1.2207,1,496,836,234
407133930,78048,-0.0625,-0.0366,1.0127,2.1973,-1.2817,-1.3428,1,466,869,234
407138926,78049,-0.0610,-0.0381,1.0142,2.6245,-1.2817,-1.4038,1,466,880,234
407143930,78050,-0.0625,-0.0425,1.0098,3.2349,-1.0376,-1.5259,1,467,865,234
407148922,78051,-0.0674,-0.0459,1.0068,3.9673,-1.0376,-1.6479,1,465,855,234
407153922,78052,-0.0659,-0.0449,1.0083,4.6387,-1.3428,-1.6479,1,483,861,234
407158927,78053,-0.0601,-0.0381,1.0127,5.3711,-1.1597,-1.6479,1,466,866,234
407163927,78054,-0.0562,-0.0298,1.0166,5.5542,-1.0986,-1.7700,1,466,873,234
407168928,78055,-0.0557,-0.0264,1.0161,5.5542,-0.8545,-1.7700,1,466,880,234
407173930,78056,-0.0576,-0.0303,1.0132,5.6152,-0.6714,-1.7090,1,466,878,234
407178928,78057,-0.0581,-0.0361,1.0117,6.2256,-0.4883,-1.5869,1,465,879,234
407183929,78058,-0.0586,-0.0352,1.0112,6.9580,-0.3052,-1.5869,1,465,886,234
407188923,78059,-0.0625,-0.0312,1.0098,7.1411,-0.3662,-1.6479,1,492,879,234
407193930,78060,-0.0654,-0.0298,1.0103,7.2632,-0.6104,-1.5869,1,493,907,234
407198925,78061,-0.0630,-0.0283,1.0137,7.5684,-0.6104,-1.4648,1,477,875,234
407203928,78062,-0.0620,-0.0259,1.0156,7.8735,-0.4272,-1.4038,1,464,814,234
407208922,78063,-0.0649,-0.0244,1.0132,7.9346,-0.6104,-1.5259,1,491,836,234
407213931,78064,-0.0654,-0.0234,1.0117,8.0566,-0.9766,-1.6479,1,483,850,234
407218924,78065,-0.0640,-0.0205,1.0122,8.3618,-1.0376,-1.5259,1,485,854,234
407223923,78066,-0.0654,-0.0195,1.0103,8.3008,-0.9766,-1.6479,1,483,872,234
407228926,78067,-0.0723,-0.0205,1.0034,8.6060,-1.5869,-1.8921,1,492,836,234
407233926,78068,-0.0781,-0.0215,0.9985,8.9722,-2.2583,-1.9531,1,470,874,234
407238927,78069,-0.0771,-0.0239,0.9995,9.2163,-2.9907,-2.1973,1,496,897,234
407243930,78070,-0.0728,-0.0234,1.0054,9.7656,-3.5400,-2.3193,1,467,876,234
407248923,78071,-0.0688,-0.0176,1.0127,10.0098,-4.0283,-2.5024,1,466,881,234
407253929,78072,-0.0654,-0.0103,1.0186,9.7656,-4.6387,-2.6245,1,472,841,234
407258923,78073,-0.0625,-0.0083,1.0200,9.7656,-5.0049,-2.7466,1,467,868,234
407263931,78074,-0.0620,-0.0088,1.0195,9.8877,-5.3711,-2.8687,1,467,858,234
407268922,78075,-0.0615,-0.0068,1.0190,9.7656,-5.7983,-2.9907,1,483,860,234
407273930,78076,-0.0596,-0.0078,1.0186,9.6436,-5.8594,-2.9907,1,466,886,234
407278922,78077,-0.0601,-0.0117,1.0186,9.7046,-6.1035,-3.0518,1,466,878,234
407283926,78078,-0.0625,-0.0103,1.0161,10.0098,-6.7749,-3.0518,1,466,872,234
407288929,78079,-0.0654,-0.0063,1.0107,10.0708,-7.2632,-3.2959,1,466,885,234
407293929,78080,-0.0674,-0.0029,1.0093,9.9487,-7.6904,-3.4790,1,466,895,234
407298957,78081,-0.0635,0.0015,1.0142,9.7656,-8.3618,-3.6011,1,466,881,234
407303928,78082,-0.0566,0.0054,1.0205,9.5215,-8.5449,-3.6011,1,465,876,234
407308922,78083,-0.0542,0.0054,1.0200,9.2163,-8.6060,-3.8452,1,466,876,234
407313922,78084,-0.0586,0.0029,1.0151,8.8501,-8.9111,-3.9062,1,493,877,234
407318926,78085,-0.0601,0.0020,1.0142,8.5449,-9.4604,-4.0894,1,464,813,234
407323930,78086,-0.0537,0.0103,1.0186,8.2397,-9.2163,-4.3335,1,475,853,234
407328930,78087,-0.0488,0.0205,1.0205,7.2632,-8.9111,-4.4556,1,476,857,234
407333922,78088,-0.0547,0.0210,1.0171,6.4087,-9.2163,-4.6997,1,485,856,234
407338925,78089,-0.0669,0.0176,1.0088,5.9814,-10.1929,-5.0659,1,471,838,234
407343926,78090,-0.0747,0.0137,1.0020,5.6152,-11.1084,-5.7373,1,494,855,234
407348924,78091,-0.0786,0.0107,1.0000,5.2490,-12.2681,-6.3477,1,473,821,234
407353928,78092,-0.0796,0.0112,1.0010,5.2490,-13.4888,-6.8970,1,490,891,234
407358927,78093,-0.0786,0.0137,1.0000,4.8218,-14.6484,-7.3242,1,507,857,234
407363930,78094,-0.0820,0.0142,0.9980,4.2725,-15.9302,-7.5684,1,478,888,234
407368927,78095,-0.0918,0.0161,0.9961,3.6621,-17.9443,-7.8125,1,471,885,234
407373930,78096,-0.0977,0.0195,0.9995,2.8687,-20.2637,-8.0566,1,474,891,234
407378931,78097,-0.1016,0.0210,1.0034,2.0752,-22.5220,-7.9956,1,470,881,234
407383928,78098,-0.1084,0.0254,1.0015,1.1597,-25.3906,-7.8735,1,484,876,234
407388927,78099,-0.1055,0.0327,1.0034,0.0000,-28.5645,-7.8735,1,466,878,234
407393922,78100,-0.0820,0.0259,1.0132,-1.1597,-31.4331,-8.1177,1,466,855,234
407398929,78101,-0.0562,0.0107,1.0225,-1.4038,-33.0811,-8.2397,1,466,898,234
407403926,78102,-0.0459,0.0054,1.0254,-1.2817,-34.8511,-8.3618,1,466,889,234
407408928,78103,-0.0464,0.0073,1.0225,-1.5259,-36.4380,-8.8501,1,466,889,234
407413928,78104,-0.0557,0.0146,1.0161,-1.7700,-38.3301,-9.1553,1,466,886,234
407418929,78105,-0.0640,0.0225,1.0132,-2.1973,-40.5884,-9.2163,1,466,890,234
407423929,78106,-0.0571,0.0205,1.0166,-2.8076,-42.8467,-9.1553,1,492,897,234
407428922,78107,-0.0464,0.0137,1.0200,-3.0518,-44.1894,-9.3384,1,468,901,234
407433929,78108,-0.0464,0.0103,1.0229,-3.1128,-45.8984,-9.3384,1,493,894,234
407438922,78109,-0.0498,0.0103,1.0278,-3.4180,-48.1567,-8.9722,1,480,796,234
407443930,78110,-0.0410,0.0103,1.0356,-3.8452,-50.0488,-8.4839,1,471,875,234
407448926,78111,-0.0205,0.0151,1.0430,-4.1504,-51.3916,-7.5684,1,475,872,234
407453929,78112,0.0024,0.0205,1.0479,-5.1270,-52.4292,-7.1411,1,481,870,234
407458922,78113,0.0229,0.0186,1.0542,-6.1646,-52.9175,-6.4697,1,496,858,234
407463925,78114,0.0337,0.0156,1.0605,-6.8359,-53.3447,-5.3101,1,486,861,234
407468925,78115,0.0361,0.0083,1.0654,-7.5684,-53.4668,-4.1504,1,492,898,234
407473928,78116,0.0312,0.0024,1.0654,-7.9956,-53.7109,-2.8687,1,465,887,234
407478928,78117,0.0117,0.0029,1.0591,-8.3008,-53.9551,-1.5869,1,465,917,234
407483927,78118,-0.0190,0.0049,1.0596,-9.5825,-58.6548,1.0376,1,465,841,234
407488923,78119,-0.0347,0.0063,1.0679,-10.6201,-63.6597,1.3428,1,466,875,234
407493923,78120,-0.0425,0.0068,1.0698,-12.0850,-73.8525,1.8921,1,465,893,234
407498924,78121,-0.0366,0.0103,1.0664,-12.7563,-79.0405,2.6855,1,483,888,234
407503925,78122,-0.0498,0.0161,1.0640,-14.3433,-85.5102,2.7466,1,466,916,234
407508925,78123,-0.0703,0.0151,1.0679,-15.7471,-94.3603,2.5024,1,466,921,234
407513927,78124,-0.0874,0.0122,1.0757,-16.9067,-106.5674,2.4414,1,466,917,234
407518931,78125,-0.1289,0.0171,1.0762,-18.4326,-117.8589,2.0142,1,465,918,234
407523931,78126,-0.2266,0.0400,1.0791,-20.2637,-133.1787,1.8921,1,466,916,234
407528947,78127,-0.3496,0.0679,1.1021,-23.3154,-156.6162,2.0752,1,466,914,234
407533923,78128,-0.4648,0.0874,1.1426,-26.3672,-184.8144,2.9297,1,466,917,234
407538927,78129,-0.5615,0.1050,1.1875,-30.5176,-219.8486,4.2725,1,493,930,234
407543923,78130,-0.6182,0.1230,1.2422,-37.1094,-260.8032,6.3477,1,483,926,234
407548931,78131,-0.6704,0.1592,1.3188,-45.2881,-304.1992,9.3994,1,464,906,234
407553926,78132,-0.8242,0.2471,1.4458,-56.0913,-346.5576,12.2070,1,490,920,234
407558944,78133,-0.9585,0.2944,1.5884,-77.4536,-402.8930,11.7798,1,490,842,234
407563930,78134,-0.8174,0.1938,1.6519,-90.9424,-458.3130,11.5356,1,473,921,234
407568922,78135,-0.5581,0.0879,1.6611,-94.8486,-492.8589,9.2163,1,493,916,234
407573925,78136,-0.5220,0.1162,1.7310,-103.8818,-514.0381,6.7749,1,482,903,234
407578922,78137,-0.7446,0.2065,1.8218,-116.5161,-546.9971,7.0801,1,505,904,234
407583922,78138,-0.9204,0.1909,1.7773,-129.2114,-596.8628,5.1880,1,502,883,234
407588930,78139,-0.8750,0.0654,1.5713,-131.5308,-627.8076,5.0659,1,504,922,234
407593927,78140,-0.7695,-0.0269,1.3076,-132.5073,-643.6767,-1.7700,1,469,904,234
407598922,78141,-0.7163,-0.0747,1.0918,-141.0522,-667.1142,-12.7563,1,472,923,234
407603922,78142,-0.6909,-0.1860,0.9014,-137.8174,-692.8100,-18.6157,1,479,946,234
407608923,78143,-0.6367,-0.3809,0.6748,-116.2720,-717.3461,-21.6675,1,480,933,234
407613922,78144,-0.5156,-0.5732,0.4033,-80.3833,-733.3984,-19.5923,1,483,935,234
407618924,78145,-0.3833,-0.6479,0.2017,-49.4995,-751.8310,-16.4185,1,466,938,234
407623928,78146,0.0225,-0.4380,0.3379,-49.5605,-809.8754,-14.8315,1,466,938,234
407628928,78147,1.3818,-0.2319,1.4976,-86.6699,-846.6796,2.5024,1,466,943,234
407633929,78148,3.5122,-0.8921,3.6387,-128.7231,-759.2773,26.4282,1,466,937,234
407638926,78149,4.6826,-1.9424,5.4238,-66.5283,-494.8730,24.5361,1,466,952,234
407643953,78150,3.5737,-1.8975,5.9229,19.4092,-197.0215,-1.5869,1,466,953,234
407648926,78151,1.1372,-0.9531,5.2495,31.1279,-59.7534,-14.0991,1,466,921,234
407653928,78152,-0.6440,-0.2456,4.0708,20.6909,-37.5977,-7.8735,1,466,954,234
407658927,78153,-1.0156,-0.0522,2.9858,13.7329,-8.0566,-2.1973,1,466,918,234
407663922,78154,-0.7217,-0.0396,2.1992,9.0942,39.3066,-8.0566,1,494,910,234
407668928,78155,-0.5786,0.0376,1.6328,7.6294,65.3076,-17.4561,1,471,795,234
407673941,78156,-0.7163,0.1733,1.2163,5.4932,68.5425,-28.6255,1,491,851,234
407678922,78157,-0.9131,0.2822,0.9834,0.9766,60.3027,-40.7104,1,479,892,234
407683927,78158,-0.9644,0.3252,0.9717,-3.7231,47.9736,-52.2461,1,504,883,234
407688927,78159,-0.8364,0.3184,1.1377,-7.5073,45.1050,-63.9648,1,471,891,234
407693931,78160,-0.6558,0.2910,1.3770,-9.9487,56.7017,-76.1108,1,498,910,234
407698928,78161,-0.5361,0.2500,1.5933,-11.5967,76.9043,-87.8906,1,473,886,234
407703929,78162,-0.4873,0.1831,1.7373,-11.9629,101.3794,-98.0835,1,492,927,234
407708922,78163,-0.4780,0.0947,1.8013,-10.2539,128.2959,-105.8960,1,482,972,234
407713923,78164,-0.4805,0.0005,1.8003,-7.5684,155.2734,-111.0840,1,467,929,234
407718925,78165,-0.4844,-0.0923,1.7549,-3.1128,181.0913,-113.7695,1,467,863,234
407723928,78166,-0.4883,-0.1772,1.6855,3.2349,204.7119,-114.3188,1,465,928,234
407728924,78167,-0.4814,-0.2539,1.6069,10.1929,225.2807,-113.1592,1,475,918,234
407733923,78168,-0.4526,-0.3281,1.5244,17.5781,243.8965,-109.8633,1,483,933,234
407738923,78169,-0.4116,-0.4014,1.4360,25.2075,261.2305,-105.0415,1,466,947,234
407743926,78170,-0.3755,-0.4702,1.3398,31.9824,276.2451,-98.5107,1,466,936,234
407748925,78171,-0.3506,-0.5356,1.2397,36.4990,288.4521,-90.2100,1,466,945,234
407753922,78172,-0.3330,-0.5928,1.1401,39.3066,298.4009,-80.1392,1,466,933,234
407758925,78173,-0.3101,-0.6387,1.0439,39.7339,305.8472,-68.3594,1,466,918,234
407763924,78174,-0.2793,-0.6748,0.9541,38.8794,311.5845,-55.4199,1,466,917,234
407768924,78175,-0.2495,-0.6929,0.8740,37.1704,315.3687,-42.0532,1,466,935,234
407773922,78176,-0.2222,-0.6870,0.8130,34.3628,316.2842,-28.3203,1,465,933,234
407778926,78177,-0.1973,-0.6582,0.7808,29.9072,315.1245,-15.0146,1,494,930,234
407783923,78178,-0.1709,-0.6104,0.7822,24.1089,312.2559,-2.4414,1,466,937,234
407788928,78179,-0.1333,-0.5503,0.8164,17.1509,308.3496,9.1553,1,477,812,234
407793930,78180,-0.0845,-0.4883,0.8735,9.2773,305.7251,19.1040,1,476,892,234
407798926,78181,-0.0347,-0.4277,0.9424,1.5259,304.4434,27.5879,1,499,877,234
407803922,78182,0.0044,-0.3682,1.0156,-5.9204,304.5654,34.9121,1,485,883,234
407808923,78183,0.0322,-0.3140,1.1011,-13.3667,305.6641,40.7104,1,494,869,234
407813930,78184,0.0684,-0.2671,1.2095,-20.2637,307.0679,45.7153,1,471,841,234
407818925,78185,0.1274,-0.2300,1.3350,-26.4893,310.6079,50.2930,1,507,840,234
407823924,78186,0.1997,-0.2041,1.4609,-31.1890,317.1387,54.1382,1,492,935,234
407828924,78187,0.2661,-0.1841,1.5640,-33.0811,325.5005,57.4341,1,465,927,234
407833923,78188,0.3135,-0.1562,1.6304,-33.1421,334.3506,60.2417,1,465,925,234
407838922,78189,0.3486,-0.1113,1.6665,-32.5317,342.0410,62.1948,1,466,946,234
407843922,78190,0.3867,-0.0571,1.6924,-32.2266,348.6328,63.2935,1,465,927,234
407848925,78191,0.4365,-0.0059,1.7129,-31.3721,354.6142,63.5986,1,483,920,234
407853928,78192,0.4878,0.0371,1.7114,-30.4565,360.2295,62.8662,1,466,938,234
407858930,78193,0.5254,0.0732,1.6807,-29.6631,364.0747,61.1572,1,466,945,234
407863929,78194,0.5459,0.1025,1.6382,-29.2969,364.9292,59.1431,1,465,939,234
407868929,78195,0.5562,0.1211,1.6084,-29.9072,363.3423,57.0068,1,466,940,234
407873931,78196,0.5659,0.1230,1.6021,-30.7007,360.3515,55.0537,1,466,936,234
407878952,78197,0.5776,0.1138,1.6133,-30.3955,356.8725,53.4058,1,466,936,234
407883929,78198,0.5859,0.1025,1.6348,-29.9072,353.6377,52.1240,1,466,945,234
407888930,78199,0.5913,0.0923,1.6670,-29.2358,350.2197,51.3916,1,493,945,234
407893928,78200,0.5952,0.0801,1.7114,-27.8931,347.4121,50.9033,1,466,941,234
407898922,78201,0.5874,0.0664,1.7715,-25.8179,344.8486,50.4761,1,494,933,234
407903925,78202,0.5698,0.0576,1.8579,-23.1323,341.7358,50.0488,1,467,895,234
407908945,78203,0.5625,0.0562,1.9746,-20.4468,339.2334,49.4995,1,489,844,234
407913928,78204,0.5752,0.0571,2.1177,-18.1274,339.2944,48.4009,1,473,839,234
407918922,78205,0.6016,0.0542,2.2739,-15.8081,342.2241,46.7529,1,494,918,234
407923927,78206,0.6396,0.0405,2.4263,-13.3057,347.1069,45.0439,1,473,912,234
407928927,78207,0.6919,0.0127,2.5483,-10.3760,354.9194,43.2129,1,495,913,234
407933929,78208,0.7466,-0.0229,2.6123,-6.7139,364.5630,41.1377,1,472,856,234
407938929,78209,0.7925,-0.0532,2.6030,-2.5635,374.1455,39.1846,1,509,897,234
407943927,78210,0.8311,-0.0679,2.5244,0.7935,381.9580,37.1094,1,480,976,234
407948925,78211,0.8657,-0.0669,2.4004,2.8076,387.3901,34.8511,1,482,899,234
407953930,78212,0.9014,-0.0562,2.2622,2.9297,389.4043,32.4097,1,482,904,234
407958923,78213,0.9443,-0.0430,2.1392,0.9155,388.3056,29.5410,1,477,911,234
407963923,78214,1.0010,-0.0366,2.0420,-2.0752,384.7046,26.7944,1,479,909,234
407968924,78215,1.0684,-0.0366,1.9634,-5.6152,379.7607,23.9868,1,484,900,234
407973926,78216,1.1328,-0.0391,1.8950,-9.4604,373.1689,20.9961,1,466,930,234
407978927,78217,1.1968,-0.0479,1.8325,-13.6719,364.5630,18.6768,1,466,923,234
407983930,78218,1.2671,-0.0669,1.7695,-17.4561,354.9194,17.2119,1,466,936,234
407988930,78219,1.3369,-0.0913,1.6968,-20.5688,344.6045,16.2964,1,466,930,234
407993924,78220,1.3960,-0.1187,1.6079,-22.2778,333.2519,16.4185,1,466,937,234
407998923,78221,1.4512,-0.1440,1.5049,-22.6440,320.3735,17.1509,1,466,942,234
408003923,78222,1.5122,-0.1606,1.3926,-22.2778,306.5796,18.2495,1,466,927,234
408008925,78223,1.5762,-0.1587,1.2739,-22.3389,291.9312,19.7754,1,466,935,234
408013929,78224,1.6416,-0.1372,1.1577,-23.7427,275.7568,21.3013,1,494,930,234
408018923,78225,1.7109,-0.1030,1.0557,-25.7568,258.6060,22.2168,1,464,944,234
408023926,78226,1.7886,-0.0586,0.9727,-28.5034,240.7226,22.2168,1,481,832,234
408028929,78227,1.8804,-0.0068,0.9058,-31.2500,222.5952,20.9961,1,486,836,234
408033929,78228,1.9883,0.0435,0.8438,-33.1421,204.8950,17.9443,1,509,911,234
408038925,78229,2.1030,0.0898,0.7661,-33.4473,187.8052,13.3667,1,473,927,234
408043928,78230,2.2075,0.1338,0.6533,-32.8979,170.7764,7.5684,1,506,906,234
408048925,78231,2.2852,0.1704,0.5005,-32.5928,153.1372,1.4038,1,484,838,234
408053929,78232,2.3252,0.1909,0.3223,-32.1655,133.5449,-4.5776,1,493,921,234
408058928,78233,2.3281,0.1841,0.1450,-30.8838,110.5957,-9.6436,1,465,908,234
408063930,78234,2.3101,0.1411,-0.0005,-27.9541,84.1675,-12.7563,1,466,919,234
408068930,78235,2.2847,0.0674,-0.0952,-23.0103,55.7861,-13.4888,1,483,927,234
408073925,78236,2.2559,-0.0254,-0.1304,-16.0522,26.6724,-12.0850,1,465,934,234
408078930,78237,2.2251,-0.1226,-0.1069,-7.1411,-2.6855,-8.7280,1,482,908,234
408083926,78238,2.1816,-0.1997,-0.0410,2.1362,-30.4565,-4.1504,1,484,875,234
408088928,78239,2.1304,-0.2524,0.0562,9.3384,-57.2510,0.7935,1,466,908,234
408093922,78240,2.0938,-0.3018,0.1724,14.8926,-81.7871,5.3101,1,466,899,234
408098927,78241,2.2842,0.0034,0.0151,20.4468,-125.4272,6.7749,1,466,947,234
408103929,78242,2.1548,1.1904,-1.2075,16.1133,-274.1699,-14.9536,1,466,926,234
408108924,78243,0.7905,1.3989,-2.0913,-114.6240,-343.5669,-69.8853,1,466,939,234
408113927,78244,-0.1333,-0.5029,-0.7720,-176.3306,-354.8584,-61.4624,1,466,952,234
408118924,78245,0.1445,-1.9619,1.2085,-53.2227,-308.5327,-26.0620,1,466,950,234
408123930,78246,-0.3950,-1.9653,2.3208,-28.0762,-258.0566,-48.5229,1,492,941,234
408128922,78247,-1.4697,-1.7754,2.6494,-7.4463,-277.4658,-49.0112,1,466,944,234
408133925,78248,-1.3247,-1.7515,2.2734,66.1621,-328.6133,-27.7100,1,494,931,234
408138927,78249,-0.3086,-1.5059,1.5034,77.6367,-304.9316,-28.6865,1,483,946,234
408143923,78250,0.4165,-0.9771,0.7729,79.7729,-304.7485,-3.7842,1,488,875,234
408148925,78251,0.6069,-0.4004,0.3491,66.3452,-319.4580,19.4702,1,499,897,234
408153925,78252,0.4634,-0.0190,0.5874,41.1987,-329.8340,30.0903,1,491,894,234
408158925,78253,0.3218,0.1475,1.5107,31.4941,-343.7500,39.3677,1,497,912,234
408163923,78254,0.3569,0.2646,2.6602,27.7100,-334.7778,40.5273,1,481,899,234
408168931,78255,0.5762,0.4912,3.4204,34.2407,-308.9600,37.5977,1,504,907,234
408173923,78256,0.8662,0.8003,3.4761,39.2456,-270.9351,27.3437,1,470,937,234
408178923,78257,0.9399,1.0063,2.9946,34.1187,-228.9429,10.3149,1,478,914,234
408183928,78258,0.6807,0.9893,2.3965,24.2920,-203.4912,-4.5166,1,474,941,234
408188924,78259,0.3301,0.7544,2.0103,10.7422,-193.5425,-13.5498,1,469,921,234
408193928,78260,0.1294,0.3887,1.8589,-2.9907,-184.3262,-17.8833,1,466,918,234
408198931,78261,0.0796,0.0430,1.7534,-13.4888,-173.2178,-18.0664,1,483,902,234
408203928,78262,0.0610,-0.1611,1.5659,-23.8037,-165.0390,-15.4419,1,466,932,234
408208926,78263,-0.0317,-0.1606,1.2451,-42.1753,-164.6728,-9.7656,1,465,946,234
408213928,78264,-0.1196,-0.1963,1.2363,-45.6543,-162.7197,-9.6436,1,466,935,234
408218928,78265,-0.3706,-0.6108,1.6221,-38.1470,-151.3672,0.9155,1,466,935,234
408223929,78266,-0.1006,-1.0493,2.1553,2.9297,-188.1714,16.5405,1,466,912,234
408228931,78267,0.6021,-1.1699,2.2148,20.0195,-149.1089,19.5312,1,466,917,234
408233931,78268,0.7222,-1.1221,1.9253,22.7051,-105.5908,22.0947,1,466,956,234
408238926,78269,0.3574,-0.8521,1.6187,45.0439,-103.6377,28.6255,1,492,935,234
408243922,78270,0.0630,-0.3276,1.4087,65.7349,-106.6894,29.9683,1,465,941,234
408248924,78271,-0.0234,0.1846,1.3179,62.7441,-96.1304,21.1792,1,494,935,234
408253923,78272,-0.0107,0.3359,1.3667,55.4810,-89.8437,14.1602,1,465,933,234
408258930,78273,0.1025,0.1177,1.4736,53.5889,-84.5337,11.2915,1,478,869,234
408263926,78274,0.2373,-0.1777,1.4639,57.8003,-71.3501,10.9253,1,473,838,234
408268926,78275,0.2168,-0.3447,1.2988,63.4155,-56.7627,11.5967,1,500,909,234
408273924,78276,0.0713,-0.3467,1.1138,71.1060,-54.8096,12.8174,1,481,916,234
408278922,78277,-0.0244,-0.1968,1.0342,77.5146,-55.7861,14.2212,1,508,896,234
408283926,78278,-0.0015,0.0068,1.1084,77.7588,-53.8940,14.2212,1,489,921,234
408288923,78279,0.0957,0.1553,1.2529,72.8760,-45.1050,12.8784,1,501,840,234
408293922,78280,0.1489,0.2031,1.3232,67.7490,-33.7524,10.8643,1,509,932,234
408298924,78281,0.1055,0.1675,1.2729,60.9741,-26.0620,9.3384,1,483,918,234
408303927,78282,0.0356,0.1030,1.1836,56.1523,-22.9492,8.5449,1,480,916,234
408308923,78283,-0.0127,0.0933,1.1562,53.2227,-20.6909,7.0801,1,479,915,234
