t_us, seq, ax, ay, az, gx, gy, gz, valid, t_imu_us, t_serial_us, missed
392171302,67474,-0.0288,-0.0464,1.0220,-0.4272,0.7324,-0.3052,1,466,878,474
392176304,67475,-0.0288,-0.0474,1.0205,-0.3052,0.6714,-0.3662,1,466,878,474
392181308,67476,-0.0288,-0.0483,1.0205,-0.3052,0.4883,-0.2441,1,466,876,474
392186304,67477,-0.0283,-0.0479,1.0205,-0.1831,0.5493,-0.2441,1,483,879,474
392191307,67478,-0.0273,-0.0464,1.0215,-0.1831,0.7324,-0.4272,1,466,872,474
392196302,67479,-0.0293,-0.0454,1.0225,-0.2441,0.5493,-0.4272,1,484,870,474
392201303,67480,-0.0308,-0.0459,1.0210,-0.1831,0.4883,-0.3052,1,472,910,474
392206303,67481,-0.0303,-0.0469,1.0190,-0.0610,0.4272,-0.3052,1,477,858,474
392211302,67482,-0.0293,-0.0483,1.0200,0.0000,0.4883,-0.4272,1,479,865,474
392216301,67483,-0.0283,-0.0483,1.0210,0.0000,0.4272,-0.3052,1,481,812,474
392221305,67484,-0.0278,-0.0469,1.0215,0.0610,0.3662,-0.2441,1,509,811,474
392226302,67485,-0.0283,-0.0459,1.0220,0.1831,0.4272,-0.3052,1,465,811,474
392231304,67486,-0.0283,-0.0464,1.0229,0.1221,0.4883,-0.3662,1,508,798,474
392236307,67487,-0.0269,-0.0459,1.0239,0.1221,0.5493,-0.2441,1,479,856,474
392241307,67488,-0.0259,-0.0459,1.0239,0.1221,0.5493,-0.3052,1,488,859,474
392246306,67489,-0.0264,-0.0469,1.0239,0.2441,0.4883,-0.3662,1,477,842,474
392251309,67490,-0.0278,-0.0474,1.0225,0.1831,0.4883,-0.3052,1,478,870,474
392256304,67491,-0.0278,-0.0459,1.0215,0.1831,0.6104,-0.2441,1,485,847,474
392261307,67492,-0.0283,-0.0454,1.0215,0.1831,0.7324,-0.3052,1,476,848,474
392266305,67493,-0.0288,-0.0464,1.0225,0.1831,0.7324,-0.3662,1,493,851,474
392271307,67494,-0.0278,-0.0459,1.0229,0.1221,0.6714,-0.3662,1,466,881,474
392276306,67495,-0.0269,-0.0439,1.0220,0.1831,0.6714,-0.3662,1,466,878,474
392281306,67496,-0.0269,-0.0435,1.0220,0.2441,0.7324,-0.3052,1,466,880,474
392286307,67497,-0.0273,-0.0444,1.0229,0.2441,0.7324,-0.3052,1,465,875,474
392291309,67498,-0.0283,-0.0454,1.0234,0.0610,0.6104,-0.1831,1,483,881,474
392296302,67499,-0.0278,-0.0444,1.0229,0.0000,0.6714,-0.3052,1,466,867,474
392301309,67500,-0.0273,-0.0444,1.0229,0.0000,0.7935,-0.3662,1,484,830,474
392306301,67501,-0.0273,-0.0459,1.0229,0.0000,0.6104,-0.2441,1,469,826,474
392311301,67502,-0.0288,-0.0464,1.0234,0.0610,0.7324,-0.3052,1,478,829,474
392316302,67503,-0.0283,-0.0454,1.0234,0.0610,0.7935,-0.3052,1,482,873,474
392321305,67504,-0.0278,-0.0439,1.0229,0.1831,0.7935,-0.1221,1,465,873,474
392326303,67505,-0.0273,-0.0435,1.0229,0.1221,0.9155,-0.0610,1,507,877,474
392331302,67506,-0.0278,-0.0444,1.0225,0.0610,0.9766,-0.3662,1,466,856,474
392336302,67507,-0.0293,-0.0469,1.0205,0.3052,0.7935,-0.3052,1,508,791,474
392341308,67508,-0.0312,-0.0474,1.0205,0.2441,0.5493,-0.3662,1,483,760,474
392346303,67509,-0.0303,-0.0459,1.0220,0.2441,0.4272,-0.3662,1,486,839,474
392351304,67510,-0.0283,-0.0444,1.0239,0.3052,0.3662,-0.3052,1,490,848,474
392356307,67511,-0.0273,-0.0435,1.0249,0.0610,0.4883,-0.3662,1,478,869,474
392361302,67512,-0.0278,-0.0435,1.0239,0.2441,0.5493,-0.2441,1,483,848,474
392366302,67513,-0.0283,-0.0435,1.0215,0.2441,0.6104,-0.2441,1,472,857,474
392371303,67514,-0.0293,-0.0439,1.0210,0.1831,0.5493,-0.4272,1,493,849,474
392376309,67515,-0.0303,-0.0444,1.0215,0.1831,0.6104,-0.4272,1,466,881,474
392381307,67516,-0.0298,-0.0435,1.0220,0.2441,0.3662,-0.3662,1,466,874,474
392386307,67517,-0.0293,-0.0439,1.0225,0.2441,0.4883,-0.3662,1,466,880,474
392391309,67518,-0.0298,-0.0459,1.0220,0.3052,0.4883,-0.3662,1,466,881,474
392396310,67519,-0.0298,-0.0459,1.0220,0.1831,0.5493,-0.2441,1,466,871,474
392401301,67520,-0.0303,-0.0449,1.0220,0.3052,0.3662,-0.2441,1,465,880,474
392406309,67521,-0.0308,-0.0444,1.0220,0.2441,0.2441,-0.3052,1,484,864,474
392411305,67522,-0.0298,-0.0430,1.0220,0.0610,0.4272,-0.3052,1,465,875,474
392416306,67523,-0.0293,-0.0410,1.0215,0.0000,0.4272,-0.4272,1,481,860,474
392421308,67524,-0.0303,-0.0415,1.0220,0.0000,0.3052,-0.3052,1,482,821,474
392426302,67525,-0.0312,-0.0425,1.0225,0.0610,0.1221,-0.3052,1,465,803,474
392431306,67526,-0.0303,-0.0430,1.0234,0.0000,0.1221,-0.3052,1,469,890,474
392436305,67527,-0.0293,-0.0439,1.0244,0.0610,0.1831,-0.3662,1,471,728,474
392441303,67528,-0.0298,-0.0454,1.0234,0.0610,0.1221,-0.2441,1,493,791,474
392446306,67529,-0.0308,-0.0449,1.0215,0.1221,-0.1221,-0.3052,1,468,772,474
392451309,67530,-0.0308,-0.0435,1.0205,0.0610,-0.0610,-0.2441,1,487,849,474
392456309,67531,-0.0293,-0.0439,1.0225,0.0000,0.0000,-0.1831,1,490,842,474
392461309,67532,-0.0288,-0.0439,1.0239,0.0000,-0.0610,-0.1831,1,480,757,474
392466306,67533,-0.0288,-0.0439,1.0229,0.0000,-0.1831,-0.3052,1,487,808,474
392471308,67534,-0.0283,-0.0444,1.0225,-0.1831,-0.2441,-0.3662,1,475,806,474
392476308,67535,-0.0278,-0.0444,1.0225,-0.2441,-0.1831,-0.3662,1,492,857,474
392481304,67536,-0.0283,-0.0435,1.0229,-0.3662,-0.0610,-0.1831,1,493,857,474
392486305,67537,-0.0293,-0.0435,1.0229,-0.3662,0.0000,-0.2441,1,466,882,474
392491304,67538,-0.0303,-0.0449,1.0229,-0.3052,-0.0610,-0.3662,1,466,834,474
392496322,67539,-0.0293,-0.0449,1.0220,-0.3052,-0.1221,-0.2441,1,466,875,474
392501308,67540,-0.0283,-0.0449,1.0200,-0.3662,-0.1221,-0.2441,1,466,874,474
392506304,67541,-0.0273,-0.0454,1.0186,-0.2441,-0.1831,-0.4272,1,484,880,474
392511302,67542,-0.0269,-0.0454,1.0195,-0.2441,-0.1221,-0.3052,1,484,873,474
392516302,67543,-0.0288,-0.0444,1.0210,-0.3052,-0.1221,-0.3052,1,465,875,474
392521309,67544,-0.0308,-0.0454,1.0210,-0.3052,0.0000,-0.3052,1,474,859,474
392526306,67545,-0.0312,-0.0459,1.0210,-0.3052,-0.1831,-0.3052,1,472,811,474
392531336,67546,-0.0293,-0.0459,1.0215,-0.1831,-0.4272,-0.3052,1,479,893,474
392536310,67547,-0.0278,-0.0444,1.0234,-0.3052,-0.4272,-0.3052,1,472,872,474
392541307,67548,-0.0283,-0.0430,1.0239,-0.3052,-0.3662,-0.4272,1,503,859,474
392546309,67549,-0.0283,-0.0435,1.0239,-0.4883,-0.4272,-0.5493,1,507,861,474
392551305,67550,-0.0283,-0.0444,1.0239,-0.4883,-0.1831,-0.4883,1,511,863,474
392556301,67551,-0.0283,-0.0439,1.0244,-0.4272,-0.2441,-0.3662,1,476,834,474
392561310,67552,-0.0273,-0.0430,1.0244,-0.4883,-0.2441,-0.3662,1,486,859,474
392566301,67553,-0.0264,-0.0435,1.0244,-0.6714,-0.2441,-0.1831,1,485,853,474
392571303,67554,-0.0269,-0.0444,1.0244,-0.6714,-0.1221,-0.2441,1,480,852,474
392576308,67555,-0.0273,-0.0459,1.0234,-0.6104,-0.0610,-0.3662,1,488,850,474
392581307,67556,-0.0273,-0.0464,1.0229,-0.6714,0.0610,-0.3052,1,487,848,474
392586308,67557,-0.0278,-0.0469,1.0225,-0.4883,0.0000,-0.1831,1,493,843,474
392591306,67558,-0.0278,-0.0479,1.0215,-0.6104,-0.0610,-0.3052,1,466,829,474
392596306,67559,-0.0269,-0.0474,1.0234,-0.7324,0.0610,-0.1831,1,466,870,474
392601308,67560,-0.0264,-0.0459,1.0249,-0.6104,0.1831,-0.1221,1,466,878,474
392606309,67561,-0.0273,-0.0459,1.0244,-0.7324,0.3662,-0.1831,1,466,875,474
392611301,67562,-0.0288,-0.0493,1.0225,-0.6714,0.1831,-0.1831,1,483,884,474
392616307,67563,-0.0298,-0.0503,1.0205,-0.4883,0.1221,-0.1221,1,469,873,474
392621309,67564,-0.0303,-0.0479,1.0220,-0.3662,0.2441,-0.1831,1,484,856,474
392626306,67565,-0.0288,-0.0464,1.0249,-0.4883,0.2441,0.0000,1,465,905,474
392631305,67566,-0.0264,-0.0459,1.0249,-0.5493,0.2441,0.0000,1,474,833,474
392636314,67567,-0.0249,-0.0464,1.0234,-0.6104,0.3052,0.0610,1,479,832,474
392641306,67568,-0.0259,-0.0474,1.0229,-0.5493,0.3052,0.0000,1,473,823,474
392646304,67569,-0.0288,-0.0488,1.0210,-0.5493,0.4272,0.0610,1,510,811,474
392651309,67570,-0.0322,-0.0493,1.0171,-0.4272,0.1831,0.1221,1,468,859,474
392656301,67571,-0.0327,-0.0483,1.0156,-0.1831,-0.0610,0.0000,1,507,858,474
392661301,67572,-0.0298,-0.0474,1.0195,-0.3052,-0.1831,-0.0610,1,471,811,474
392666302,67573,-0.0264,-0.0459,1.0239,-0.2441,-0.2441,0.0000,1,479,845,474
392671307,67574,-0.0269,-0.0449,1.0249,-0.2441,-0.3662,-0.0610,1,487,827,474
392676307,67575,-0.0283,-0.0459,1.0229,-0.3052,-0.3662,-0.0610,1,492,873,474
392681308,67576,-0.0288,-0.0474,1.0229,-0.2441,-0.3662,0.0000,1,476,848,474
392686301,67577,-0.0283,-0.0469,1.0244,-0.2441,-0.4883,-0.0610,1,473,809,474
392691303,67578,-0.0278,-0.0464,1.0249,-0.3052,-0.4272,-0.1831,1,492,848,474
392696306,67579,-0.0273,-0.0454,1.0239,-0.3052,-0.3052,-0.0610,1,466,878,474
392701306,67580,-0.0278,-0.0459,1.0229,-0.3662,-0.3052,-0.0610,1,466,873,474
392706307,67581,-0.0288,-0.0483,1.0215,-0.4272,-0.3052,-0.1221,1,466,877,474
392711305,67582,-0.0288,-0.0498,1.0200,-0.3052,-0.2441,-0.0610,1,465,877,474
392716302,67583,-0.0273,-0.0493,1.0215,-0.2441,-0.3052,-0.1221,1,483,877,474
392721302,67584,-0.0259,-0.0479,1.0234,-0.3052,-0.2441,-0.1831,1,465,865,474
392726301,67585,-0.0264,-0.0464,1.0239,-0.3662,-0.1221,-0.2441,1,484,866,474
392731301,67586,-0.0278,-0.0474,1.0229,-0.3052,-0.2441,-0.2441,1,467,906,474
392736303,67587,-0.0283,-0.0479,1.0225,-0.2441,-0.3052,-0.3662,1,472,871,474
392741306,67588,-0.0273,-0.0464,1.0229,-0.1831,-0.2441,-0.1831,1,472,876,474
392746310,67589,-0.0269,-0.0449,1.0234,-0.3052,-0.2441,-0.3052,1,472,883,474
392751309,67590,-0.0254,-0.0449,1.0229,-0.3662,-0.2441,-0.3662,1,495,872,474
392756303,67591,-0.0259,-0.0464,1.0239,-0.4883,-0.2441,-0.2441,1,501,866,474
392761302,67592,-0.0259,-0.0474,1.0259,-0.6104,-0.1831,-0.1831,1,506,861,474
392766303,67593,-0.0249,-0.0469,1.0259,-0.5493,0.0000,-0.1221,1,464,855,474
392771308,67594,-0.0244,-0.0459,1.0239,-0.5493,0.0610,-0.1221,1,492,799,474
392776303,67595,-0.0249,-0.0464,1.0220,-0.6104,0.1221,-0.2441,1,477,847,474
392781302,67596,-0.0249,-0.0469,1.0215,-0.5493,0.2441,-0.1221,1,490,845,474
392786301,67597,-0.0244,-0.0464,1.0215,-0.6714,0.3052,-0.2441,1,491,850,474
392791310,67598,-0.0254,-0.0469,1.0220,-0.6714,0.3662,-0.3052,1,479,845,474
392796302,67599,-0.0278,-0.0488,1.0215,-0.6714,0.3662,-0.2441,1,492,840,474
392801302,67600,-0.0288,-0.0493,1.0220,-0.5493,0.3662,-0.2441,1,466,882,474
392806304,67601,-0.0283,-0.0479,1.0220,-0.5493,0.3052,-0.3052,1,466,886,474
392811301,67602,-0.0273,-0.0479,1.0220,-0.5493,0.5493,-0.1831,1,466,872,474
392816305,67603,-0.0278,-0.0488,1.0220,-0.4272,0.5493,-0.1221,1,466,883,474
392821305,67604,-0.0273,-0.0483,1.0225,-0.4883,0.4883,-0.1221,1,483,881,474
392826306,67605,-0.0269,-0.0479,1.0234,-0.4883,0.4883,-0.1221,1,466,864,474
392831307,67606,-0.0278,-0.0493,1.0229,-0.4883,0.4272,-0.1221,1,485,861,474
392836303,67607,-0.0293,-0.0503,1.0205,-0.4883,0.3662,-0.1221,1,465,879,474
392841302,67608,-0.0308,-0.0503,1.0181,-0.5493,0.1831,-0.1831,1,465,861,474
392846308,67609,-0.0298,-0.0493,1.0171,-0.4883,0.1831,-0.1831,1,469,872,474
392851320,67610,-0.0269,-0.0479,1.0190,-0.5493,0.1831,-0.3052,1,465,877,474
392856307,67611,-0.0269,-0.0488,1.0205,-0.3662,0.1831,-0.2441,1,477,873,474
392861303,67612,-0.0288,-0.0508,1.0205,-0.3052,0.0610,-0.1831,1,495,863,474
392866305,67613,-0.0298,-0.0508,1.0210,-0.1831,0.0610,-0.3052,1,499,853,474
392871307,67614,-0.0273,-0.0493,1.0229,-0.1831,0.0000,-0.3052,1,464,860,474
392876304,67615,-0.0249,-0.0483,1.0244,-0.3052,0.1831,-0.2441,1,481,806,474
392881302,67616,-0.0239,-0.0488,1.0234,-0.1221,0.0000,-0.1831,1,491,854,474
392886304,67617,-0.0244,-0.0503,1.0229,-0.1831,0.1221,-0.2441,1,491,827,474
392891304,67618,-0.0254,-0.0508,1.0234,0.0000,0.1831,-0.2441,1,478,850,474
392896306,67619,-0.0269,-0.0503,1.0234,-0.0610,0.0610,-0.2441,1,489,803,474
392901304,67620,-0.0269,-0.0483,1.0225,-0.0610,0.3052,-0.3052,1,492,844,474
392906302,67621,-0.0264,-0.0474,1.0205,-0.0610,0.3662,-0.2441,1,466,868,474
392911303,67622,-0.0269,-0.0483,1.0200,0.0610,0.3052,-0.1221,1,466,876,474
392916301,67623,-0.0273,-0.0493,1.0210,0.0000,0.3052,-0.1221,1,466,868,474
392921301,67624,-0.0269,-0.0493,1.0229,-0.0610,0.1831,-0.1831,1,466,825,474
392926308,67625,-0.0264,-0.0493,1.0244,-0.1831,0.1831,-0.2441,1,484,882,474
392931308,67626,-0.0254,-0.0488,1.0254,-0.1831,0.2441,-0.1831,1,466,885,474
392936305,67627,-0.0259,-0.0464,1.0249,-0.1221,0.3052,-0.1221,1,484,872,474
392941308,67628,-0.0264,-0.0454,1.0239,-0.3052,0.3662,-0.1221,1,466,894,474
392946304,67629,-0.0264,-0.0479,1.0234,-0.3052,0.4272,-0.1221,1,473,932,474
392951309,67630,-0.0259,-0.0488,1.0239,-0.2441,0.3662,-0.1831,1,482,863,474
392956328,67631,-0.0249,-0.0474,1.0244,-0.3662,0.3662,-0.0610,1,465,875,474
392961307,67632,-0.0254,-0.0464,1.0244,-0.3662,0.5493,-0.0610,1,472,878,474
392966309,67633,-0.0269,-0.0474,1.0234,-0.4272,0.4883,-0.1831,1,503,859,474
392971304,67634,-0.0283,-0.0488,1.0225,-0.4883,0.4272,-0.2441,1,501,859,474
392976303,67635,-0.0278,-0.0493,1.0210,-0.3052,0.4883,-0.1221,1,465,826,474
392981309,67636,-0.0278,-0.0493,1.0210,-0.3052,0.4883,-0.0610,1,476,852,474
392986303,67637,-0.0283,-0.0483,1.0205,-0.2441,0.4883,-0.1221,1,491,844,474
392991304,67638,-0.0283,-0.0488,1.0190,-0.2441,0.3662,-0.1221,1,487,850,474
392996301,67639,-0.0288,-0.0508,1.0186,-0.1221,0.3052,-0.1221,1,473,852,474
393001309,67640,-0.0288,-0.0518,1.0190,-0.1221,0.3662,-0.1831,1,483,837,474
393006301,67641,-0.0283,-0.0513,1.0205,0.0000,0.3662,-0.0610,1,492,850,474
393011304,67642,-0.0273,-0.0503,1.0210,-0.0610,0.3052,-0.1221,1,466,831,474
393016305,67643,-0.0269,-0.0498,1.0210,0.0610,0.2441,-0.1831,1,466,866,474
393021307,67644,-0.0264,-0.0498,1.0210,0.1221,0.3052,-0.1831,1,466,878,474
393026309,67645,-0.0278,-0.0508,1.0215,0.1831,0.3052,-0.1831,1,466,872,474
393031304,67646,-0.0293,-0.0498,1.0220,0.4272,0.1831,-0.1831,1,483,876,474
393036301,67647,-0.0288,-0.0479,1.0225,0.3662,0.1831,-0.2441,1,465,882,474
393041302,67648,-0.0269,-0.0464,1.0244,0.1831,0.0610,-0.3052,1,484,871,474
393046304,67649,-0.0254,-0.0474,1.0254,0.3052,0.1221,-0.1221,1,467,899,474
393051303,67650,-0.0269,-0.0493,1.0244,0.2441,0.2441,-0.0610,1,470,854,474
393056309,67651,-0.0283,-0.0503,1.0229,0.1831,0.2441,-0.1221,1,475,871,474
393061326,67652,-0.0283,-0.0503,1.0215,0.1221,0.1831,-0.1221,1,471,877,474
393066307,67653,-0.0273,-0.0508,1.0210,0.0610,0.1221,-0.0610,1,475,869,474
393071301,67654,-0.0273,-0.0498,1.0225,0.0610,0.1831,-0.1221,1,498,847,474
393076308,67655,-0.0273,-0.0488,1.0234,0.0000,0.1221,-0.0610,1,503,855,474
393081306,67656,-0.0278,-0.0493,1.0239,0.0610,0.1831,0.0000,1,465,809,474
393086309,67657,-0.0288,-0.0483,1.0239,0.1221,0.2441,0.0000,1,488,809,474
393091305,67658,-0.0298,-0.0474,1.0225,0.1831,0.2441,-0.1221,1,484,807,474
393096302,67659,-0.0293,-0.0488,1.0215,0.1221,0.1221,-0.1831,1,475,846,474
393101307,67660,-0.0273,-0.0513,1.0220,0.3052,0.1221,-0.0610,1,487,844,474
393106308,67661,-0.0259,-0.0498,1.0225,0.2441,0.3052,-0.0610,1,490,840,474
393111304,67662,-0.0249,-0.0464,1.0225,0.1831,0.2441,0.0000,1,493,845,474
393116309,67663,-0.0269,-0.0483,1.0220,0.0000,0.2441,0.0610,1,466,833,474
393121307,67664,-0.0283,-0.0508,1.0215,0.0000,0.2441,0.0000,1,466,830,474
393126301,67665,-0.0278,-0.0508,1.0220,0.1831,0.1831,0.0000,1,466,785,474
393131309,67666,-0.0269,-0.0483,1.0239,0.2441,0.1831,-0.1221,1,466,832,474
393136305,67667,-0.0269,-0.0479,1.0249,0.1221,0.2441,0.0000,1,466,880,474
393141306,67668,-0.0273,-0.0488,1.0244,0.0000,0.4272,-0.0610,1,465,820,474
393146304,67669,-0.0278,-0.0498,1.0215,0.1221,0.3052,0.0000,1,484,784,474
393151306,67670,-0.0283,-0.0503,1.0195,0.1831,0.3052,-0.1221,1,465,818,474
393156304,67671,-0.0288,-0.0513,1.0190,0.2441,0.2441,-0.1831,1,482,862,474
393161308,67672,-0.0288,-0.0513,1.0205,0.2441,0.1831,-0.0610,1,467,873,474
393166329,67673,-0.0283,-0.0508,1.0220,0.4883,0.2441,0.0000,1,467,878,474
393171310,67674,-0.0283,-0.0493,1.0225,0.4883,0.4883,-0.0610,1,472,811,474
393176308,67675,-0.0278,-0.0488,1.0229,0.4883,0.3662,-0.0610,1,498,857,474
393181306,67676,-0.0283,-0.0483,1.0225,0.4883,0.3662,-0.1831,1,498,861,474
393186301,67677,-0.0293,-0.0483,1.0215,0.5493,0.4272,0.0000,1,464,777,474
393191302,67678,-0.0288,-0.0493,1.0225,0.6104,0.4883,0.0000,1,492,804,474
393196309,67679,-0.0273,-0.0503,1.0220,0.6714,0.4272,0.0000,1,479,801,474
393201303,67680,-0.0278,-0.0513,1.0210,0.6104,0.6104,-0.0610,1,483,800,474
393206309,67681,-0.0283,-0.0503,1.0215,0.7324,0.5493,-0.0610,1,476,839,474
393211302,67682,-0.0288,-0.0483,1.0210,0.8545,0.6104,-0.0610,1,480,849,474
393216301,67683,-0.0308,-0.0474,1.0190,0.7935,0.4883,0.0000,1,493,843,474
393221306,67684,-0.0322,-0.0483,1.0186,0.8545,0.4272,0.0000,1,494,796,474
393226306,67685,-0.0312,-0.0498,1.0200,0.9766,0.2441,-0.1221,1,466,833,474
393231307,67686,-0.0293,-0.0493,1.0215,0.7935,0.1831,-0.1831,1,466,900,474
393236309,67687,-0.0283,-0.0483,1.0220,0.8545,0.2441,-0.0610,1,466,881,474
393241303,67688,-0.0283,-0.0479,1.0234,0.9766,0.0610,-0.1221,1,483,879,474
393246304,67689,-0.0288,-0.0469,1.0244,0.9155,0.0000,-0.0610,1,466,861,474
393251308,67690,-0.0283,-0.0454,1.0244,0.9155,0.0000,-0.1221,1,484,828,474
393256310,67691,-0.0264,-0.0454,1.0244,0.9766,0.0000,-0.1831,1,466,825,474
393261302,67692,-0.0254,-0.0469,1.0239,0.9155,0.1221,-0.1221,1,469,831,474
393266307,67693,-0.0259,-0.0474,1.0234,0.7935,0.1221,-0.0610,1,483,867,474
393271302,67694,-0.0269,-0.0469,1.0229,0.8545,0.1221,-0.0610,1,466,868,474
393276301,67695,-0.0278,-0.0469,1.0225,0.6714,0.2441,-0.0610,1,495,850,474
393281301,67696,-0.0283,-0.0474,1.0225,0.8545,0.3052,-0.2441,1,473,854,474
393286307,67697,-0.0269,-0.0479,1.0220,0.8545,0.2441,-0.1831,1,512,854,474
393291301,67698,-0.0259,-0.0469,1.0229,0.8545,0.3052,-0.0610,1,464,810,474
393296307,67699,-0.0264,-0.0454,1.0244,0.7324,0.3052,-0.1831,1,489,840,474
393301309,67700,-0.0264,-0.0454,1.0244,0.8545,0.1831,-0.2441,1,491,851,474
393306302,67701,-0.0273,-0.0469,1.0239,0.8545,0.3052,-0.1221,1,481,875,474
393311301,67702,-0.0288,-0.0493,1.0229,0.7935,0.3662,-0.1831,1,476,841,474
393316309,67703,-0.0269,-0.0483,1.0225,0.8545,0.1831,-0.1221,1,482,856,474
393321304,67704,-0.0259,-0.0459,1.0225,0.6104,0.4883,-0.2441,1,493,846,474
393326309,67705,-0.0283,-0.0439,1.0215,0.4883,0.5493,-0.2441,1,466,871,474
393331301,67706,-0.0317,-0.0444,1.0200,0.4883,0.2441,-0.1221,1,466,882,474
393336312,67707,-0.0308,-0.0459,1.0210,0.4883,0.2441,-0.1831,1,466,878,474
393341306,67708,-0.0283,-0.0474,1.0225,0.4883,0.2441,-0.2441,1,466,874,474
393346303,67709,-0.0269,-0.0479,1.0234,0.4883,0.3052,-0.1221,1,484,879,474
393351302,67710,-0.0278,-0.0459,1.0229,0.4883,0.2441,0.0000,1,467,859,474
393356302,67711,-0.0288,-0.0449,1.0229,0.3052,0.1831,-0.1831,1,484,832,474
393361307,67712,-0.0288,-0.0459,1.0229,0.3052,0.3052,-0.0610,1,478,909,474
393366309,67713,-0.0273,-0.0469,1.0229,0.3662,0.4272,-0.1221,1,479,860,474
393371301,67714,-0.0264,-0.0459,1.0234,0.3052,0.4272,-0.1831,1,480,875,474
393376308,67715,-0.0269,-0.0454,1.0234,0.3662,0.4272,-0.1831,1,472,874,474
393381303,67716,-0.0288,-0.0454,1.0229,0.3662,0.2441,-0.1221,1,493,866,474
393386305,67717,-0.0293,-0.0449,1.0234,0.1831,0.3662,-0.1221,1,479,863,474
393391309,67718,-0.0283,-0.0444,1.0244,0.1221,0.4883,-0.1831,1,511,860,474
393396308,67719,-0.0273,-0.0444,1.0244,0.0610,0.4883,-0.0610,1,467,823,474
393401304,67720,-0.0269,-0.0435,1.0239,0.0000,0.4272,-0.0610,1,492,847,474
393406303,67721,-0.0269,-0.0435,1.0234,-0.0610,0.5493,-0.1221,1,487,822,474
393411308,67722,-0.0264,-0.0444,1.0239,-0.0610,0.4883,-0.2441,1,476,846,474
393416304,67723,-0.0264,-0.0464,1.0234,-0.0610,0.5493,-0.2441,1,481,851,474
393421302,67724,-0.0264,-0.0474,1.0229,-0.0610,0.4272,-0.1831,1,483,850,474
393426306,67725,-0.0269,-0.0469,1.0229,0.0610,0.3662,-0.1221,1,492,850,474
393431306,67726,-0.0278,-0.0469,1.0234,0.1831,0.5493,-0.1221,1,466,871,474
393436303,67727,-0.0298,-0.0479,1.0225,0.1831,0.6104,-0.1831,1,466,880,474
393441324,67728,-0.0308,-0.0474,1.0210,0.1221,0.4272,-0.2441,1,466,874,474
393446310,67729,-0.0298,-0.0454,1.0220,0.1831,0.3662,-0.3052,1,466,871,474
393451308,67730,-0.0283,-0.0459,1.0220,0.1831,0.4272,-0.3662,1,484,878,474
393456305,67731,-0.0269,-0.0469,1.0220,0.3052,0.4272,-0.3052,1,479,870,474
393461309,67732,-0.0264,-0.0469,1.0229,0.1831,0.5493,-0.2441,1,465,865,474
393466308,67733,-0.0264,-0.0464,1.0234,0.1221,0.5493,-0.3052,1,483,908,474
393471309,67734,-0.0264,-0.0459,1.0249,0.0610,0.6104,-0.2441,1,465,863,474
393476311,67735,-0.0273,-0.0454,1.0254,0.0000,0.6104,-0.2441,1,469,863,474
393481309,67736,-0.0278,-0.0449,1.0229,0.0610,0.6104,-0.1221,1,468,814,474
393486307,67737,-0.0283,-0.0459,1.0210,0.0000,0.6714,-0.1831,1,497,855,474
393491304,67738,-0.0293,-0.0479,1.0205,0.0610,0.4272,-0.2441,1,478,731,474
393496308,67739,-0.0298,-0.0493,1.0205,0.1221,0.3662,-0.1221,1,511,856,474
393501304,67740,-0.0288,-0.0488,1.0205,0.1831,0.3662,-0.1221,1,464,856,474
393506306,67741,-0.0283,-0.0479,1.0210,0.0610,0.4883,-0.1221,1,476,852,474
393511303,67742,-0.0288,-0.0464,1.0220,-0.0610,0.5493,-0.3662,1,485,841,474
393516301,67743,-0.0298,-0.0454,1.0225,0.0610,0.4883,-0.3052,1,475,850,474
393521304,67744,-0.0303,-0.0449,1.0225,0.1221,0.4272,-0.2441,1,486,843,474
393526301,67745,-0.0288,-0.0464,1.0229,0.1221,0.5493,-0.2441,1,486,847,474
393531310,67746,-0.0273,-0.0469,1.0234,0.1831,0.4272,-0.1831,1,493,852,474
393536305,67747,-0.0269,-0.0459,1.0215,0.0610,0.3662,-0.2441,1,466,880,474
393541306,67748,-0.0269,-0.0459,1.0200,0.1831,0.4272,-0.3052,1,466,877,474
393546317,67749,-0.0269,-0.0464,1.0200,0.2441,0.3052,-0.1831,1,466,872,474
393551307,67750,-0.0269,-0.0464,1.0210,0.1221,0.3052,-0.2441,1,466,873,474
393556308,67751,-0.0273,-0.0454,1.0210,0.1221,0.4883,-0.2441,1,484,869,474
393561304,67752,-0.0288,-0.0449,1.0200,0.1831,0.5493,-0.1831,1,467,865,474
393566306,67753,-0.0298,-0.0454,1.0195,0.1831,0.3662,-0.2441,1,484,873,474
393571309,67754,-0.0298,-0.0469,1.0210,0.2441,0.3662,-0.3052,1,477,913,474
393576309,67755,-0.0278,-0.0469,1.0220,0.4272,0.3662,-0.1831,1,477,860,474
393581307,67756,-0.0278,-0.0444,1.0229,0.4272,0.3052,-0.1221,1,479,877,474
393586303,67757,-0.0278,-0.0430,1.0234,0.1831,0.4272,-0.2441,1,465,875,474
393591307,67758,-0.0264,-0.0430,1.0229,0.1831,0.4883,-0.3052,1,494,865,474
393596306,67759,-0.0264,-0.0449,1.0225,0.3052,0.4272,-0.3052,1,495,855,474
393601307,67760,-0.0264,-0.0464,1.0215,0.2441,0.5493,-0.2441,1,512,850,474
393606303,67761,-0.0278,-0.0464,1.0205,0.3662,0.5493,-0.3662,1,464,831,474
393611310,67762,-0.0293,-0.0459,1.0200,0.3052,0.4272,-0.3052,1,477,854,474
393616301,67763,-0.0298,-0.0454,1.0210,0.3052,0.3662,-0.2441,1,478,839,474
393621307,67764,-0.0303,-0.0449,1.0225,0.3052,0.2441,-0.2441,1,476,868,474
393626309,67765,-0.0298,-0.0444,1.0239,0.3662,0.3662,-0.2441,1,492,847,474
393631307,67766,-0.0278,-0.0435,1.0234,0.3052,0.3662,-0.2441,1,478,856,474
393636309,67767,-0.0283,-0.0439,1.0244,0.1831,0.3052,-0.1831,1,493,851,474
393641302,67768,-0.0283,-0.0435,1.0249,0.2441,0.4272,-0.2441,1,465,883,474
393646308,67769,-0.0283,-0.0430,1.0244,0.1221,0.5493,-0.1831,1,465,886,474
393651302,67770,-0.0283,-0.0435,1.0239,0.0000,0.4883,-0.1831,1,466,880,474
393656303,67771,-0.0273,-0.0449,1.0239,0.0610,0.4272,-0.1831,1,484,834,474
393661301,67772,-0.0273,-0.0454,1.0239,0.0000,0.5493,-0.1221,1,466,881,474
393666308,67773,-0.0278,-0.0454,1.0234,-0.0610,0.4883,-0.1831,1,484,834,474
393671306,67774,-0.0278,-0.0444,1.0220,0.0610,0.4272,-0.1831,1,466,881,474
393676303,67775,-0.0278,-0.0439,1.0210,-0.0610,0.5493,-0.2441,1,467,871,474
393681304,67776,-0.0278,-0.0444,1.0215,-0.0610,0.6714,-0.1831,1,472,877,474
393686307,67777,-0.0273,-0.0459,1.0220,-0.1221,0.5493,-0.1831,1,477,877,474
393691308,67778,-0.0273,-0.0469,1.0220,-0.0610,0.4883,-0.2441,1,470,876,474
393696305,67779,-0.0283,-0.0454,1.0225,-0.1221,0.4883,-0.1831,1,502,856,474
393701304,67780,-0.0293,-0.0439,1.0229,-0.1221,0.4883,-0.1831,1,491,858,474
393706307,67781,-0.0303,-0.0435,1.0225,0.0000,0.6104,-0.2441,1,510,783,474
393711304,67782,-0.0298,-0.0449,1.0225,0.0610,0.4883,-0.2441,1,492,796,474
393716301,67783,-0.0288,-0.0459,1.0239,0.0000,0.3662,-0.2441,1,483,848,474
393721306,67784,-0.0283,-0.0449,1.0249,-0.0610,0.5493,-0.3052,1,473,835,474
393726302,67785,-0.0288,-0.0449,1.0239,0.0000,0.7324,-0.3052,1,489,871,474
393731301,67786,-0.0298,-0.0459,1.0215,0.0610,0.6104,-0.3052,1,483,805,474
393736303,67787,-0.0303,-0.0474,1.0200,0.0000,0.6104,-0.3662,1,488,838,474
393741301,67788,-0.0298,-0.0464,1.0200,0.0000,0.6104,-0.2441,1,493,796,474
393746310,67789,-0.0293,-0.0449,1.0210,0.0610,0.5493,-0.3052,1,466,824,474
393751309,67790,-0.0278,-0.0444,1.0229,0.0000,0.6714,-0.3052,1,466,872,474
393756308,67791,-0.0278,-0.0444,1.0239,0.1831,0.6714,-0.2441,1,466,832,474
393761303,67792,-0.0278,-0.0449,1.0229,0.0610,0.6104,-0.3662,1,483,885,474
393766303,67793,-0.0288,-0.0469,1.0210,0.0000,0.6104,-0.4272,1,465,868,474
393771304,67794,-0.0308,-0.0493,1.0195,0.0610,0.6104,-0.3052,1,484,853,474
393776302,67795,-0.0327,-0.0493,1.0200,0.0610,0.6104,-0.2441,1,473,897,474
393781310,67796,-0.0322,-0.0469,1.0210,0.1221,0.4883,-0.3662,1,482,866,474
393786307,67797,-0.0312,-0.0459,1.0215,0.0000,0.4883,-0.3662,1,482,870,474
393791324,67798,-0.0308,-0.0459,1.0220,0.0610,0.4883,-0.4272,1,467,835,474
393796305,67799,-0.0303,-0.0479,1.0205,-0.1221,0.5493,-0.5493,1,476,850,474
393801301,67800,-0.0303,-0.0493,1.0186,0.0610,0.4272,-0.4272,1,499,855,474
393806307,67801,-0.0312,-0.0493,1.0176,0.1831,0.3662,-0.3662,1,511,856,474
393811308,67802,-0.0322,-0.0479,1.0176,0.1221,0.1831,-0.3662,1,466,833,474
393816309,67803,-0.0317,-0.0469,1.0186,0.2441,0.1221,-0.4272,1,487,848,474
393821304,67804,-0.0312,-0.0464,1.0205,0.3662,0.0610,-0.4272,1,491,847,474
393826301,67805,-0.0303,-0.0459,1.0220,0.1831,0.0000,-0.3662,1,477,873,474
393831307,67806,-0.0288,-0.0459,1.0225,0.1831,0.0610,-0.3052,1,487,800,474
393836302,67807,-0.0293,-0.0464,1.0220,0.2441,-0.0610,-0.3052,1,490,844,474
393841303,67808,-0.0303,-0.0469,1.0215,0.1221,-0.0610,-0.3662,1,493,843,474
393846309,67809,-0.0298,-0.0454,1.0210,0.1831,0.0000,-0.4272,1,466,867,474
393851303,67810,-0.0288,-0.0439,1.0220,0.1831,0.0610,-0.3662,1,466,831,474
393856308,67811,-0.0283,-0.0439,1.0220,0.1831,0.0000,-0.3052,1,466,883,474
393861307,67812,-0.0278,-0.0454,1.0220,0.0610,0.1221,-0.2441,1,466,832,474
393866305,67813,-0.0273,-0.0469,1.0225,0.1831,0.0000,-0.3052,1,484,878,474
393871302,67814,-0.0283,-0.0474,1.0225,0.1831,0.0000,-0.3052,1,468,771,474
393876305,67815,-0.0288,-0.0464,1.0220,0.2441,-0.0610,-0.3052,1,484,855,474
393881306,67816,-0.0298,-0.0459,1.0210,0.1831,0.0610,-0.3662,1,480,902,474
393886303,67817,-0.0303,-0.0449,1.0205,0.1831,0.1831,-0.3662,1,465,865,474
393891303,67818,-0.0312,-0.0449,1.0210,0.2441,0.0000,-0.3662,1,470,879,474
393896327,67819,-0.0312,-0.0449,1.0215,0.2441,-0.0610,-0.3662,1,474,840,474
393901305,67820,-0.0293,-0.0454,1.0220,0.4272,0.0000,-0.3052,1,474,858,474
393906301,67821,-0.0283,-0.0459,1.0229,0.3052,0.1221,-0.3052,1,475,733,474
393911309,67822,-0.0288,-0.0464,1.0239,0.2441,0.1221,-0.2441,1,511,850,474
393916309,67823,-0.0288,-0.0459,1.0249,0.3052,0.2441,-0.2441,1,464,813,474
393921310,67824,-0.0278,-0.0449,1.0254,0.3052,0.0610,-0.1831,1,485,823,474
393926308,67825,-0.0278,-0.0449,1.0244,0.1831,0.1221,-0.1831,1,485,846,474
393931307,67826,-0.0283,-0.0459,1.0234,0.2441,0.1831,-0.1221,1,475,854,474
393936301,67827,-0.0283,-0.0464,1.0220,0.1831,0.1831,-0.1831,1,483,851,474
393941309,67828,-0.0278,-0.0454,1.0205,0.2441,0.0610,-0.2441,1,475,854,474
393946310,67829,-0.0283,-0.0454,1.0210,0.3052,0.0610,-0.2441,1,489,854,474
393951309,67830,-0.0303,-0.0459,1.0220,0.3052,0.0610,-0.1831,1,466,846,474
393956301,67831,-0.0312,-0.0459,1.0215,0.4883,0.0610,-0.1831,1,466,868,474
393961306,67832,-0.0298,-0.0454,1.0215,0.3052,0.0610,-0.1831,1,466,899,474
393966301,67833,-0.0273,-0.0449,1.0215,0.3662,0.1221,-0.1831,1,466,874,474
393971308,67834,-0.0259,-0.0454,1.0210,0.3052,0.1221,-0.3052,1,484,880,474
393976308,67835,-0.0283,-0.0459,1.0210,0.3662,0.0610,-0.2441,1,466,856,474
393981308,67836,-0.0312,-0.0444,1.0205,0.3052,0.1221,-0.2441,1,484,819,474
393986305,67837,-0.0303,-0.0439,1.0210,0.4883,0.0000,-0.1221,1,477,898,474
393991306,67838,-0.0278,-0.0449,1.0229,0.4883,-0.0610,-0.1831,1,466,814,474
393996306,67839,-0.0273,-0.0454,1.0249,0.6104,0.0000,-0.2441,1,469,880,474
394001334,67840,-0.0283,-0.0449,1.0234,0.4883,0.0000,-0.3052,1,472,816,474
394006309,67841,-0.0278,-0.0449,1.0210,0.4883,0.0000,-0.3052,1,474,813,474
394011309,67842,-0.0278,-0.0459,1.0195,0.5493,-0.1221,-0.3052,1,478,734,474
394016306,67843,-0.0298,-0.0459,1.0200,0.4883,0.0000,-0.4272,1,511,855,474
394021309,67844,-0.0317,-0.0459,1.0210,0.6104,-0.0610,-0.3662,1,474,809,474
394026303,67845,-0.0317,-0.0454,1.0220,0.6104,-0.1221,-0.2441,1,483,854,474
394031305,67846,-0.0293,-0.0439,1.0229,0.5493,-0.1831,-0.2441,1,492,848,474
394036305,67847,-0.0264,-0.0435,1.0244,0.5493,-0.2441,-0.4272,1,479,878,474
394041304,67848,-0.0259,-0.0439,1.0234,0.6104,-0.0610,-0.3052,1,491,853,474
394046303,67849,-0.0273,-0.0444,1.0205,0.5493,-0.0610,-0.2441,1,479,843,474
394051306,67850,-0.0288,-0.0459,1.0195,0.4272,-0.1221,-0.2441,1,493,853,474
394056305,67851,-0.0288,-0.0464,1.0210,0.4883,-0.1221,-0.3052,1,466,879,474
394061304,67852,-0.0283,-0.0454,1.0225,0.4883,-0.0610,-0.2441,1,465,870,474
394066307,67853,-0.0278,-0.0435,1.0215,0.4272,-0.1221,-0.2441,1,466,880,474
394071304,67854,-0.0278,-0.0425,1.0205,0.4272,0.0000,-0.3052,1,483,878,474
394076307,67855,-0.0288,-0.0430,1.0205,0.4883,0.0000,-0.3662,1,465,820,474
394081304,67856,-0.0283,-0.0439,1.0215,0.3662,0.0610,-0.3052,1,484,830,474
394086302,67857,-0.0269,-0.0435,1.0225,0.4883,0.0610,-0.3052,1,477,904,474
394091308,67858,-0.0264,-0.0420,1.0229,0.3662,0.0610,-0.3052,1,466,858,474
394096307,67859,-0.0264,-0.0420,1.0249,0.4272,0.1831,-0.3052,1,465,863,474
394101322,67860,-0.0259,-0.0425,1.0264,0.3662,0.1831,-0.3662,1,467,874,474
394106304,67861,-0.0269,-0.0430,1.0239,0.3662,0.2441,-0.1831,1,477,860,474
394111305,67862,-0.0283,-0.0435,1.0205,0.4272,0.1831,-0.2441,1,498,863,474
394116302,67863,-0.0298,-0.0435,1.0195,0.4272,0.0610,-0.2441,1,507,863,474
394121308,67864,-0.0288,-0.0444,1.0220,0.3052,0.2441,-0.3052,1,465,774,474
394126304,67865,-0.0273,-0.0449,1.0234,0.3662,0.1831,-0.3052,1,485,826,474
394131310,67866,-0.0273,-0.0449,1.0234,0.4883,0.2441,-0.2441,1,492,852,474
394136303,67867,-0.0278,-0.0439,1.0229,0.4272,0.1831,-0.3052,1,476,856,474
394141302,67868,-0.0288,-0.0435,1.0225,0.4272,0.1831,-0.3052,1,491,852,474
394146305,67869,-0.0293,-0.0439,1.0225,0.3662,0.1831,-0.2441,1,482,848,474
394151301,67870,-0.0303,-0.0449,1.0215,0.4272,0.1221,-0.3052,1,492,855,474
394156307,67871,-0.0308,-0.0454,1.0205,0.4883,0.0000,-0.2441,1,466,867,474
394161303,67872,-0.0303,-0.0439,1.0210,0.4272,-0.0610,-0.2441,1,465,831,474
394166326,67873,-0.0298,-0.0425,1.0215,0.4272,-0.1221,-0.3052,1,465,875,474
394171303,67874,-0.0283,-0.0425,1.0229,0.3052,-0.1831,-0.2441,1,466,870,474
394176303,67875,-0.0278,-0.0415,1.0234,0.3662,0.0610,-0.1221,1,465,881,474
394181307,67876,-0.0283,-0.0425,1.0239,0.2441,0.0000,-0.3052,1,484,868,474
394186309,67877,-0.0283,-0.0439,1.0234,0.2441,0.1221,-0.1831,1,465,822,474
394191309,67878,-0.0273,-0.0449,1.0229,0.2441,0.1221,-0.1831,1,472,924,474
394196303,67879,-0.0273,-0.0444,1.0234,0.3052,0.0000,-0.2441,1,477,871,474
394201306,67880,-0.0283,-0.0430,1.0229,0.3052,-0.0610,-0.1831,1,466,814,474
394206301,67881,-0.0283,-0.0420,1.0225,0.3052,-0.0610,-0.1221,1,468,858,474
394211303,67882,-0.0283,-0.0425,1.0215,0.2441,-0.0610,-0.1831,1,502,852,474
394216302,67883,-0.0288,-0.0430,1.0215,0.3052,0.0000,-0.2441,1,486,859,474
394221308,67884,-0.0298,-0.0439,1.0225,0.3662,-0.0610,-0.3052,1,511,763,474
394226309,67885,-0.0293,-0.0439,1.0229,0.3052,0.0610,-0.3052,1,481,770,474
394231304,67886,-0.0288,-0.0430,1.0229,0.3662,-0.0610,-0.3052,1,481,843,474
394236307,67887,-0.0283,-0.0415,1.0225,0.3052,-0.0610,-0.3052,1,475,847,474
394241304,67888,-0.0264,-0.0405,1.0225,0.1831,-0.0610,-0.1831,1,481,869,474
394246308,67889,-0.0249,-0.0410,1.0220,0.1831,-0.0610,-0.3052,1,491,848,474
394251309,67890,-0.0264,-0.0420,1.0225,0.1221,0.0610,-0.3662,1,472,845,474
394256309,67891,-0.0283,-0.0435,1.0239,0.1221,0.0610,-0.1831,1,493,843,474
394261301,67892,-0.0288,-0.0435,1.0244,0.1831,-0.0610,-0.1221,1,466,847,474
394266303,67893,-0.0273,-0.0425,1.0239,0.2441,0.1831,-0.2441,1,466,876,474
394271308,67894,-0.0259,-0.0420,1.0229,0.1831,0.1221,-0.2441,1,466,885,474
394276307,67895,-0.0264,-0.0420,1.0225,0.1221,0.2441,-0.1221,1,466,879,474
394281301,67896,-0.0273,-0.0420,1.0234,0.2441,0.2441,-0.3052,1,466,868,474
394286308,67897,-0.0278,-0.0435,1.0249,0.1831,0.2441,-0.1831,1,484,869,474
394291301,67898,-0.0273,-0.0444,1.0249,0.0610,0.2441,-0.1831,1,466,881,474
394296308,67899,-0.0273,-0.0449,1.0234,0.0610,0.3662,-0.3052,1,465,873,474
394301310,67900,-0.0273,-0.0439,1.0225,0.1221,0.2441,-0.2441,1,482,868,474
394306307,67901,-0.0278,-0.0425,1.0210,0.1221,0.1221,-0.3052,1,465,878,474
394311304,67902,-0.0283,-0.0420,1.0205,0.0610,0.1221,-0.3052,1,471,846,474
394316310,67903,-0.0273,-0.0425,1.0220,0.0610,0.0610,-0.1831,1,498,851,474
394321302,67904,-0.0273,-0.0425,1.0220,0.0610,0.0610,-0.1831,1,484,854,474
394326304,67905,-0.0283,-0.0410,1.0225,0.1221,0.0610,-0.3052,1,511,855,474
394331305,67906,-0.0283,-0.0405,1.0234,0.0610,0.1221,-0.2441,1,465,813,474
394336306,67907,-0.0278,-0.0425,1.0234,0.0000,0.1831,-0.3052,1,483,848,474
394341302,67908,-0.0278,-0.0425,1.0225,0.0610,0.1221,-0.2441,1,490,803,474
394346301,67909,-0.0283,-0.0415,1.0215,-0.0610,-0.0610,-0.1831,1,478,867,474
394351301,67910,-0.0278,-0.0420,1.0220,-0.2441,-0.0610,-0.1831,1,487,849,474
394356310,67911,-0.0264,-0.0420,1.0234,-0.2441,-0.1221,-0.1831,1,492,853,474
394361309,67912,-0.0254,-0.0410,1.0249,-0.1831,-0.1221,-0.3052,1,479,850,474
394366306,67913,-0.0249,-0.0415,1.0244,-0.2441,0.0610,-0.1831,1,493,845,474
394371308,67914,-0.0264,-0.0444,1.0229,-0.1831,0.1221,-0.1221,1,466,884,474
394376319,67915,-0.0273,-0.0454,1.0215,-0.1221,0.1221,-0.1831,1,465,877,474
394381303,67916,-0.0269,-0.0435,1.0225,-0.1831,0.1221,-0.2441,1,466,876,474
394386302,67917,-0.0264,-0.0425,1.0234,-0.0610,0.0610,-0.3052,1,484,876,474
394391303,67918,-0.0269,-0.0435,1.0229,0.0000,0.0610,-0.2441,1,476,860,474
394396307,67919,-0.0283,-0.0449,1.0215,0.0000,0.0610,-0.3052,1,466,871,474
394401301,67920,-0.0283,-0.0444,1.0215,0.0000,0.0610,-0.1831,1,478,816,474
394406304,67921,-0.0264,-0.0425,1.0220,-0.0610,0.0610,-0.1221,1,466,823,474
394411304,67922,-0.0254,-0.0425,1.0234,0.0610,0.0610,-0.1831,1,465,859,474
394416329,67923,-0.0249,-0.0435,1.0244,0.0610,0.0610,-0.2441,1,468,872,474
394421302,67924,-0.0259,-0.0444,1.0239,-0.0610,0.0610,-0.2441,1,467,858,474
394426308,67925,-0.0273,-0.0449,1.0229,0.0000,0.1831,-0.1831,1,472,860,474
394431301,67926,-0.0288,-0.0449,1.0215,0.0610,0.1831,-0.1831,1,483,749,474
394436306,67927,-0.0293,-0.0439,1.0210,0.0610,0.0610,-0.1831,1,493,862,474
394441307,67928,-0.0288,-0.0435,1.0210,0.0000,-0.0610,-0.1831,1,476,854,474
394446306,67929,-0.0278,-0.0435,1.0205,0.0610,0.0610,-0.1831,1,485,801,474
394451302,67930,-0.0273,-0.0435,1.0205,0.0610,0.0000,-0.1221,1,473,847,474
394456301,67931,-0.0273,-0.0420,1.0215,-0.0610,0.1221,-0.1221,1,483,797,474
394461304,67932,-0.0259,-0.0415,1.0225,0.0000,0.0610,-0.1831,1,491,840,474
394466306,67933,-0.0239,-0.0415,1.0234,0.0610,0.1221,-0.1831,1,485,802,474
394471303,67934,-0.0234,-0.0425,1.0239,-0.0610,0.1831,-0.2441,1,493,850,474
394476308,67935,-0.0254,-0.0435,1.0244,-0.0610,0.1831,-0.2441,1,466,879,474
394481302,67936,-0.0273,-0.0430,1.0239,0.0000,0.0610,-0.2441,1,466,878,474
394486306,67937,-0.0283,-0.0435,1.0234,0.1221,0.2441,-0.2441,1,466,833,474
394491304,67938,-0.0283,-0.0444,1.0229,0.0000,0.3662,-0.2441,1,466,881,474
394496305,67939,-0.0278,-0.0454,1.0225,0.1221,0.3662,-0.2441,1,466,829,474
394501303,67940,-0.0283,-0.0464,1.0215,0.1221,0.4272,-0.2441,1,484,870,474
394506309,67941,-0.0283,-0.0464,1.0210,0.1221,0.3052,-0.1831,1,466,876,474
394511301,67942,-0.0283,-0.0444,1.0220,0.2441,0.2441,-0.2441,1,472,861,474
394516309,67943,-0.0264,-0.0430,1.0225,0.2441,0.3052,-0.2441,1,482,876,474
394521307,67944,-0.0249,-0.0430,1.0229,0.1831,0.3662,-0.1831,1,477,865,474
394526306,67945,-0.0259,-0.0435,1.0229,0.1221,0.3052,-0.1831,1,479,837,474
394531304,67946,-0.0269,-0.0425,1.0225,0.0000,0.4272,-0.3662,1,505,853,474
394536304,67947,-0.0278,-0.0415,1.0215,0.1221,0.4272,-0.1831,1,507,811,474
394541304,67948,-0.0293,-0.0425,1.0215,0.0610,0.3662,-0.1221,1,499,860,474
394546304,67949,-0.0288,-0.0439,1.0220,0.1221,0.4883,-0.2441,1,465,803,474
394551309,67950,-0.0273,-0.0444,1.0229,0.1221,0.4272,-0.1831,1,476,859,474
394556303,67951,-0.0278,-0.0439,1.0234,0.1221,0.5493,-0.1831,1,480,853,474
394561309,67952,-0.0283,-0.0430,1.0229,0.1831,0.4883,-0.1831,1,474,855,474
394566301,67953,-0.0278,-0.0435,1.0225,0.0610,0.5493,-0.1221,1,488,873,474
394571301,67954,-0.0273,-0.0444,1.0220,0.1221,0.4883,-0.1221,1,482,845,474
394576310,67955,-0.0278,-0.0439,1.0220,0.1831,0.4883,-0.1831,1,483,844,474
394581310,67956,-0.0283,-0.0439,1.0225,0.2441,0.5493,-0.1221,1,493,853,474
394586310,67957,-0.0288,-0.0449,1.0225,0.2441,0.6714,-0.1221,1,466,880,474
394591307,67958,-0.0283,-0.0439,1.0225,0.1831,0.6104,-0.1221,1,466,878,474
394596304,67959,-0.0269,-0.0430,1.0229,0.1221,0.6104,-0.1831,1,466,876,474
394601308,67960,-0.0264,-0.0435,1.0225,0.2441,0.6104,-0.1221,1,483,873,474
394606305,67961,-0.0269,-0.0439,1.0210,0.3052,0.6104,-0.1221,1,465,859,474
394611302,67962,-0.0283,-0.0449,1.0200,0.3052,0.4883,-0.1831,1,484,856,474
394616304,67963,-0.0293,-0.0444,1.0190,0.3052,0.4272,-0.1831,1,473,903,474
394621302,67964,-0.0278,-0.0430,1.0195,0.3662,0.4883,-0.2441,1,477,866,474
394626309,67965,-0.0269,-0.0425,1.0215,0.4272,0.4883,-0.1831,1,481,871,474
394631306,67966,-0.0278,-0.0425,1.0229,0.3662,0.4883,-0.1831,1,480,875,474
394636306,67967,-0.0288,-0.0425,1.0225,0.3662,0.4883,-0.2441,1,465,863,474
394641306,67968,-0.0288,-0.0435,1.0220,0.4272,0.3662,-0.3052,1,492,861,474
394646305,67969,-0.0283,-0.0439,1.0215,0.3662,0.4883,-0.3052,1,488,857,474
394651304,67970,-0.0278,-0.0430,1.0225,0.4883,0.4883,-0.1831,1,494,784,474
394656306,67971,-0.0278,-0.0425,1.0234,0.4272,0.4883,-0.1831,1,488,857,474
394661307,67972,-0.0278,-0.0425,1.0225,0.3052,0.4883,-0.1221,1,472,855,474
394666307,67973,-0.0288,-0.0435,1.0215,0.3052,0.5493,-0.1831,1,492,840,474
394671302,67974,-0.0303,-0.0439,1.0210,0.4883,0.5493,-0.3052,1,478,868,474
394676308,67975,-0.0303,-0.0435,1.0210,0.4272,0.4883,-0.2441,1,491,842,474
394681305,67976,-0.0298,-0.0425,1.0215,0.3662,0.4883,-0.1831,1,492,845,474
394686308,67977,-0.0298,-0.0420,1.0220,0.3052,0.6714,-0.1831,1,493,848,474
394691308,67978,-0.0293,-0.0430,1.0225,0.3662,0.6104,-0.1831,1,466,871,474
394696302,67979,-0.0278,-0.0430,1.0229,0.2441,0.4883,-0.1221,1,465,874,474
394701310,67980,-0.0269,-0.0425,1.0234,0.1831,0.4883,-0.1831,1,466,878,474
394706308,67981,-0.0288,-0.0415,1.0225,0.0610,0.5493,-0.2441,1,466,879,474
394711309,67982,-0.0303,-0.0405,1.0220,0.0610,0.4883,0.0000,1,465,882,474
394716303,67983,-0.0303,-0.0410,1.0220,0.0610,0.6104,-0.1221,1,484,775,474
394721309,67984,-0.0303,-0.0420,1.0220,0.0610,0.4272,-0.2441,1,466,891,474
394726303,67985,-0.0303,-0.0420,1.0220,0.0000,0.6104,-0.2441,1,471,931,474
394731304,67986,-0.0288,-0.0425,1.0220,-0.0610,0.5493,-0.1831,1,479,815,474
394736303,67987,-0.0269,-0.0425,1.0225,0.0000,0.4272,0.0000,1,483,869,474
394741331,67988,-0.0273,-0.0425,1.0234,-0.0610,0.5493,-0.1831,1,465,764,474
394746305,67989,-0.0293,-0.0435,1.0234,0.0610,0.4883,-0.1831,1,482,862,474
394751301,67990,-0.0298,-0.0435,1.0225,0.0610,0.4272,-0.1831,1,482,856,474
394756310,67991,-0.0288,-0.0430,1.0220,0.0610,0.3662,-0.1221,1,512,855,474
394761305,67992,-0.0288,-0.0430,1.0220,0.0000,0.4883,-0.0610,1,464,770,474
394766308,67993,-0.0293,-0.0435,1.0210,0.0000,0.3662,-0.1221,1,478,800,474
394771304,67994,-0.0298,-0.0439,1.0210,0.0000,0.3052,-0.2441,1,481,798,474
394776309,67995,-0.0298,-0.0435,1.0220,0.0610,0.3662,-0.3052,1,474,800,474
394781309,67996,-0.0293,-0.0425,1.0225,-0.0610,0.4272,-0.1831,1,478,842,474
394786302,67997,-0.0288,-0.0430,1.0234,-0.1221,0.3662,-0.0610,1,483,847,474
394791308,67998,-0.0293,-0.0435,1.0234,-0.1221,0.3662,-0.1831,1,494,849,474
394796301,67999,-0.0293,-0.0430,1.0225,-0.0610,0.3662,-0.1221,1,492,850,474
394801306,68000,-0.0278,-0.0435,1.0210,0.0610,0.4272,-0.1831,1,466,871,474
394806309,68001,-0.0273,-0.0444,1.0210,0.1221,0.4272,-0.2441,1,466,876,474
394811306,68002,-0.0283,-0.0439,1.0215,-0.1221,0.3662,-0.2441,1,466,879,474
394816305,68003,-0.0308,-0.0430,1.0220,0.0610,0.3662,-0.2441,1,483,880,474
394821303,68004,-0.0312,-0.0420,1.0225,0.1221,0.3052,-0.3052,1,466,864,474
394826303,68005,-0.0303,-0.0420,1.0229,0.1831,0.3052,-0.2441,1,484,880,474
394831309,68006,-0.0298,-0.0425,1.0225,0.0610,0.3662,-0.2441,1,465,904,474
394836309,68007,-0.0303,-0.0425,1.0220,0.0000,0.3052,-0.2441,1,482,930,474
394841301,68008,-0.0298,-0.0425,1.0229,-0.0610,0.3052,-0.2441,1,482,814,474
394846305,68009,-0.0283,-0.0439,1.0234,0.0610,0.3662,-0.1831,1,469,872,474
394851309,68010,-0.0273,-0.0435,1.0234,0.0000,0.3052,-0.3052,1,467,864,474
394856308,68011,-0.0273,-0.0430,1.0225,0.0610,0.3662,-0.2441,1,483,807,474
394861305,68012,-0.0273,-0.0425,1.0210,0.0610,0.4272,-0.2441,1,484,859,474
394866303,68013,-0.0278,-0.0425,1.0210,0.0000,0.3662,-0.1831,1,492,857,474
394871309,68014,-0.0293,-0.0430,1.0220,-0.0610,0.4272,-0.1221,1,493,784,474
394876302,68015,-0.0303,-0.0439,1.0234,0.0610,0.3662,-0.1221,1,488,852,474
394881302,68016,-0.0303,-0.0439,1.0234,0.1831,0.4272,-0.3052,1,481,846,474
394886308,68017,-0.0298,-0.0430,1.0225,0.1221,0.4272,-0.3052,1,492,849,474
394891302,68018,-0.0288,-0.0425,1.0215,0.0610,0.4883,-0.1831,1,473,840,474
394896301,68019,-0.0293,-0.0435,1.0210,0.0610,0.3662,-0.1831,1,488,847,474
394901303,68020,-0.0303,-0.0439,1.0215,0.1221,0.2441,-0.1831,1,486,846,474
394906301,68021,-0.0303,-0.0425,1.0229,0.1221,0.3662,-0.2441,1,493,847,474
394911304,68022,-0.0288,-0.0410,1.0234,0.1221,0.5493,-0.2441,1,466,875,474
394916303,68023,-0.0283,-0.0420,1.0229,0.0610,0.5493,-0.3052,1,465,883,474
394921304,68024,-0.0298,-0.0430,1.0225,0.1221,0.4272,-0.3052,1,465,877,474
394926307,68025,-0.0303,-0.0430,1.0229,0.0610,0.3662,-0.2441,1,465,869,474
394931307,68026,-0.0298,-0.0425,1.0229,0.0000,0.3052,-0.1221,1,475,865,474
394936303,68027,-0.0293,-0.0420,1.0229,0.0000,0.3662,-0.1831,1,484,853,474
394941302,68028,-0.0283,-0.0415,1.0234,0.0610,0.2441,-0.3052,1,466,823,474
394946308,68029,-0.0283,-0.0425,1.0234,0.1831,0.1831,-0.1221,1,465,868,474
394951309,68030,-0.0288,-0.0444,1.0220,0.0610,0.3052,-0.1831,1,483,877,474
394956323,68031,-0.0298,-0.0449,1.0215,0.0610,0.2441,-0.1221,1,466,875,474
394961310,68032,-0.0298,-0.0439,1.0220,0.0000,0.1831,-0.1221,1,474,854,474
394966304,68033,-0.0293,-0.0425,1.0234,0.1221,0.3052,-0.2441,1,492,811,474
394971309,68034,-0.0293,-0.0420,1.0234,0.1221,0.2441,-0.2441,1,483,854,474
394976303,68035,-0.0288,-0.0425,1.0220,0.1221,0.2441,-0.1221,1,511,859,474
394981308,68036,-0.0283,-0.0435,1.0225,0.0000,0.2441,-0.1221,1,470,854,474
394986301,68037,-0.0278,-0.0444,1.0225,0.0610,0.3052,-0.1831,1,473,801,474
394991301,68038,-0.0278,-0.0410,1.0205,0.1221,0.1831,-0.1221,1,486,848,474
394996304,68039,-0.0293,-0.0410,1.0210,0.0000,0.4272,-0.2441,1,490,846,474
395001301,68040,-0.0308,-0.0420,1.0220,0.0610,0.3052,-0.1831,1,485,802,474
395006309,68041,-0.0298,-0.0435,1.0229,0.0610,0.2441,-0.2441,1,474,841,474
395011308,68042,-0.0293,-0.0435,1.0244,0.0000,0.3662,-0.1221,1,489,852,474
395016302,68043,-0.0293,-0.0430,1.0249,0.1221,0.2441,-0.0610,1,466,830,474
395021301,68044,-0.0283,-0.0415,1.0239,0.1221,0.3052,-0.2441,1,466,873,474
395026326,68045,-0.0273,-0.0415,1.0244,0.0610,0.1831,-0.2441,1,466,878,474
395031307,68046,-0.0273,-0.0430,1.0244,0.1831,0.2441,-0.1831,1,466,882,474
395036303,68047,-0.0273,-0.0435,1.0239,0.0610,0.3052,-0.1221,1,484,885,474
395041301,68048,-0.0273,-0.0430,1.0239,0.1221,0.2441,-0.2441,1,475,860,474
395046306,68049,-0.0283,-0.0420,1.0239,0.1221,0.2441,-0.1831,1,465,822,474
395051304,68050,-0.0293,-0.0420,1.0234,0.1831,0.2441,-0.1221,1,475,909,474
395056305,68051,-0.0293,-0.0425,1.0225,0.0610,0.3052,-0.2441,1,479,868,474
395061304,68052,-0.0293,-0.0430,1.0229,-0.0610,0.2441,-0.3052,1,479,870,474
395066304,68053,-0.0293,-0.0425,1.0234,0.1221,0.3052,-0.2441,1,480,873,474
395071305,68054,-0.0293,-0.0420,1.0229,0.1221,0.3052,-0.2441,1,483,854,474
395076301,68055,-0.0298,-0.0435,1.0220,0.0610,0.3052,-0.2441,1,480,853,474
395081308,68056,-0.0293,-0.0444,1.0215,0.1831,0.2441,-0.1831,1,484,851,474
395086305,68057,-0.0283,-0.0444,1.0220,0.1221,0.3662,-0.1221,1,512,863,474
395091307,68058,-0.0273,-0.0435,1.0225,0.0610,0.4272,-0.1831,1,470,856,474
395096302,68059,-0.0288,-0.0410,1.0225,0.1831,0.4272,-0.2441,1,478,858,474
395101304,68060,-0.0293,-0.0396,1.0229,0.1221,0.3662,-0.1831,1,481,854,474
395106301,68061,-0.0283,-0.0405,1.0225,0.0610,0.4272,-0.1221,1,488,850,474
395111303,68062,-0.0283,-0.0425,1.0220,0.0610,0.3662,-0.2441,1,480,846,474
395116307,68063,-0.0283,-0.0430,1.0225,0.1221,0.2441,-0.1831,1,485,850,474
395121303,68064,-0.0278,-0.0420,1.0234,0.0000,0.3662,-0.1831,1,493,849,474
395126305,68065,-0.0278,-0.0415,1.0249,0.1221,0.4883,-0.1221,1,466,836,474
395131308,68066,-0.0283,-0.0415,1.0249,0.1221,0.3662,-0.1831,1,466,875,474
395136307,68067,-0.0283,-0.0420,1.0234,0.0000,0.3662,-0.1831,1,466,884,474
395141301,68068,-0.0283,-0.0425,1.0225,0.0000,0.4272,-0.2441,1,483,837,474
395146309,68069,-0.0273,-0.0430,1.0239,0.1221,0.4883,-0.1831,1,465,823,474
395151303,68070,-0.0259,-0.0420,1.0249,0.0610,0.4883,-0.2441,1,484,866,474
395156307,68071,-0.0273,-0.0410,1.0244,0.0610,0.4883,-0.2441,1,465,876,474
395161309,68072,-0.0298,-0.0430,1.0225,0.0610,0.4272,-0.1831,1,474,919,474
395166304,68073,-0.0317,-0.0454,1.0200,0.0610,0.4883,-0.2441,1,476,864,474
395171306,68074,-0.0312,-0.0454,1.0210,0.0610,0.3052,-0.1831,1,465,876,474
395176330,68075,-0.0298,-0.0444,1.0229,0.1221,0.3662,-0.0610,1,466,897,474
395181303,68076,-0.0283,-0.0439,1.0234,0.0610,0.4883,-0.1221,1,467,857,474
395186302,68077,-0.0278,-0.0435,1.0229,0.1221,0.4272,-0.1221,1,493,858,474
395191308,68078,-0.0278,-0.0425,1.0229,0.0610,0.4883,-0.1831,1,510,855,474
395196309,68079,-0.0288,-0.0420,1.0229,0.0000,0.5493,-0.1221,1,464,775,474
395201306,68080,-0.0293,-0.0425,1.0220,0.1221,0.4272,-0.2441,1,471,804,474
395206309,68081,-0.0298,-0.0425,1.0205,0.0610,0.4272,-0.3052,1,481,847,474
395211308,68082,-0.0298,-0.0425,1.0220,0.1221,0.4272,-0.1831,1,485,843,474
395216302,68083,-0.0298,-0.0425,1.0229,0.1221,0.6104,-0.1221,1,490,873,474
395221307,68084,-0.0303,-0.0435,1.0229,0.0000,0.5493,-0.1831,1,486,840,474
395226308,68085,-0.0303,-0.0435,1.0229,0.1831,0.4272,-0.1831,1,483,804,474
395231309,68086,-0.0293,-0.0420,1.0234,0.0610,0.5493,-0.1221,1,493,851,474
395236307,68087,-0.0278,-0.0415,1.0249,0.0000,0.5493,-0.1221,1,466,873,474
395241306,68088,-0.0283,-0.0420,1.0254,0.0000,0.4272,-0.1221,1,466,834,474
395246309,68089,-0.0298,-0.0425,1.0239,0.0000,0.5493,-0.1221,1,465,859,474
395251305,68090,-0.0303,-0.0430,1.0220,0.0000,0.6104,-0.1831,1,484,830,474
395256304,68091,-0.0303,-0.0444,1.0210,0.0610,0.4272,-0.1221,1,466,767,474
395261308,68092,-0.0303,-0.0444,1.0205,0.1221,0.3052,-0.3052,1,483,804,474
395266308,68093,-0.0308,-0.0435,1.0215,0.0610,0.3662,-0.1831,1,465,894,474
395271308,68094,-0.0312,-0.0425,1.0225,0.1831,0.4883,-0.1831,1,467,863,474
395276310,68095,-0.0312,-0.0430,1.0215,0.0610,0.3662,-0.0610,1,467,893,474
395281302,68096,-0.0312,-0.0435,1.0205,0.3052,0.3052,-0.1831,1,470,890,474
395286309,68097,-0.0303,-0.0439,1.0210,0.1831,0.3052,-0.1831,1,479,894,474
395291306,68098,-0.0298,-0.0439,1.0225,0.1831,0.1831,-0.2441,1,471,853,474
395296307,68099,-0.0298,-0.0435,1.0229,0.1831,0.3052,-0.1831,1,484,864,474
395301305,68100,-0.0312,-0.0430,1.0220,0.3052,0.1831,-0.2441,1,476,857,474
395306304,68101,-0.0312,-0.0425,1.0220,0.3052,0.0000,-0.1831,1,467,826,474
395311310,68102,-0.0303,-0.0435,1.0229,0.1831,-0.0610,-0.2441,1,478,825,474
395316306,68103,-0.0293,-0.0444,1.0225,0.2441,0.1221,-0.2441,1,479,850,474
395321303,68104,-0.0293,-0.0430,1.0220,0.3052,0.1831,-0.2441,1,491,849,474
395326306,68105,-0.0303,-0.0415,1.0220,0.1831,0.1221,-0.3052,1,484,847,474
395331306,68106,-0.0312,-0.0415,1.0225,0.0610,0.1221,-0.3052,1,488,841,474
395336308,68107,-0.0317,-0.0420,1.0229,0.1221,0.1221,-0.2441,1,486,866,474
395341305,68108,-0.0317,-0.0420,1.0229,0.1221,0.1831,-0.1831,1,493,848,474
395346301,68109,-0.0312,-0.0425,1.0220,0.1831,0.1221,-0.1831,1,466,879,474
395351303,68110,-0.0298,-0.0435,1.0220,0.2441,0.0610,-0.2441,1,466,901,474
395356303,68111,-0.0293,-0.0435,1.0229,0.3052,-0.0610,-0.1831,1,483,877,474
395361304,68112,-0.0298,-0.0420,1.0229,0.2441,0.1221,-0.1831,1,466,862,474
395366308,68113,-0.0298,-0.0410,1.0215,0.1831,0.0610,-0.1831,1,484,867,474
395371301,68114,-0.0293,-0.0420,1.0215,0.1831,0.0000,-0.1221,1,465,903,474
395376305,68115,-0.0293,-0.0435,1.0229,0.1831,0.0000,-0.1831,1,472,826,474
395381308,68116,-0.0288,-0.0444,1.0229,0.1831,0.1221,-0.2441,1,472,833,474
395386310,68117,-0.0278,-0.0430,1.0234,0.1831,0.3662,-0.2441,1,472,881,474
395391309,68118,-0.0283,-0.0420,1.0234,0.1831,0.2441,-0.1831,1,475,867,474
395396306,68119,-0.0303,-0.0420,1.0220,0.0610,0.3052,-0.1831,1,503,867,474
395401301,68120,-0.0312,-0.0430,1.0200,0.0610,0.1221,-0.2441,1,484,848,474
395406306,68121,-0.0308,-0.0435,1.0205,0.1831,-0.0610,-0.1221,1,490,877,474
395411306,68122,-0.0288,-0.0415,1.0220,0.1831,0.0000,-0.1221,1,466,814,474
395416307,68123,-0.0283,-0.0400,1.0229,0.1831,0.1831,-0.1831,1,488,804,474
395421306,68124,-0.0303,-0.0410,1.0215,0.1221,0.1221,-0.2441,1,473,856,474
395426310,68125,-0.0327,-0.0430,1.0200,0.1831,0.0000,-0.1831,1,480,840,474
395431305,68126,-0.0312,-0.0435,1.0210,0.1221,0.0610,-0.1831,1,485,805,474
395436301,68127,-0.0278,-0.0430,1.0225,0.1221,0.0000,-0.2441,1,490,867,474
395441304,68128,-0.0264,-0.0430,1.0229,0.1831,-0.0610,-0.1221,1,493,801,474
395446301,68129,-0.0278,-0.0430,1.0220,0.1831,0.0000,-0.1221,1,466,873,474
395451302,68130,-0.0288,-0.0430,1.0205,0.1221,0.0000,-0.1831,1,466,830,474
395456309,68131,-0.0293,-0.0425,1.0210,0.1221,-0.0610,-0.3052,1,466,859,474
395461302,68132,-0.0273,-0.0435,1.0225,0.1221,-0.0610,-0.1831,1,483,867,474
395466302,68133,-0.0264,-0.0449,1.0215,0.2441,-0.0610,-0.1831,1,465,863,474
395471306,68134,-0.0283,-0.0435,1.0210,0.1831,0.0000,-0.1831,1,483,813,474
395476302,68135,-0.0298,-0.0410,1.0220,0.1221,-0.1221,-0.1831,1,474,822,474
395481304,68136,-0.0293,-0.0405,1.0229,0.1831,-0.1831,-0.1831,1,481,862,474
395486303,68137,-0.0288,-0.0410,1.0229,0.2441,-0.1221,-0.1831,1,481,873,474
395491305,68138,-0.0278,-0.0420,1.0225,0.1831,0.1221,-0.2441,1,465,835,474
395496303,68139,-0.0283,-0.0425,1.0225,0.1221,0.1221,-0.2441,1,465,859,474
395501309,68140,-0.0293,-0.0420,1.0234,0.1831,0.0000,-0.2441,1,492,854,474
395506307,68141,-0.0288,-0.0420,1.0229,0.1831,0.2441,-0.2441,1,506,816,474
395511304,68142,-0.0288,-0.0430,1.0229,0.1221,0.1221,-0.2441,1,492,867,474
395516309,68143,-0.0273,-0.0435,1.0244,0.0000,0.0610,-0.2441,1,464,870,474
395521304,68144,-0.0249,-0.0405,1.0254,0.2441,0.3662,-0.1221,1,488,806,474
395526302,68145,-0.0259,-0.0386,1.0239,0.0000,0.4272,-0.2441,1,478,849,474
395531302,68146,-0.0293,-0.0415,1.0220,0.0000,0.2441,-0.0610,1,487,806,474
395536303,68147,-0.0312,-0.0435,1.0215,0.1221,0.1221,-0.1831,1,488,802,474
395541301,68148,-0.0303,-0.0430,1.0220,0.1221,0.2441,-0.2441,1,471,867,474
395546301,68149,-0.0288,-0.0420,1.0220,0.2441,0.2441,-0.1831,1,492,845,474
395551308,68150,-0.0283,-0.0415,1.0225,0.1831,0.3052,-0.2441,1,466,855,474
395556307,68151,-0.0298,-0.0415,1.0229,0.0610,0.3052,-0.1831,1,466,879,474
395561304,68152,-0.0312,-0.0415,1.0234,0.0610,0.2441,-0.1831,1,466,876,474
395566306,68153,-0.0303,-0.0410,1.0220,0.1221,0.0610,-0.1831,1,466,906,474
395571302,68154,-0.0288,-0.0405,1.0220,0.1221,0.0610,-0.2441,1,466,870,474
395576309,68155,-0.0278,-0.0410,1.0234,0.0000,0.1221,-0.2441,1,484,863,474
395581304,68156,-0.0273,-0.0420,1.0244,0.0000,0.2441,-0.1221,1,465,874,474
395586305,68157,-0.0283,-0.0425,1.0234,0.0000,0.2441,-0.3052,1,472,821,474
395591307,68158,-0.0293,-0.0415,1.0225,0.0000,0.1831,-0.3052,1,477,822,474
395596307,68159,-0.0288,-0.0415,1.0225,0.1221,0.0610,-0.1831,1,481,827,474
395601309,68160,-0.0283,-0.0405,1.0225,0.0610,0.2441,-0.3662,1,482,875,474
395606307,68161,-0.0283,-0.0396,1.0220,0.0610,0.0610,-0.3662,1,466,860,474
395611306,68162,-0.0288,-0.0415,1.0220,0.0610,0.0610,-0.1831,1,492,857,474
395616305,68163,-0.0293,-0.0430,1.0225,0.0000,0.1831,-0.2441,1,470,857,474
395621302,68164,-0.0288,-0.0430,1.0234,0.0000,0.1831,-0.3052,1,493,774,474
395626307,68165,-0.0273,-0.0425,1.0234,0.0000,0.1831,-0.2441,1,492,802,474
395631308,68166,-0.0269,-0.0410,1.0229,0.0000,0.3052,-0.3052,1,475,807,474
395636302,68167,-0.0283,-0.0410,1.0229,0.0000,0.3052,-0.3052,1,473,823,474
395641305,68168,-0.0303,-0.0415,1.0220,0.0000,0.3052,-0.3052,1,485,799,474
395646303,68169,-0.0312,-0.0415,1.0210,0.0610,0.3052,-0.2441,1,492,793,474
395651309,68170,-0.0322,-0.0415,1.0215,0.0000,0.4272,-0.2441,1,479,870,474
395656301,68171,-0.0322,-0.0400,1.0225,-0.1221,0.2441,-0.2441,1,494,809,474
395661303,68172,-0.0308,-0.0400,1.0229,-0.0610,0.1831,-0.2441,1,466,878,474
395666327,68173,-0.0303,-0.0410,1.0225,0.0000,0.1831,-0.3052,1,466,877,474
395671301,68174,-0.0303,-0.0415,1.0229,0.0610,0.1831,-0.4883,1,466,825,474
395676306,68175,-0.0298,-0.0425,1.0220,0.0000,0.1221,-0.2441,1,466,876,474
395681304,68176,-0.0288,-0.0425,1.0215,0.1221,0.1221,-0.1831,1,480,772,474
395686307,68177,-0.0278,-0.0415,1.0225,0.0610,0.1831,-0.1831,1,466,870,474
395691304,68178,-0.0278,-0.0410,1.0225,0.0610,0.0610,-0.2441,1,471,921,474
395696307,68179,-0.0288,-0.0415,1.0225,0.0000,0.2441,-0.3052,1,478,866,474
395701309,68180,-0.0308,-0.0415,1.0220,0.0610,0.1221,-0.3052,1,481,830,474
395706311,68181,-0.0312,-0.0420,1.0210,0.0000,0.0610,-0.1831,1,482,865,474
395711306,68182,-0.0298,-0.0430,1.0195,-0.0610,0.1221,-0.1221,1,466,835,474
395716307,68183,-0.0278,-0.0435,1.0195,0.0000,0.1221,-0.2441,1,491,851,474
395721304,68184,-0.0278,-0.0425,1.0215,0.0610,0.0000,-0.3052,1,493,738,474
395726305,68185,-0.0283,-0.0410,1.0229,0.1221,0.0610,-0.1831,1,466,797,474
395731308,68186,-0.0293,-0.0410,1.0244,0.0610,0.1831,-0.2441,1,475,821,474
395736304,68187,-0.0288,-0.0415,1.0249,0.0000,0.1831,-0.3052,1,480,851,474
395741306,68188,-0.0278,-0.0430,1.0239,0.1221,0.0610,-0.2441,1,484,826,474
395746304,68189,-0.0283,-0.0439,1.0220,0.1221,0.3052,-0.2441,1,490,869,474
395751309,68190,-0.0293,-0.0439,1.0215,0.1221,0.2441,-0.2441,1,480,846,474
395756302,68191,-0.0303,-0.0439,1.0215,0.1831,0.1221,-0.3662,1,479,850,474
395761303,68192,-0.0312,-0.0430,1.0215,0.1221,0.1831,-0.3052,1,466,847,474
395766303,68193,-0.0312,-0.0435,1.0215,0.1221,0.0610,-0.1221,1,466,896,474
395771320,68194,-0.0308,-0.0435,1.0220,0.1831,0.0610,-0.1831,1,466,892,474
395776305,68195,-0.0303,-0.0425,1.0225,0.0610,0.0000,-0.3052,1,465,874,474
395781309,68196,-0.0288,-0.0415,1.0229,0.0000,-0.0610,-0.3052,1,484,810,474
395786305,68197,-0.0278,-0.0410,1.0225,0.0610,0.1221,-0.3052,1,474,821,474
395791301,68198,-0.0278,-0.0410,1.0220,0.0000,0.1831,-0.1831,1,466,867,474
395796301,68199,-0.0288,-0.0415,1.0215,0.0000,0.1831,-0.1831,1,469,824,474
395801303,68200,-0.0293,-0.0415,1.0210,0.0610,0.0610,-0.3052,1,472,836,474
395806305,68201,-0.0298,-0.0410,1.0210,0.1221,0.0000,-0.1831,1,474,859,474
395811303,68202,-0.0298,-0.0420,1.0210,0.0610,0.0610,-0.0610,1,475,808,474
395816301,68203,-0.0308,-0.0425,1.0210,0.1221,0.0000,-0.2441,1,482,849,474
395821304,68204,-0.0308,-0.0415,1.0225,0.0610,-0.1831,-0.2441,1,507,804,474
395826308,68205,-0.0288,-0.0415,1.0234,0.0610,-0.1831,-0.1221,1,484,857,474
395831301,68206,-0.0273,-0.0420,1.0234,0.0610,-0.1221,-0.1831,1,494,877,474
395836307,68207,-0.0269,-0.0425,1.0234,0.0610,-0.0610,-0.1831,1,482,772,474
395841307,68208,-0.0269,-0.0430,1.0234,0.0000,0.0000,-0.2441,1,473,847,474
395846302,68209,-0.0273,-0.0430,1.0234,0.0610,0.0000,-0.1831,1,480,758,474
395851308,68210,-0.0278,-0.0420,1.0239,0.0000,0.0000,-0.1831,1,492,805,474
395856308,68211,-0.0288,-0.0415,1.0239,-0.0610,0.0000,-0.1831,1,473,760,474
395861306,68212,-0.0293,-0.0415,1.0239,0.0000,0.0000,-0.2441,1,481,807,474
395866307,68213,-0.0298,-0.0420,1.0234,-0.0610,-0.0610,-0.2441,1,493,761,474
395871306,68214,-0.0288,-0.0430,1.0244,-0.1221,0.1221,-0.1831,1,493,848,474
395876301,68215,-0.0288,-0.0425,1.0244,0.1221,0.1221,-0.1831,1,466,876,474
395881301,68216,-0.0288,-0.0415,1.0239,0.1221,-0.0610,-0.1221,1,466,876,474
395886307,68217,-0.0288,-0.0415,1.0225,0.0000,0.1221,-0.1831,1,483,874,474
395891301,68218,-0.0298,-0.0405,1.0215,0.0610,0.1831,-0.1831,1,465,777,474
395896302,68219,-0.0303,-0.0400,1.0220,0.1831,0.0610,-0.1221,1,484,864,474
395901301,68220,-0.0298,-0.0410,1.0225,0.1831,0.0610,-0.1221,1,468,896,474
395906309,68221,-0.0293,-0.0425,1.0215,0.1221,0.0610,-0.1831,1,471,862,474
395911302,68222,-0.0278,-0.0420,1.0220,0.0610,0.1221,-0.0610,1,466,869,474
395916305,68223,-0.0269,-0.0405,1.0244,0.0610,0.1831,-0.0610,1,477,869,474
395921328,68224,-0.0273,-0.0420,1.0244,0.0000,0.2441,0.0610,1,477,857,474
395926307,68225,-0.0273,-0.0454,1.0225,0.0610,0.3052,-0.1831,1,482,814,474
395931305,68226,-0.0273,-0.0449,1.0210,0.1221,0.2441,-0.1831,1,484,857,474
395936306,68227,-0.0269,-0.0425,1.0220,0.1831,0.1831,0.0000,1,512,857,474
395941305,68228,-0.0273,-0.0405,1.0234,0.1221,0.2441,-0.1221,1,494,764,474
395946303,68229,-0.0293,-0.0415,1.0220,0.1221,0.1831,-0.1221,1,488,856,474
395951305,68230,-0.0312,-0.0430,1.0200,0.1831,0.0610,-0.1221,1,478,844,474
395956308,68231,-0.0308,-0.0439,1.0205,0.1831,0.0000,-0.1831,1,483,868,474
395961306,68232,-0.0293,-0.0439,1.0229,0.3052,0.1221,-0.0610,1,488,804,474
395966304,68233,-0.0283,-0.0425,1.0229,0.3052,0.1831,-0.1221,1,476,842,474
395971307,68234,-0.0278,-0.0425,1.0220,0.2441,0.0610,-0.1831,1,476,846,474
395976303,68235,-0.0278,-0.0435,1.0225,0.3052,-0.0610,-0.1221,1,493,850,474
395981306,68236,-0.0269,-0.0439,1.0239,0.4272,0.0000,-0.1831,1,466,870,474
395986305,68237,-0.0269,-0.0425,1.0239,0.3052,0.2441,-0.0610,1,466,836,474
395991303,68238,-0.0273,-0.0410,1.0234,0.3052,0.1221,0.0000,1,483,873,474
395996304,68239,-0.0283,-0.0396,1.0229,0.3662,0.0000,0.0000,1,466,816,474
396001309,68240,-0.0283,-0.0405,1.0225,0.2441,0.0000,-0.0610,1,485,828,474
396006304,68241,-0.0278,-0.0415,1.0229,0.3052,0.0610,-0.0610,1,465,820,474
396011306,68242,-0.0283,-0.0400,1.0244,0.2441,0.2441,0.0610,1,482,932,474
396016308,68243,-0.0288,-0.0400,1.0244,0.0610,0.1221,-0.0610,1,483,869,474
396021303,68244,-0.0288,-0.0425,1.0225,0.1221,-0.0610,-0.0610,1,465,871,474
396026331,68245,-0.0278,-0.0439,1.0215,0.3052,-0.0610,-0.0610,1,474,852,474
396031306,68246,-0.0273,-0.0415,1.0225,0.3662,0.0000,0.0000,1,472,853,474
396036304,68247,-0.0278,-0.0400,1.0229,0.1221,0.0000,-0.1221,1,497,723,474
396041301,68248,-0.0288,-0.0405,1.0229,0.3052,0.0000,-0.1221,1,465,750,474
396046303,68249,-0.0288,-0.0415,1.0220,0.3052,-0.1221,-0.1221,1,494,761,474
396051305,68250,-0.0288,-0.0420,1.0205,0.1831,-0.1831,-0.1831,1,479,852,474
396056303,68251,-0.0288,-0.0410,1.0195,0.2441,-0.1831,-0.2441,1,487,855,474
396061302,68252,-0.0278,-0.0405,1.0200,0.2441,-0.1831,-0.1221,1,476,858,474
396066306,68253,-0.0269,-0.0400,1.0205,0.1831,-0.0610,-0.0610,1,485,870,474
396071304,68254,-0.0273,-0.0400,1.0205,0.2441,-0.1221,-0.1221,1,483,843,474
396076306,68255,-0.0278,-0.0415,1.0210,0.2441,-0.1831,-0.2441,1,492,845,474
396081304,68256,-0.0273,-0.0425,1.0225,0.3052,-0.2441,-0.1221,1,493,854,474
396086301,68257,-0.0269,-0.0415,1.0234,0.2441,-0.1831,0.0000,1,466,871,474
396091304,68258,-0.0264,-0.0405,1.0249,0.2441,-0.0610,-0.1221,1,466,837,474
396096308,68259,-0.0254,-0.0410,1.0249,0.1831,0.1221,-0.1221,1,466,875,474
396101309,68260,-0.0254,-0.0410,1.0239,0.1221,0.1221,-0.1221,1,466,872,474
396106302,68261,-0.0269,-0.0405,1.0225,0.1221,0.1221,-0.0610,1,484,859,474
396111302,68262,-0.0283,-0.0410,1.0220,0.1221,0.1831,-0.0610,1,465,894,474
396116308,68263,-0.0283,-0.0410,1.0225,0.0000,0.2441,-0.1221,1,482,930,474
396121306,68264,-0.0288,-0.0405,1.0234,0.0000,0.3052,-0.2441,1,479,821,474
396126304,68265,-0.0293,-0.0405,1.0244,0.0000,0.0610,-0.1221,1,465,815,474
396131329,68266,-0.0273,-0.0405,1.0249,-0.1221,0.0610,-0.0610,1,470,809,474
396136304,68267,-0.0264,-0.0410,1.0234,-0.1221,0.1831,-0.1831,1,472,854,474
396141303,68268,-0.0288,-0.0420,1.0205,0.0000,0.1221,-0.1831,1,498,860,474
396146301,68269,-0.0312,-0.0415,1.0190,0.0000,0.1831,-0.0610,1,465,727,474
396151307,68270,-0.0308,-0.0410,1.0186,0.0000,0.1831,-0.1221,1,493,782,474
396156308,68271,-0.0288,-0.0410,1.0195,0.0610,0.0000,-0.2441,1,483,797,474
396161306,68272,-0.0273,-0.0415,1.0215,0.0000,0.1221,-0.1831,1,471,806,474
396166307,68273,-0.0269,-0.0420,1.0229,0.0610,0.3052,-0.1831,1,487,824,474
396171308,68274,-0.0278,-0.0415,1.0229,-0.0610,0.1221,-0.1831,1,474,845,474
396176309,68275,-0.0278,-0.0420,1.0225,0.0000,0.1221,-0.2441,1,478,851,474
396181308,68276,-0.0278,-0.0425,1.0215,0.0610,0.1831,-0.1831,1,484,802,474
396186304,68277,-0.0283,-0.0425,1.0220,0.0000,0.2441,-0.2441,1,493,850,474
396191309,68278,-0.0283,-0.0425,1.0225,0.0610,0.2441,-0.2441,1,465,834,474
396196309,68279,-0.0278,-0.0420,1.0220,0.0610,0.1221,-0.1831,1,466,880,474
396201304,68280,-0.0278,-0.0415,1.0225,0.0610,0.1831,-0.1221,1,483,874,474
396206303,68281,-0.0278,-0.0420,1.0229,0.0610,0.1831,-0.2441,1,465,866,474
396211302,68282,-0.0273,-0.0425,1.0225,0.0610,0.1221,-0.1831,1,484,870,474
396216309,68283,-0.0269,-0.0430,1.0220,0.0000,0.1831,-0.1831,1,474,899,474
396221303,68284,-0.0269,-0.0425,1.0215,0.1221,0.1831,-0.1831,1,474,829,474
396226309,68285,-0.0273,-0.0415,1.0210,0.0610,0.1831,-0.0610,1,481,872,474
396231305,68286,-0.0283,-0.0410,1.0220,0.1221,0.1221,-0.0610,1,480,873,474
396236301,68287,-0.0283,-0.0420,1.0220,0.0610,0.2441,-0.0610,1,467,851,474
396241301,68288,-0.0278,-0.0425,1.0210,0.1221,0.3662,-0.1221,1,494,856,474
396246308,68289,-0.0283,-0.0425,1.0200,0.0610,0.1831,-0.1831,1,511,852,474
396251303,68290,-0.0298,-0.0420,1.0205,0.1221,0.2441,-0.1221,1,475,876,474
396256301,68291,-0.0298,-0.0415,1.0215,0.1221,0.1831,-0.1221,1,466,805,474
396261308,68292,-0.0293,-0.0415,1.0229,0.0610,0.0610,-0.2441,1,480,843,474
396266310,68293,-0.0283,-0.0420,1.0225,0.2441,0.1221,-0.0610,1,478,849,474
396271305,68294,-0.0269,-0.0430,1.0225,0.1831,0.0610,-0.1831,1,483,847,474
396276301,68295,-0.0254,-0.0435,1.0215,0.1221,0.1221,-0.1831,1,484,868,474
396281308,68296,-0.0254,-0.0435,1.0210,0.2441,0.0000,-0.1221,1,477,841,474
396286305,68297,-0.0273,-0.0425,1.0215,0.1831,0.1221,-0.0610,1,470,798,474
396291310,68298,-0.0288,-0.0410,1.0220,0.2441,0.0000,-0.1831,1,493,844,474
396296306,68299,-0.0288,-0.0410,1.0234,0.2441,0.0610,-0.2441,1,466,835,474
396301305,68300,-0.0283,-0.0415,1.0239,0.1831,0.0610,-0.1831,1,465,883,474
396306308,68301,-0.0283,-0.0415,1.0229,0.2441,-0.0610,-0.1831,1,483,885,474
396311307,68302,-0.0283,-0.0415,1.0220,0.3052,0.0000,-0.0610,1,465,884,474
396316307,68303,-0.0283,-0.0415,1.0215,0.2441,0.1831,-0.1221,1,484,827,474
396321305,68304,-0.0273,-0.0410,1.0220,0.3052,0.0610,-0.2441,1,466,907,474
396326309,68305,-0.0269,-0.0400,1.0229,0.1831,0.1221,-0.3052,1,469,863,474
396331306,68306,-0.0264,-0.0391,1.0225,0.2441,0.1221,-0.1831,1,470,870,474
396336301,68307,-0.0264,-0.0396,1.0225,0.1831,0.1221,-0.1831,1,480,872,474
396341324,68308,-0.0273,-0.0410,1.0234,0.1221,0.1221,-0.2441,1,472,856,474
396346302,68309,-0.0288,-0.0420,1.0229,0.1831,0.1221,-0.1831,1,477,856,474
396351307,68310,-0.0293,-0.0430,1.0225,0.0610,0.0610,-0.1831,1,483,860,474
396356301,68311,-0.0288,-0.0420,1.0225,0.2441,0.1221,-0.0610,1,492,869,474
396361301,68312,-0.0278,-0.0405,1.0229,0.2441,0.1221,-0.1221,1,468,855,474
396366307,68313,-0.0269,-0.0405,1.0239,0.1221,0.2441,-0.1221,1,481,847,474
396371304,68314,-0.0264,-0.0415,1.0234,0.1831,0.1831,-0.2441,1,486,846,474
396376307,68315,-0.0269,-0.0425,1.0225,0.0000,0.3662,-0.3052,1,492,856,474
396381310,68316,-0.0288,-0.0415,1.0220,0.0610,0.1831,-0.1831,1,477,798,474
396386307,68317,-0.0298,-0.0396,1.0220,0.2441,0.2441,-0.1221,1,484,853,474
396391302,68318,-0.0288,-0.0396,1.0220,0.2441,0.1221,-0.2441,1,493,847,474
396396308,68319,-0.0278,-0.0396,1.0220,0.3052,0.1221,-0.2441,1,466,878,474
396401307,68320,-0.0278,-0.0396,1.0220,0.2441,0.1221,-0.3662,1,465,874,474
396406305,68321,-0.0288,-0.0405,1.0225,0.1831,0.2441,-0.2441,1,466,878,474
396411306,68322,-0.0298,-0.0415,1.0225,0.0610,0.0610,-0.1221,1,465,883,474
396416303,68323,-0.0298,-0.0415,1.0220,0.1221,0.0000,-0.2441,1,484,858,474
396421302,68324,-0.0288,-0.0400,1.0229,0.0610,0.0610,-0.2441,1,465,819,474
396426304,68325,-0.0278,-0.0405,1.0234,0.0610,0.1221,-0.2441,1,467,867,474
396431309,68326,-0.0278,-0.0405,1.0234,0.0610,0.1221,-0.2441,1,470,876,474
396436307,68327,-0.0283,-0.0396,1.0220,0.0610,0.1831,-0.3052,1,471,876,474
396441311,68328,-0.0293,-0.0391,1.0210,0.0610,0.1221,-0.1221,1,481,855,474
396446302,68329,-0.0298,-0.0391,1.0225,0.0000,0.1831,-0.1831,1,481,843,474
396451309,68330,-0.0278,-0.0410,1.0220,0.0000,0.1221,-0.3052,1,511,809,474
396456306,68331,-0.0269,-0.0420,1.0215,0.1831,0.1221,-0.0610,1,473,749,474
396461303,68332,-0.0278,-0.0415,1.0229,0.0000,0.1221,-0.1221,1,466,805,474
396466308,68333,-0.0288,-0.0415,1.0244,-0.1221,0.1221,-0.1831,1,479,802,474
396471301,68334,-0.0283,-0.0425,1.0229,0.0000,0.1221,-0.1831,1,488,849,474
396476304,68335,-0.0283,-0.0430,1.0210,0.1831,0.0610,-0.1831,1,475,804,474
396481304,68336,-0.0288,-0.0435,1.0200,0.1221,0.0610,-0.2441,1,482,848,474
396486308,68337,-0.0278,-0.0430,1.0200,0.0000,-0.0610,-0.1831,1,471,846,474
396491305,68338,-0.0278,-0.0425,1.0205,0.0000,0.0000,-0.1831,1,493,803,474
396496301,68339,-0.0288,-0.0425,1.0215,0.1221,-0.0610,-0.1831,1,466,785,474
396501321,68340,-0.0283,-0.0415,1.0220,0.1831,-0.1221,-0.1221,1,465,876,474
396506305,68341,-0.0278,-0.0405,1.0215,0.0000,-0.0610,-0.2441,1,466,876,474
396511303,68342,-0.0278,-0.0405,1.0210,-0.0610,0.0000,-0.1831,1,466,822,474
396516307,68343,-0.0273,-0.0415,1.0220,0.0610,-0.0610,-0.1831,1,484,821,474
396521302,68344,-0.0269,-0.0415,1.0215,0.1221,0.0610,-0.2441,1,465,875,474
396526308,68345,-0.0259,-0.0410,1.0210,0.1831,0.1221,-0.2441,1,481,931,474
396531301,68346,-0.0264,-0.0415,1.0220,0.1831,0.0610,-0.3052,1,479,863,474
396536303,68347,-0.0273,-0.0425,1.0220,0.0610,0.0610,-0.2441,1,471,871,474
396541306,68348,-0.0278,-0.0420,1.0205,0.1831,0.0610,-0.3052,1,475,856,474
396546302,68349,-0.0283,-0.0410,1.0195,0.2441,0.0610,-0.2441,1,477,856,474
396551306,68350,-0.0288,-0.0410,1.0210,0.1221,0.0000,-0.3052,1,505,862,474
396556305,68351,-0.0273,-0.0425,1.0229,0.1831,0.0000,-0.3052,1,466,748,474
396561309,68352,-0.0259,-0.0420,1.0229,0.1221,0.0000,-0.2441,1,493,764,474
396566303,68353,-0.0264,-0.0405,1.0234,0.0610,0.0610,-0.1831,1,484,803,474
396571302,68354,-0.0269,-0.0400,1.0244,0.1831,0.0000,-0.1221,1,480,876,474
396576305,68355,-0.0259,-0.0400,1.0239,0.1221,0.0610,-0.1831,1,483,827,474
396581306,68356,-0.0244,-0.0400,1.0234,0.0610,0.2441,-0.2441,1,490,871,474
396586310,68357,-0.0249,-0.0410,1.0229,0.0610,0.1831,-0.3052,1,480,852,474
396591302,68358,-0.0278,-0.0410,1.0220,0.0000,0.0610,-0.3052,1,483,849,474
396596305,68359,-0.0293,-0.0415,1.0205,0.2441,0.0000,-0.2441,1,466,798,474
396601314,68360,-0.0288,-0.0410,1.0210,0.0610,0.0610,-0.2441,1,466,834,474
396606308,68361,-0.0269,-0.0405,1.0229,0.0610,0.1221,-0.2441,1,466,874,474
396611309,68362,-0.0264,-0.0405,1.0229,0.1221,0.0000,-0.2441,1,484,875,474
396616306,68363,-0.0269,-0.0410,1.0220,0.1221,0.0610,-0.2441,1,471,773,474
396621304,68364,-0.0288,-0.0415,1.0220,0.1221,0.0610,-0.2441,1,465,870,474
396626302,68365,-0.0288,-0.0420,1.0215,0.1831,0.0000,-0.3052,1,469,931,474
396631305,68366,-0.0269,-0.0420,1.0215,0.1831,0.1831,-0.1831,1,477,819,474
396636304,68367,-0.0264,-0.0415,1.0210,0.1221,0.1221,-0.2441,1,483,869,474
396641302,68368,-0.0269,-0.0410,1.0215,0.1831,-0.1221,-0.2441,1,470,853,474
396646307,68369,-0.0278,-0.0415,1.0220,0.0610,-0.1831,-0.2441,1,480,858,474
396651302,68370,-0.0283,-0.0420,1.0215,0.0610,0.0000,-0.2441,1,503,862,474
396656309,68371,-0.0283,-0.0410,1.0220,0.0000,-0.0610,-0.1831,1,467,756,474
396661306,68372,-0.0264,-0.0405,1.0215,0.0610,-0.1831,-0.3052,1,494,765,474
396666308,68373,-0.0264,-0.0405,1.0210,0.0610,-0.0610,-0.2441,1,490,853,474
396671308,68374,-0.0278,-0.0405,1.0210,0.1831,-0.1221,-0.1831,1,476,844,474
396676303,68375,-0.0283,-0.0415,1.0220,0.1221,0.0000,-0.1221,1,490,848,474
396681307,68376,-0.0259,-0.0415,1.0259,0.1221,-0.0610,-0.3052,1,475,798,474
396686306,68377,-0.0259,-0.0425,1.0249,0.1221,0.0000,-0.1831,1,485,840,474
396691306,68378,-0.0254,-0.0425,1.0234,0.0610,0.0610,-0.3052,1,487,801,474
396696303,68379,-0.0249,-0.0410,1.0220,0.0610,0.1221,-0.3052,1,466,841,474
396701318,68380,-0.0254,-0.0400,1.0215,0.0610,0.1831,-0.3052,1,466,868,474
396706304,68381,-0.0264,-0.0400,1.0220,0.0610,0.1831,-0.4272,1,466,870,474
396711307,68382,-0.0278,-0.0410,1.0225,0.0000,0.1831,-0.3662,1,484,874,474
396716310,68383,-0.0278,-0.0415,1.0225,0.3052,0.3052,-0.3052,1,476,779,474
396721307,68384,-0.0264,-0.0405,1.0220,0.1831,0.2441,-0.1831,1,465,867,474
396726304,68385,-0.0254,-0.0400,1.0220,0.1221,0.2441,-0.1831,1,470,921,474
396731302,68386,-0.0249,-0.0410,1.0239,0.0610,0.3052,-0.2441,1,478,864,474
396736304,68387,-0.0254,-0.0425,1.0239,0.1831,0.2441,-0.2441,1,467,875,474
396741317,68388,-0.0259,-0.0425,1.0234,0.0610,0.1831,-0.3662,1,469,864,474
396746303,68389,-0.0259,-0.0420,1.0244,0.0000,0.4272,-0.3052,1,482,860,474
396751302,68390,-0.0259,-0.0420,1.0234,0.0610,0.4272,-0.3052,1,469,809,474
396756301,68391,-0.0249,-0.0415,1.0225,0.0000,0.4272,-0.1831,1,466,871,474
396761302,68392,-0.0244,-0.0405,1.0229,-0.0610,0.5493,-0.3052,1,494,760,474
396766303,68393,-0.0244,-0.0415,1.0234,0.0000,0.6104,-0.3052,1,480,856,474
396771309,68394,-0.0254,-0.0420,1.0234,-0.0610,0.5493,-0.1221,1,488,799,474
396776301,68395,-0.0249,-0.0415,1.0234,0.0000,0.6104,-0.1221,1,491,845,474
396781301,68396,-0.0254,-0.0405,1.0229,-0.0610,0.6714,-0.3052,1,477,801,474
396786303,68397,-0.0273,-0.0405,1.0215,-0.1221,0.6714,-0.3052,1,489,841,474
396791308,68398,-0.0293,-0.0415,1.0195,-0.0610,0.6714,-0.2441,1,470,842,474
396796303,68399,-0.0308,-0.0430,1.0181,-0.1221,0.5493,-0.2441,1,493,849,474
396801301,68400,-0.0303,-0.0430,1.0195,-0.0610,0.4272,-0.2441,1,466,871,474
396806305,68401,-0.0283,-0.0420,1.0215,0.0610,0.3052,-0.3052,1,465,877,474
396811301,68402,-0.0269,-0.0420,1.0239,0.0000,0.4272,-0.2441,1,483,869,474
396816304,68403,-0.0269,-0.0420,1.0244,-0.0610,0.5493,-0.2441,1,471,825,474
396821303,68404,-0.0278,-0.0420,1.0239,-0.1221,0.5493,-0.3052,1,484,822,474
396826303,68405,-0.0278,-0.0410,1.0225,-0.1221,0.4883,-0.3052,1,482,903,474
396831302,68406,-0.0278,-0.0420,1.0225,-0.1221,0.3052,-0.3052,1,467,861,474
396836306,68407,-0.0264,-0.0435,1.0220,-0.0610,0.2441,-0.3052,1,475,859,474
396841306,68408,-0.0273,-0.0405,1.0220,-0.0610,0.3052,-0.2441,1,477,870,474
396846326,68409,-0.0283,-0.0386,1.0220,-0.2441,0.3052,-0.2441,1,480,856,474
396851307,68410,-0.0278,-0.0400,1.0220,-0.3052,0.3662,-0.2441,1,465,859,474
396856305,68411,-0.0269,-0.0420,1.0220,-0.2441,0.3052,-0.1221,1,511,858,474
396861309,68412,-0.0264,-0.0410,1.0225,-0.1221,0.2441,-0.1221,1,492,868,474
396866303,68413,-0.0264,-0.0386,1.0225,-0.1831,0.4272,-0.1221,1,466,824,474
396871310,68414,-0.0264,-0.0400,1.0220,-0.3052,0.4272,-0.1221,1,478,845,474
396876302,68415,-0.0278,-0.0425,1.0220,-0.1831,0.3662,-0.1221,1,481,841,474
396881304,68416,-0.0288,-0.0420,1.0215,-0.1831,0.4272,-0.3052,1,490,850,474
396886302,68417,-0.0278,-0.0420,1.0225,-0.1831,0.3052,-0.1221,1,474,848,474
396891308,68418,-0.0273,-0.0415,1.0229,-0.1831,0.5493,-0.1831,1,487,844,474
396896302,68419,-0.0278,-0.0420,1.0225,-0.1831,0.5493,-0.1221,1,493,859,474
396901308,68420,-0.0288,-0.0425,1.0215,-0.1221,0.4883,-0.3052,1,466,878,474
396906309,68421,-0.0283,-0.0420,1.0215,-0.0610,0.4272,-0.2441,1,466,872,474
396911306,68422,-0.0278,-0.0405,1.0225,0.0000,0.3662,-0.1221,1,466,879,474
396916304,68423,-0.0283,-0.0405,1.0225,-0.0610,0.3662,-0.1831,1,465,821,474
396921306,68424,-0.0298,-0.0415,1.0215,-0.0610,0.4272,-0.2441,1,484,868,474
396926305,68425,-0.0298,-0.0425,1.0205,0.0610,0.4272,-0.2441,1,465,877,474
396931305,68426,-0.0293,-0.0420,1.0215,0.0000,0.4272,-0.2441,1,482,929,474
396936308,68427,-0.0283,-0.0405,1.0225,0.0000,0.3052,-0.1831,1,466,831,474
396941307,68428,-0.0273,-0.0396,1.0239,0.0610,0.3052,-0.1831,1,466,811,474
396946308,68429,-0.0269,-0.0391,1.0234,0.0000,0.3662,-0.3662,1,472,857,474
396951308,68430,-0.0264,-0.0391,1.0215,0.0000,0.4883,-0.1221,1,477,813,474
396956309,68431,-0.0264,-0.0400,1.0205,0.0610,0.4272,-0.0610,1,474,801,474
396961301,68432,-0.0278,-0.0425,1.0210,0.0000,0.4883,-0.1221,1,466,869,474
396966308,68433,-0.0288,-0.0439,1.0220,0.0000,0.4883,-0.3052,1,494,776,474
396971303,68434,-0.0278,-0.0430,1.0225,0.0610,0.4272,-0.3052,1,483,801,474
396976305,68435,-0.0273,-0.0415,1.0220,0.0610,0.4272,-0.1831,1,473,845,474
396981301,68436,-0.0283,-0.0405,1.0215,0.1831,0.5493,-0.1221,1,473,851,474
396986307,68437,-0.0293,-0.0410,1.0215,0.1221,0.4272,-0.2441,1,488,870,474
396991301,68438,-0.0288,-0.0405,1.0220,0.0610,0.3052,-0.3052,1,473,846,474
396996302,68439,-0.0273,-0.0405,1.0234,0.0610,0.4272,-0.2441,1,482,841,474
397001310,68440,-0.0269,-0.0405,1.0249,0.1221,0.4883,-0.1221,1,493,853,474
397006308,68441,-0.0264,-0.0405,1.0234,0.1831,0.4272,-0.1831,1,466,870,474
397011301,68442,-0.0273,-0.0415,1.0215,0.1831,0.4883,-0.2441,1,466,882,474
397016301,68443,-0.0288,-0.0420,1.0210,0.0610,0.2441,-0.1221,1,484,881,474
397021305,68444,-0.0278,-0.0410,1.0205,0.1221,0.3662,-0.0610,1,469,863,474
397026308,68445,-0.0264,-0.0396,1.0220,-0.0610,0.4883,-0.1221,1,484,809,474
397031306,68446,-0.0269,-0.0396,1.0234,-0.0610,0.5493,-0.1831,1,471,896,474
397036302,68447,-0.0278,-0.0405,1.0244,0.0000,0.4883,-0.1831,1,477,870,474
397041301,68448,-0.0273,-0.0410,1.0239,0.0000,0.4272,-0.1831,1,482,834,474
397046306,68449,-0.0273,-0.0415,1.0234,-0.0610,0.4272,-0.3052,1,465,818,474
397051306,68450,-0.0278,-0.0415,1.0234,-0.1221,0.6104,-0.3052,1,467,859,474
397056308,68451,-0.0278,-0.0400,1.0225,0.0000,0.4272,-0.1831,1,467,854,474
397061303,68452,-0.0273,-0.0405,1.0215,-0.0610,0.4883,-0.1831,1,509,813,474
397066303,68453,-0.0283,-0.0425,1.0210,-0.0610,0.5493,-0.2441,1,473,874,474
397071308,68454,-0.0303,-0.0425,1.0210,0.0000,0.4883,-0.1831,1,493,814,474
397076303,68455,-0.0303,-0.0405,1.0234,0.0610,0.3052,-0.2441,1,487,808,474
397081309,68456,-0.0288,-0.0396,1.0249,0.0610,0.3662,-0.3052,1,492,843,474
397086307,68457,-0.0278,-0.0391,1.0239,0.1221,0.3662,-0.3052,1,476,847,474
397091308,68458,-0.0278,-0.0405,1.0215,0.0000,0.3052,-0.3052,1,490,871,474
397096310,68459,-0.0278,-0.0410,1.0210,-0.0610,0.3662,-0.2441,1,481,797,474
397101302,68460,-0.0269,-0.0415,1.0215,0.0000,0.3662,-0.2441,1,487,850,474
397106303,68461,-0.0273,-0.0415,1.0220,0.0000,0.3052,-0.3052,1,466,833,474
397111326,68462,-0.0293,-0.0410,1.0215,0.0000,0.3052,-0.1831,1,466,825,474
397116309,68463,-0.0308,-0.0415,1.0210,0.0610,0.2441,-0.1831,1,466,826,474
397121304,68464,-0.0308,-0.0420,1.0220,0.0610,0.2441,-0.2441,1,466,875,474
397126301,68465,-0.0298,-0.0420,1.0239,0.0000,0.1831,-0.2441,1,484,863,474
397131308,68466,-0.0288,-0.0415,1.0244,0.0000,0.1831,-0.2441,1,465,824,474
397136304,68467,-0.0283,-0.0410,1.0234,0.0000,0.3662,-0.3052,1,474,828,474
397141306,68468,-0.0278,-0.0405,1.0229,-0.0610,0.3052,-0.2441,1,482,823,474
397146309,68469,-0.0278,-0.0415,1.0225,0.0000,0.2441,-0.2441,1,466,877,474
397151301,68470,-0.0273,-0.0420,1.0215,-0.0610,0.3052,-0.2441,1,465,819,474
397156307,68471,-0.0269,-0.0425,1.0215,-0.1221,0.3052,-0.3052,1,478,855,474
397161305,68472,-0.0278,-0.0420,1.0225,-0.1221,0.2441,-0.1831,1,470,847,474
397166303,68473,-0.0278,-0.0410,1.0234,-0.1221,0.1831,-0.1221,1,466,876,474
397171302,68474,-0.0278,-0.0405,1.0239,-0.2441,0.1831,-0.2441,1,494,875,474
397176306,68475,-0.0288,-0.0400,1.0239,-0.2441,0.2441,-0.2441,1,481,811,474
397181310,68476,-0.0288,-0.0400,1.0229,-0.1831,0.3052,-0.1831,1,490,866,474
397186306,68477,-0.0288,-0.0410,1.0220,-0.3662,0.2441,-0.1221,1,488,851,474
397191308,68478,-0.0288,-0.0425,1.0210,-0.3052,0.1831,-0.3052,1,483,871,474
397196303,68479,-0.0293,-0.0430,1.0210,-0.2441,0.1831,-0.3052,1,474,842,474
397201304,68480,-0.0293,-0.0420,1.0229,-0.1831,0.3052,-0.2441,1,487,845,474
397206302,68481,-0.0288,-0.0410,1.0239,-0.2441,0.2441,-0.2441,1,465,849,474
397211301,68482,-0.0288,-0.0410,1.0229,-0.1831,0.2441,-0.3052,1,466,886,474
397216309,68483,-0.0283,-0.0410,1.0225,-0.3662,0.3052,-0.2441,1,466,880,474
397221303,68484,-0.0278,-0.0420,1.0229,-0.3662,0.2441,-0.2441,1,466,879,474
397226306,68485,-0.0273,-0.0425,1.0229,-0.3662,0.1831,-0.3052,1,484,874,474
397231310,68486,-0.0269,-0.0415,1.0220,-0.3662,0.3052,-0.3662,1,465,906,474
397236302,68487,-0.0273,-0.0415,1.0205,-0.3662,0.3052,-0.2441,1,482,866,474
397241302,68488,-0.0278,-0.0420,1.0210,-0.6104,0.4272,-0.2441,1,479,877,474
397246304,68489,-0.0283,-0.0415,1.0225,-0.4883,0.3052,-0.1831,1,466,876,474
397251309,68490,-0.0283,-0.0415,1.0239,-0.4272,0.4883,-0.3052,1,472,859,474
397256310,68491,-0.0278,-0.0425,1.0234,-0.4883,0.3662,-0.3052,1,470,860,474
397261306,68492,-0.0278,-0.0430,1.0215,-0.5493,0.3662,-0.1831,1,509,858,474
397266302,68493,-0.0283,-0.0430,1.0215,-0.4272,0.4272,-0.1831,1,477,882,474
397271303,68494,-0.0278,-0.0435,1.0239,-0.4883,0.4883,-0.1221,1,465,814,474
397276308,68495,-0.0283,-0.0444,1.0254,-0.3662,0.4883,-0.1831,1,488,827,474
397281302,68496,-0.0278,-0.0454,1.0249,-0.4272,0.4883,-0.1831,1,477,853,474
397286308,68497,-0.0273,-0.0444,1.0229,-0.4883,0.6714,-0.1831,1,488,857,474
397291307,68498,-0.0288,-0.0425,1.0205,-0.4883,0.6714,-0.1831,1,474,852,474
397296309,68499,-0.0303,-0.0420,1.0205,-0.3052,0.6104,-0.2441,1,490,849,474
397301305,68500,-0.0308,-0.0420,1.0210,-0.3052,0.3662,-0.2441,1,493,841,474
397306309,68501,-0.0298,-0.0430,1.0225,-0.3052,0.2441,-0.1831,1,466,871,474
397311305,68502,-0.0293,-0.0435,1.0229,-0.3052,0.3052,-0.1831,1,466,876,474
397316305,68503,-0.0293,-0.0430,1.0229,-0.3662,0.2441,-0.2441,1,483,873,474
397321302,68504,-0.0293,-0.0425,1.0234,-0.3662,0.3662,-0.3662,1,469,873,474
397326301,68505,-0.0283,-0.0430,1.0249,-0.4272,0.4272,-0.2441,1,465,873,474
397331306,68506,-0.0273,-0.0435,1.0244,-0.3662,0.3052,-0.2441,1,465,924,474
397336308,68507,-0.0278,-0.0425,1.0220,-0.3662,0.3052,-0.2441,1,465,869,474
397341304,68508,-0.0273,-0.0420,1.0205,-0.3662,0.4272,-0.1831,1,471,869,474
397346309,68509,-0.0269,-0.0430,1.0210,-0.4272,0.4883,-0.1831,1,482,836,474
397351322,68510,-0.0264,-0.0435,1.0234,-0.3662,0.6104,-0.1221,1,482,856,474
397356304,68511,-0.0269,-0.0439,1.0259,-0.2441,0.6714,-0.1831,1,472,853,474
397361305,68512,-0.0283,-0.0430,1.0254,-0.3052,0.6104,-0.2441,1,511,861,474
397366308,68513,-0.0298,-0.0430,1.0215,-0.1831,0.6714,-0.1831,1,494,871,474
397371305,68514,-0.0317,-0.0435,1.0186,-0.0610,0.4883,-0.1221,1,464,871,474
397376302,68515,-0.0322,-0.0425,1.0181,-0.0610,0.4272,-0.1831,1,476,843,474
397381305,68516,-0.0308,-0.0415,1.0200,-0.1831,0.4883,-0.1831,1,492,847,474
397386309,68517,-0.0278,-0.0420,1.0239,-0.2441,0.5493,-0.2441,1,492,848,474
397391305,68518,-0.0259,-0.0425,1.0259,-0.3052,0.6714,-0.1831,1,480,857,474
397396308,68519,-0.0269,-0.0425,1.0244,-0.3052,0.6714,-0.1831,1,472,844,474
397401305,68520,-0.0283,-0.0430,1.0225,-0.2441,0.6714,-0.1831,1,493,846,474
397406321,68521,-0.0283,-0.0439,1.0215,-0.2441,0.6714,-0.1831,1,465,880,474
397411305,68522,-0.0273,-0.0439,1.0220,-0.2441,0.6714,-0.1221,1,465,884,474
397416308,68523,-0.0273,-0.0435,1.0220,0.0000,0.7324,-0.1221,1,483,878,474
397421301,68524,-0.0283,-0.0435,1.0229,-0.0610,0.6714,-0.1831,1,478,771,474
397426305,68525,-0.0303,-0.0444,1.0229,0.0000,0.6104,-0.1221,1,465,878,474
397431309,68526,-0.0308,-0.0449,1.0220,0.0610,0.5493,-0.1221,1,471,814,474
397436310,68527,-0.0293,-0.0444,1.0215,0.0610,0.7324,-0.0610,1,472,861,474
397441308,68528,-0.0283,-0.0444,1.0215,0.0610,0.6714,-0.1831,1,480,866,474
397446306,68529,-0.0283,-0.0439,1.0210,0.0610,0.5493,-0.1221,1,467,860,474
397451328,68530,-0.0288,-0.0430,1.0200,0.1221,0.6714,-0.0610,1,475,857,474
397456305,68531,-0.0308,-0.0435,1.0195,0.0610,0.6104,-0.1221,1,478,851,474
397461308,68532,-0.0317,-0.0439,1.0205,0.1221,0.6104,-0.1221,1,466,865,474
397466308,68533,-0.0317,-0.0435,1.0200,0.3052,0.3662,-0.1831,1,494,868,474
397471302,68534,-0.0303,-0.0435,1.0200,0.2441,0.3662,-0.1221,1,468,856,474
397476301,68535,-0.0283,-0.0435,1.0215,0.3662,0.3662,-0.1831,1,484,843,474
397481308,68536,-0.0283,-0.0435,1.0234,0.2441,0.5493,-0.1221,1,475,852,474
397486306,68537,-0.0288,-0.0430,1.0244,0.3052,0.5493,-0.0610,1,491,851,474
397491302,68538,-0.0283,-0.0415,1.0234,0.2441,0.4883,-0.1221,1,483,847,474
397496302,68539,-0.0288,-0.0400,1.0225,0.3052,0.3052,-0.1221,1,473,850,474
397501309,68540,-0.0293,-0.0405,1.0225,0.2441,0.4272,-0.1831,1,493,838,474
397506316,68541,-0.0288,-0.0415,1.0229,0.1831,0.4272,-0.2441,1,466,879,474
397511301,68542,-0.0278,-0.0425,1.0234,0.1221,0.3662,-0.1831,1,466,887,474
397516309,68543,-0.0273,-0.0435,1.0225,0.0610,0.6104,-0.1831,1,465,880,474
397521309,68544,-0.0283,-0.0420,1.0220,0.1831,0.6714,-0.1221,1,475,863,474
397526301,68545,-0.0308,-0.0410,1.0215,0.1221,0.5493,-0.0610,1,465,875,474
397531303,68546,-0.0322,-0.0430,1.0205,-0.0610,0.3662,-0.2441,1,479,859,474
397536306,68547,-0.0317,-0.0459,1.0205,-0.0610,0.3662,-0.1831,1,482,871,474
397541308,68548,-0.0303,-0.0449,1.0205,0.1221,0.4272,-0.1221,1,482,870,474
397546306,68549,-0.0298,-0.0425,1.0205,0.0610,0.3662,-0.1831,1,465,852,474
397551320,68550,-0.0303,-0.0435,1.0195,0.0610,0.3052,-0.1831,1,470,858,474
397556307,68551,-0.0298,-0.0444,1.0195,0.1221,0.2441,0.0000,1,478,852,474
397561301,68552,-0.0293,-0.0435,1.0215,0.0610,0.3052,-0.1221,1,510,813,474
397566309,68553,-0.0288,-0.0444,1.0220,0.1221,0.3052,-0.2441,1,494,865,474
397571309,68554,-0.0298,-0.0454,1.0220,0.1221,0.3052,-0.1831,1,464,819,474
397576308,68555,-0.0298,-0.0435,1.0215,0.1221,0.4883,-0.1831,1,488,846,474
397581305,68556,-0.0298,-0.0430,1.0210,0.0610,0.2441,-0.3052,1,478,844,474
397586309,68557,-0.0298,-0.0430,1.0220,0.1831,0.2441,-0.1831,1,485,841,474
397591301,68558,-0.0303,-0.0405,1.0229,0.0000,0.2441,-0.1221,1,492,850,474
397596306,68559,-0.0303,-0.0430,1.0229,0.0610,0.1221,-0.2441,1,488,801,474
397601301,68560,-0.0288,-0.0420,1.0239,0.0610,0.1831,-0.1221,1,492,844,474
397606304,68561,-0.0283,-0.0405,1.0244,-0.0610,0.3052,-0.0610,1,466,876,474
397611307,68562,-0.0298,-0.0415,1.0234,-0.1221,0.4272,-0.1831,1,466,874,474
397616305,68563,-0.0293,-0.0439,1.0225,0.0000,0.3052,-0.1831,1,483,880,474
397621304,68564,-0.0283,-0.0444,1.0234,0.0610,0.5493,-0.0610,1,467,772,474
397626303,68565,-0.0278,-0.0435,1.0244,-0.1221,0.3662,-0.1221,1,484,822,474
397631308,68566,-0.0283,-0.0439,1.0244,-0.2441,0.4272,-0.1831,1,482,904,474
397636304,68567,-0.0293,-0.0444,1.0234,-0.1221,0.4883,-0.1221,1,465,877,474
397641307,68568,-0.0298,-0.0425,1.0229,0.0610,0.5493,-0.1221,1,474,863,474
397646308,68569,-0.0298,-0.0405,1.0220,0.0610,0.3662,-0.0610,1,476,872,474
397651312,68570,-0.0308,-0.0405,1.0205,-0.1221,0.3052,-0.1831,1,482,855,474
397656304,68571,-0.0322,-0.0415,1.0190,-0.1221,0.3662,-0.0610,1,478,851,474
397661308,68572,-0.0322,-0.0425,1.0200,-0.1831,0.3662,-0.0610,1,510,860,474
397666302,68573,-0.0298,-0.0430,1.0229,-0.1831,0.1221,-0.1831,1,473,877,474
397671308,68574,-0.0278,-0.0444,1.0234,-0.2441,0.1831,-0.1221,1,465,811,474
397676302,68575,-0.0273,-0.0449,1.0229,-0.3052,0.3052,-0.1831,1,475,865,474
397681303,68576,-0.0288,-0.0435,1.0239,-0.2441,0.4272,-0.2441,1,488,848,474
397686305,68577,-0.0293,-0.0430,1.0244,-0.2441,0.3052,-0.0610,1,475,858,474
397691308,68578,-0.0298,-0.0439,1.0229,-0.1221,0.3662,-0.1221,1,475,845,474
397696306,68579,-0.0303,-0.0444,1.0225,-0.1221,0.3052,-0.1831,1,483,847,474
397701304,68580,-0.0298,-0.0435,1.0234,-0.1221,0.4272,-0.2441,1,487,842,474
397706308,68581,-0.0293,-0.0420,1.0244,-0.1831,0.3662,-0.1831,1,465,849,474
397711308,68582,-0.0278,-0.0415,1.0254,-0.3662,0.4272,-0.1831,1,466,881,474
397716308,68583,-0.0269,-0.0405,1.0254,-0.4272,0.4272,-0.1831,1,466,885,474
397721302,68584,-0.0283,-0.0400,1.0244,-0.3662,0.4883,0.0000,1,465,879,474
397726301,68585,-0.0293,-0.0410,1.0220,-0.4883,0.3662,-0.1831,1,484,777,474
397731306,68586,-0.0298,-0.0439,1.0205,-0.4883,0.6104,-0.1831,1,465,905,474
397736309,68587,-0.0308,-0.0459,1.0210,-0.3662,0.6714,-0.0610,1,481,931,474
397741301,68588,-0.0312,-0.0454,1.0215,-0.3662,0.4883,-0.1831,1,482,860,474
397746301,68589,-0.0293,-0.0435,1.0225,-0.4272,0.4272,-0.1221,1,474,904,474
397751310,68590,-0.0264,-0.0400,1.0239,-0.4883,0.6714,0.0000,1,481,856,474
397756301,68591,-0.0278,-0.0435,1.0229,-0.6714,0.9766,-0.1221,1,479,809,474
397761303,68592,-0.0312,-0.0483,1.0205,-0.4272,0.7324,0.0000,1,482,855,474
397766303,68593,-0.0317,-0.0459,1.0205,-0.1831,0.6714,-0.0610,1,466,859,474
397771303,68594,-0.0303,-0.0425,1.0220,-0.4272,0.7324,-0.1831,1,494,874,474
397776301,68595,-0.0283,-0.0430,1.0239,-0.3662,0.6714,-0.0610,1,473,857,474
397781301,68596,-0.0278,-0.0449,1.0239,-0.3052,0.8545,-0.0610,1,486,861,474
397786310,68597,-0.0288,-0.0454,1.0229,-0.3052,0.9155,-0.1831,1,476,847,474
397791307,68598,-0.0312,-0.0449,1.0205,-0.2441,0.9155,-0.1831,1,491,854,474
397796309,68599,-0.0327,-0.0439,1.0186,0.0000,0.7935,-0.1221,1,483,880,474
397801308,68600,-0.0327,-0.0439,1.0200,-0.0610,0.6714,-0.2441,1,489,802,474
397806309,68601,-0.0317,-0.0444,1.0215,-0.0610,0.6104,-0.2441,1,493,851,474
397811319,68602,-0.0308,-0.0444,1.0215,-0.0610,0.6714,-0.2441,1,466,877,474
397816310,68603,-0.0312,-0.0444,1.0205,0.0000,0.5493,-0.1831,1,466,875,474
397821308,68604,-0.0317,-0.0444,1.0205,0.0610,0.4883,-0.1831,1,483,862,474
397826304,68605,-0.0312,-0.0430,1.0229,-0.0610,0.4272,-0.1831,1,479,868,474
397831304,68606,-0.0298,-0.0435,1.0239,0.0000,0.3662,-0.0610,1,465,847,474
397836301,68607,-0.0303,-0.0449,1.0225,0.1221,0.4272,-0.1831,1,474,821,474
397841305,68608,-0.0308,-0.0439,1.0220,0.0610,0.4272,-0.3052,1,483,864,474
397846306,68609,-0.0308,-0.0439,1.0234,0.0000,0.5493,-0.3052,1,465,870,474
397851305,68610,-0.0303,-0.0454,1.0239,0.0610,0.5493,-0.3052,1,468,813,474
397856316,68611,-0.0293,-0.0454,1.0234,0.1221,0.5493,-0.3052,1,476,856,474
397861304,68612,-0.0303,-0.0439,1.0220,0.2441,0.4883,-0.3052,1,484,856,474
397866310,68613,-0.0312,-0.0435,1.0215,0.1831,0.4883,-0.1831,1,510,854,474
397871305,68614,-0.0317,-0.0439,1.0220,0.1831,0.5493,-0.3052,1,482,901,474
397876309,68615,-0.0308,-0.0439,1.0225,0.0610,0.5493,-0.3052,1,464,815,474
397881308,68616,-0.0298,-0.0430,1.0225,0.0000,0.5493,-0.3052,1,486,843,474
397886305,68617,-0.0298,-0.0425,1.0220,0.0610,0.5493,-0.1831,1,476,798,474
397891308,68618,-0.0312,-0.0425,1.0220,0.0000,0.4883,-0.2441,1,481,847,474
397896304,68619,-0.0322,-0.0420,1.0215,0.0000,0.4883,-0.2441,1,488,827,474
397901306,68620,-0.0312,-0.0420,1.0220,0.0000,0.4272,-0.2441,1,481,804,474
397906306,68621,-0.0303,-0.0435,1.0234,-0.0610,0.4272,-0.2441,1,492,830,474
397911305,68622,-0.0312,-0.0444,1.0215,0.0000,0.3662,-0.2441,1,466,875,474
397916303,68623,-0.0317,-0.0439,1.0190,-0.0610,0.3052,-0.2441,1,466,860,474
397921304,68624,-0.0312,-0.0444,1.0186,0.0000,0.3662,-0.2441,1,483,879,474
397926302,68625,-0.0312,-0.0449,1.0195,-0.0610,0.3052,-0.3052,1,469,848,474
397931303,68626,-0.0312,-0.0439,1.0190,-0.1221,0.3052,-0.3052,1,484,886,474
397936306,68627,-0.0312,-0.0425,1.0190,0.0000,0.3052,-0.3052,1,479,893,474
397941305,68628,-0.0312,-0.0425,1.0210,-0.0610,0.2441,-0.3052,1,481,837,474
397946304,68629,-0.0303,-0.0430,1.0229,-0.0610,0.3052,-0.3662,1,483,886,474
397951303,68630,-0.0298,-0.0430,1.0239,-0.0610,0.3052,-0.2441,1,465,870,474
397956307,68631,-0.0308,-0.0430,1.0229,-0.0610,0.3052,-0.1831,1,469,855,474
397961301,68632,-0.0317,-0.0430,1.0215,0.0000,0.2441,-0.1831,1,466,853,474
397966309,68633,-0.0327,-0.0430,1.0205,-0.1221,0.2441,-0.3662,1,484,815,474
397971307,68634,-0.0332,-0.0430,1.0186,-0.1831,0.2441,-0.3052,1,466,876,474
397976305,68635,-0.0317,-0.0430,1.0176,-0.1221,0.1221,-0.2441,1,494,875,474
397981310,68636,-0.0303,-0.0444,1.0186,-0.0610,0.1831,-0.3052,1,471,854,474
397986305,68637,-0.0298,-0.0449,1.0200,0.0000,0.1831,-0.1831,1,478,853,474
397991301,68638,-0.0308,-0.0439,1.0210,0.0610,0.1221,-0.2441,1,481,804,474
397996301,68639,-0.0322,-0.0425,1.0210,0.1221,0.1221,-0.3052,1,472,870,474
398001303,68640,-0.0332,-0.0425,1.0220,0.1831,0.1221,-0.2441,1,483,838,474
398006301,68641,-0.0327,-0.0439,1.0229,-0.0610,0.1221,-0.2441,1,488,850,474
398011306,68642,-0.0322,-0.0449,1.0234,0.1221,0.0610,-0.3662,1,493,851,474
398016309,68643,-0.0322,-0.0449,1.0229,0.1221,-0.0610,-0.3052,1,466,878,474
398021301,68644,-0.0312,-0.0449,1.0220,0.0610,-0.1831,-0.3052,1,466,873,474
398026309,68645,-0.0298,-0.0439,1.0229,0.0610,-0.1221,-0.3052,1,483,899,474
398031304,68646,-0.0303,-0.0439,1.0229,0.1831,0.0000,-0.4272,1,465,861,474
398036302,68647,-0.0327,-0.0449,1.0210,0.1221,0.0000,-0.4883,1,484,833,474
398041309,68648,-0.0352,-0.0454,1.0181,0.1221,-0.1831,-0.3052,1,481,817,474
398046308,68649,-0.0352,-0.0449,1.0186,0.1221,-0.4883,-0.2441,1,481,860,474
398051301,68650,-0.0332,-0.0435,1.0205,0.1831,-0.4883,-0.4272,1,465,865,474
398056306,68651,-0.0298,-0.0430,1.0220,0.0000,-0.4883,-0.3052,1,478,878,474
398061304,68652,-0.0283,-0.0439,1.0229,0.1221,-0.4272,-0.3052,1,481,806,474
398066309,68653,-0.0288,-0.0435,1.0229,0.1831,-0.4272,-0.2441,1,480,859,474
398071307,68654,-0.0283,-0.0420,1.0244,0.0000,-0.4883,-0.2441,1,509,866,474
398076302,68655,-0.0278,-0.0400,1.0264,-0.1221,-0.3052,-0.2441,1,466,731,474
398081305,68656,-0.0293,-0.0410,1.0244,0.0000,-0.1221,-0.2441,1,493,768,474
398086308,68657,-0.0298,-0.0439,1.0225,0.0000,-0.0610,-0.2441,1,489,813,474
398091306,68658,-0.0298,-0.0449,1.0234,-0.1221,-0.0610,-0.1831,1,487,804,474
398096303,68659,-0.0283,-0.0449,1.0249,-0.1221,0.0610,-0.2441,1,475,849,474
398101303,68660,-0.0269,-0.0439,1.0249,-0.1831,0.2441,-0.2441,1,488,871,474
398106304,68661,-0.0288,-0.0435,1.0229,-0.3052,0.4272,-0.2441,1,475,857,474
398111301,68662,-0.0322,-0.0449,1.0215,-0.4272,0.4272,-0.2441,1,479,851,474
398116304,68663,-0.0322,-0.0469,1.0210,-0.1831,0.3662,-0.3052,1,493,856,474
398121325,68664,-0.0298,-0.0449,1.0205,0.0000,0.4883,-0.4883,1,466,874,474
398126310,68665,-0.0293,-0.0444,1.0190,-0.0610,0.6104,-0.4272,1,465,828,474
398131303,68666,-0.0303,-0.0464,1.0176,-0.0610,0.4883,-0.4883,1,484,875,474
398136308,68667,-0.0308,-0.0469,1.0186,0.1831,0.3662,-0.4883,1,484,859,474
398141307,68668,-0.0303,-0.0454,1.0200,0.1221,0.5493,-0.4883,1,465,872,474
398146305,68669,-0.0298,-0.0444,1.0220,0.0610,0.5493,-0.4883,1,474,861,474
398151309,68670,-0.0293,-0.0444,1.0234,0.1221,0.5493,-0.4883,1,479,866,474
398156303,68671,-0.0288,-0.0435,1.0244,0.1831,0.5493,-0.5493,1,479,868,474
398161309,68672,-0.0293,-0.0425,1.0239,0.0000,0.6714,-0.4883,1,469,884,474
398166318,68673,-0.0293,-0.0430,1.0225,0.1221,0.4883,-0.3662,1,466,810,474
398171304,68674,-0.0283,-0.0430,1.0229,0.0000,0.4883,-0.3662,1,480,852,474
398176301,68675,-0.0273,-0.0425,1.0249,0.0610,0.7324,-0.4272,1,511,815,474
398181303,68676,-0.0278,-0.0430,1.0254,0.0000,0.7935,-0.4272,1,492,879,474
398186305,68677,-0.0288,-0.0439,1.0249,0.0000,0.6104,-0.4272,1,464,813,474
398191309,68678,-0.0293,-0.0444,1.0249,-0.0610,0.5493,-0.3052,1,488,807,474
398196307,68679,-0.0288,-0.0444,1.0254,-0.1831,0.7935,-0.3662,1,487,847,474
398201301,68680,-0.0288,-0.0439,1.0259,-0.1221,0.9766,-0.4272,1,476,855,474
398206303,68681,-0.0278,-0.0430,1.0259,-0.3052,0.9766,-0.4272,1,492,848,474
398211308,68682,-0.0273,-0.0425,1.0264,-0.3662,1.0986,-0.2441,1,479,845,474
398216305,68683,-0.0264,-0.0425,1.0273,-0.3662,0.9766,-0.1831,1,492,853,474
398221307,68684,-0.0269,-0.0435,1.0273,-0.4883,1.1597,-0.3662,1,465,878,474
398226304,68685,-0.0298,-0.0435,1.0259,-0.4883,1.2817,-0.3052,1,466,878,474
398231310,68686,-0.0317,-0.0430,1.0239,-0.4272,1.2817,-0.4272,1,483,873,474
398236303,68687,-0.0317,-0.0444,1.0220,-0.3052,1.2817,-0.2441,1,465,884,474
398241301,68688,-0.0317,-0.0464,1.0200,-0.3662,1.4648,-0.2441,1,484,870,474
398246309,68689,-0.0332,-0.0474,1.0186,-0.4272,1.3428,-0.2441,1,472,911,474
398251303,68690,-0.0361,-0.0469,1.0142,-0.3052,1.3428,-0.1831,1,471,870,474
398256303,68691,-0.0400,-0.0483,1.0107,-0.2441,1.0376,-0.3052,1,479,872,474
398261306,68692,-0.0396,-0.0513,1.0137,-0.0610,0.6104,-0.3052,1,481,872,474
398266302,68693,-0.0342,-0.0493,1.0200,0.2441,0.3662,-0.3052,1,482,848,474
398271336,68694,-0.0288,-0.0439,1.0254,0.1831,0.4883,-0.3052,1,465,858,474
398276305,68695,-0.0278,-0.0410,1.0259,0.0000,0.6714,-0.3052,1,477,858,474
398281302,68696,-0.0308,-0.0420,1.0234,0.1221,0.5493,-0.2441,1,466,743,474
398286305,68697,-0.0322,-0.0439,1.0234,0.1221,0.3662,-0.2441,1,494,875,474
398291309,68698,-0.0312,-0.0439,1.0249,0.0000,0.4883,-0.0610,1,464,809,474
398296305,68699,-0.0293,-0.0435,1.0264,0.0000,0.7935,-0.1831,1,483,839,474
398301307,68700,-0.0278,-0.0420,1.0264,0.0000,0.7935,-0.3052,1,473,800,474
398306304,68701,-0.0283,-0.0405,1.0249,-0.3052,0.7935,-0.2441,1,483,799,474
398311301,68702,-0.0308,-0.0425,1.0239,-0.3662,0.6714,-0.1831,1,473,850,474
398316304,68703,-0.0322,-0.0435,1.0234,-0.1831,0.7324,-0.1221,1,486,850,474
398321301,68704,-0.0317,-0.0430,1.0239,-0.2441,0.7324,-0.3052,1,493,851,474
398326307,68705,-0.0308,-0.0420,1.0249,-0.1831,0.7935,-0.1831,1,493,852,474
398331306,68706,-0.0303,-0.0430,1.0254,-0.2441,0.7935,-0.0610,1,466,878,474
398336301,68707,-0.0293,-0.0459,1.0254,-0.1831,1.0376,-0.1831,1,483,872,474
398341307,68708,-0.0303,-0.0464,1.0249,-0.2441,0.9155,-0.1221,1,465,866,474
398346305,68709,-0.0317,-0.0464,1.0234,-0.3052,0.9155,-0.1831,1,484,864,474
398351305,68710,-0.0312,-0.0454,1.0244,-0.2441,1.0986,-0.1221,1,469,906,474
398356309,68711,-0.0312,-0.0444,1.0254,-0.4272,1.1597,-0.1221,1,473,947,474
398361306,68712,-0.0317,-0.0464,1.0239,-0.4883,1.2207,-0.0610,1,472,892,474
398366302,68713,-0.0312,-0.0479,1.0225,-0.3052,1.3428,-0.1221,1,483,875,474
398371301,68714,-0.0303,-0.0459,1.0239,-0.3052,1.4648,-0.1221,1,470,876,474
398376308,68715,-0.0293,-0.0430,1.0259,-0.3662,1.4038,-0.1221,1,473,853,474
398381308,68716,-0.0317,-0.0430,1.0239,-0.4883,1.4648,-0.1221,1,484,855,474
398386305,68717,-0.0347,-0.0444,1.0200,-0.4883,1.4648,-0.2441,1,465,878,474
398391308,68718,-0.0352,-0.0439,1.0200,-0.4272,1.4648,-0.1831,1,494,879,474
398396309,68719,-0.0327,-0.0444,1.0225,-0.5493,1.5869,-0.1831,1,465,806,474
398401310,68720,-0.0298,-0.0430,1.0249,-0.5493,1.5259,-0.1221,1,481,869,474
398406304,68721,-0.0293,-0.0415,1.0259,-0.7324,1.6479,-0.0610,1,490,848,474
398411302,68722,-0.0303,-0.0454,1.0249,-0.6714,1.8311,-0.0610,1,485,872,474
398416304,68723,-0.0322,-0.0474,1.0239,-0.7324,1.8921,-0.1221,1,476,845,474
398421308,68724,-0.0317,-0.0444,1.0259,-0.7935,1.8921,-0.0610,1,479,848,474
398426307,68725,-0.0298,-0.0435,1.0283,-0.8545,2.0142,0.0000,1,493,847,474
398431314,68726,-0.0293,-0.0459,1.0269,-0.9155,2.1973,0.0000,1,466,828,474
398436305,68727,-0.0317,-0.0493,1.0225,-0.9155,2.1362,0.0000,1,466,829,474
398441309,68728,-0.0347,-0.0503,1.0190,-0.6714,2.1362,-0.0610,1,483,839,474
398446303,68729,-0.0371,-0.0483,1.0171,-0.6104,2.1973,-0.0610,1,471,864,474
398451307,68730,-0.0400,-0.0483,1.0156,-0.4883,2.0142,0.0000,1,465,874,474
398456305,68731,-0.0410,-0.0518,1.0132,-0.3052,1.8921,0.0000,1,482,820,474
398461306,68732,-0.0400,-0.0518,1.0117,0.0610,1.6479,-0.0610,1,466,813,474
398466301,68733,-0.0317,-0.0454,1.0225,-0.1831,1.8311,-0.3052,1,469,864,474
398471304,68734,-0.0342,-0.0483,1.0200,-0.1831,1.4648,-0.1221,1,479,875,474
398476302,68735,-0.0361,-0.0483,1.0186,0.1831,1.4038,-0.1221,1,483,860,474
398481306,68736,-0.0361,-0.0459,1.0200,0.1221,1.4038,-0.1221,1,482,860,474
398486309,68737,-0.0352,-0.0464,1.0220,0.0610,1.4648,0.0000,1,510,853,474
398491307,68738,-0.0352,-0.0479,1.0220,0.0000,1.3428,0.0000,1,467,782,474
398496305,68739,-0.0356,-0.0469,1.0215,0.0610,1.3428,-0.1221,1,494,762,474
398501304,68740,-0.0371,-0.0454,1.0200,0.1831,1.3428,0.0000,1,464,850,474
398506304,68741,-0.0366,-0.0459,1.0195,0.1221,1.2207,0.0000,1,478,806,474
398511303,68742,-0.0347,-0.0469,1.0205,0.1831,1.0376,0.0610,1,488,823,474
398516306,68743,-0.0337,-0.0464,1.0225,0.3052,1.2207,0.0610,1,478,841,474
398521305,68744,-0.0347,-0.0469,1.0225,0.3052,1.2817,0.0000,1,487,841,474
398526307,68745,-0.0356,-0.0464,1.0210,0.3662,1.1597,0.0000,1,488,797,474
398531305,68746,-0.0366,-0.0449,1.0195,0.3662,1.0986,0.0000,1,493,801,474
398536307,68747,-0.0366,-0.0454,1.0195,0.3052,0.9766,0.0610,1,466,837,474
398541306,68748,-0.0361,-0.0469,1.0210,0.4272,0.8545,0.0610,1,483,873,474
398546309,68749,-0.0361,-0.0469,1.0205,0.3662,1.0376,0.0610,1,466,860,474
398551306,68750,-0.0386,-0.0459,1.0181,0.2441,0.9155,0.1221,1,483,863,474
398556305,68751,-0.0400,-0.0464,1.0166,0.3662,0.7935,0.0610,1,465,900,474
398561302,68752,-0.0400,-0.0459,1.0176,0.4883,0.6104,0.0000,1,482,931,474
398566307,68753,-0.0381,-0.0449,1.0195,0.4272,0.3662,0.0000,1,467,777,474
398571303,68754,-0.0361,-0.0444,1.0210,0.3662,0.3662,-0.1221,1,467,816,474
398576307,68755,-0.0356,-0.0439,1.0215,0.4883,0.3662,-0.0610,1,474,860,474
398581322,68756,-0.0361,-0.0439,1.0215,0.4883,0.3662,-0.0610,1,472,860,474
398586303,68757,-0.0366,-0.0454,1.0215,0.5493,0.3052,0.0000,1,478,858,474
398591302,68758,-0.0366,-0.0464,1.0215,0.4272,0.2441,-0.0610,1,511,813,474
398596301,68759,-0.0356,-0.0469,1.0229,0.4272,0.2441,-0.1221,1,466,877,474
398601301,68760,-0.0352,-0.0459,1.0229,0.4883,0.3052,-0.1221,1,494,799,474
398606304,68761,-0.0352,-0.0444,1.0205,0.4883,0.3052,-0.0610,1,488,850,474
398611304,68762,-0.0356,-0.0435,1.0210,0.4883,0.3052,-0.1221,1,475,843,474
398616309,68763,-0.0352,-0.0430,1.0229,0.4883,0.2441,-0.0610,1,487,840,474
398621308,68764,-0.0347,-0.0435,1.0244,0.3662,0.3052,-0.1221,1,490,868,474
398626302,68765,-0.0342,-0.0444,1.0254,0.3052,0.3052,-0.1221,1,479,844,474
398631306,68766,-0.0332,-0.0449,1.0244,0.3662,0.3662,-0.2441,1,482,869,474
398636309,68767,-0.0342,-0.0454,1.0229,0.4883,0.3662,-0.1831,1,493,858,474
398641306,68768,-0.0361,-0.0449,1.0220,0.3662,0.4272,-0.1831,1,466,882,474
398646307,68769,-0.0376,-0.0430,1.0215,0.3662,0.4272,-0.1221,1,484,883,474
398651304,68770,-0.0371,-0.0420,1.0220,0.2441,0.4272,-0.1221,1,466,863,474
398656308,68771,-0.0361,-0.0435,1.0215,0.3052,0.4883,-0.1221,1,485,867,474
398661306,68772,-0.0347,-0.0439,1.0220,0.3052,0.4883,-0.1221,1,470,897,474
398666308,68773,-0.0342,-0.0444,1.0234,0.1831,0.4883,-0.1221,1,480,859,474
398671303,68774,-0.0337,-0.0449,1.0244,0.1221,0.4883,-0.0610,1,483,875,474
398676305,68775,-0.0337,-0.0454,1.0229,0.1221,0.6104,-0.1221,1,470,872,474
398681305,68776,-0.0347,-0.0449,1.0220,0.1831,0.5493,-0.2441,1,477,853,474
398686303,68777,-0.0352,-0.0439,1.0220,0.2441,0.6104,-0.0610,1,478,864,474
398691305,68778,-0.0356,-0.0449,1.0225,0.1831,0.5493,0.0000,1,510,855,474
398696301,68779,-0.0352,-0.0474,1.0225,0.0000,0.6104,-0.1221,1,474,835,474
398701301,68780,-0.0337,-0.0469,1.0229,0.0610,0.7324,-0.1221,1,494,718,474
398706301,68781,-0.0337,-0.0444,1.0229,0.0610,0.7935,-0.1221,1,473,844,474
398711303,68782,-0.0337,-0.0435,1.0234,0.0610,0.8545,-0.1221,1,485,845,474
398716309,68783,-0.0347,-0.0430,1.0239,0.0610,0.8545,-0.1221,1,492,843,474
398721305,68784,-0.0352,-0.0439,1.0239,-0.0610,0.7324,-0.1221,1,472,863,474
398726308,68785,-0.0347,-0.0449,1.0239,0.0000,0.9766,-0.0610,1,485,848,474
398731308,68786,-0.0337,-0.0444,1.0225,0.0610,0.9155,-0.0610,1,483,800,474
398736309,68787,-0.0337,-0.0464,1.0215,0.0000,0.8545,0.0610,1,492,847,474
398741307,68788,-0.0337,-0.0449,1.0220,0.1221,0.9766,0.1831,1,466,824,474
398746308,68789,-0.0361,-0.0415,1.0215,0.1221,1.0986,-0.1221,1,466,871,474
398751306,68790,-0.0376,-0.0439,1.0205,-0.0610,0.9155,-0.1221,1,465,873,474
398756303,68791,-0.0381,-0.0459,1.0205,0.1221,0.9766,0.0610,1,484,864,474
398761302,68792,-0.0381,-0.0449,1.0215,0.1831,1.0376,-0.0610,1,465,893,474
398766304,68793,-0.0376,-0.0435,1.0225,0.2441,0.9766,-0.0610,1,469,862,474
398771304,68794,-0.0376,-0.0435,1.0225,0.1221,1.0376,-0.0610,1,471,871,474
398776307,68795,-0.0371,-0.0449,1.0225,0.1221,0.9766,-0.0610,1,477,867,474
398781309,68796,-0.0371,-0.0464,1.0225,0.2441,0.9155,-0.1221,1,478,853,474
398786332,68797,-0.0376,-0.0469,1.0215,0.2441,0.9766,-0.1221,1,481,859,474
398791304,68798,-0.0371,-0.0454,1.0205,0.3662,0.9766,-0.0610,1,478,851,474
398796303,68799,-0.0366,-0.0430,1.0210,0.1831,0.9766,-0.0610,1,466,877,474
398801308,68800,-0.0361,-0.0430,1.0225,0.1221,0.9766,0.0000,1,472,871,474
398806310,68801,-0.0356,-0.0439,1.0229,0.1831,1.0376,-0.1221,1,494,778,474
398811303,68802,-0.0361,-0.0449,1.0220,0.1221,1.0986,-0.1221,1,488,873,474
398816310,68803,-0.0366,-0.0449,1.0220,0.2441,1.0376,-0.1831,1,485,846,474
398821303,68804,-0.0366,-0.0459,1.0225,0.1221,1.0376,-0.1221,1,491,853,474
398826305,68805,-0.0361,-0.0469,1.0225,0.2441,1.2207,-0.1831,1,487,841,474
398831304,68806,-0.0361,-0.0454,1.0225,0.3052,1.2817,-0.2441,1,489,852,474
398836302,68807,-0.0366,-0.0439,1.0220,0.3662,1.2817,-0.0610,1,492,853,474
398841307,68808,-0.0366,-0.0425,1.0210,0.3662,1.4648,-0.1221,1,466,880,474
398846306,68809,-0.0366,-0.0435,1.0210,0.3662,1.2817,-0.0610,1,466,877,474
398851307,68810,-0.0371,-0.0454,1.0215,0.4272,1.1597,-0.1831,1,465,878,474
398856301,68811,-0.0376,-0.0474,1.0220,0.4272,1.3428,-0.1831,1,484,873,474
398861305,68812,-0.0366,-0.0469,1.0229,0.6104,1.5259,-0.0610,1,466,904,474
398866309,68813,-0.0352,-0.0454,1.0244,0.4272,1.4648,0.0000,1,470,862,474
398871308,68814,-0.0347,-0.0459,1.0234,0.3662,1.6479,-0.0610,1,475,836,474
398876303,68815,-0.0366,-0.0464,1.0229,0.4883,1.7700,0.0000,1,465,833,474
398881302,68816,-0.0396,-0.0464,1.0215,0.6714,1.7700,0.1221,1,475,813,474
398886308,68817,-0.0410,-0.0459,1.0195,0.6104,1.5869,0.1221,1,479,849,474
398891301,68818,-0.0391,-0.0459,1.0200,0.4883,1.5869,0.0610,1,484,853,474
398896310,68819,-0.0376,-0.0449,1.0210,0.5493,1.8311,0.1221,1,466,867,474
398901303,68820,-0.0376,-0.0439,1.0210,0.6104,1.7700,0.1221,1,481,870,474
398906305,68821,-0.0386,-0.0449,1.0210,0.6104,1.7090,0.0610,1,466,849,474
398911305,68822,-0.0396,-0.0439,1.0210,0.6104,1.7700,0.0610,1,490,840,474
398916306,68823,-0.0400,-0.0435,1.0205,0.6104,1.8311,0.1221,1,480,842,474
398921309,68824,-0.0396,-0.0464,1.0210,0.6104,1.6479,0.2441,1,490,836,474
398926310,68825,-0.0381,-0.0483,1.0225,0.7935,1.5869,0.4883,1,477,844,474
398931308,68826,-0.0376,-0.0483,1.0244,0.8545,1.7090,0.3052,1,478,847,474
398936306,68827,-0.0366,-0.0474,1.0249,0.8545,1.8311,0.4272,1,493,844,474
398941301,68828,-0.0347,-0.0479,1.0234,1.0376,1.8311,0.6104,1,466,876,474
398946304,68829,-0.0352,-0.0474,1.0215,1.0986,2.0142,0.6714,1,483,872,474
398951302,68830,-0.0376,-0.0454,1.0190,1.2207,2.0142,0.5493,1,466,861,474
398956308,68831,-0.0430,-0.0449,1.0156,1.2817,1.9531,0.5493,1,484,869,474
398961309,68832,-0.0439,-0.0474,1.0151,1.4648,1.2207,0.7935,1,473,912,474
398966310,68833,-0.0347,-0.0483,1.0225,1.5259,1.5869,0.7935,1,480,872,474
398971308,68834,-0.0332,-0.0439,1.0269,1.8311,2.8687,0.6714,1,465,878,474
398976301,68835,-0.0391,-0.0430,1.0229,1.4038,2.5024,0.8545,1,472,876,474
398981304,68836,-0.0400,-0.0464,1.0210,1.5259,2.3193,1.0986,1,467,857,474
398986306,68837,-0.0386,-0.0464,1.0229,1.5869,2.9297,1.1597,1,484,857,474
398991302,68838,-0.0405,-0.0381,1.0220,1.5259,2.7466,1.2207,1,511,861,474
398996303,68839,-0.0425,-0.0396,1.0181,1.2207,2.2583,1.1597,1,476,873,474
399001309,68840,-0.0381,-0.0479,1.0200,1.4038,2.3804,1.4648,1,494,875,474
399006306,68841,-0.0366,-0.0400,1.0239,1.7090,3.3569,1.6479,1,464,869,474
399011308,68842,-0.0435,-0.0366,1.0190,0.9155,3.3569,1.5869,1,476,856,474
399016301,68843,-0.0483,-0.0439,1.0137,0.9766,2.8687,1.7700,1,483,857,474
399021309,68844,-0.0469,-0.0459,1.0127,1.2817,2.8687,2.0142,1,477,849,474
399026308,68845,-0.0435,-0.0420,1.0142,0.9155,3.1128,2.0142,1,477,847,474
399031301,68846,-0.0425,-0.0391,1.0166,1.0986,3.2959,1.8311,1,476,847,474
399036301,68847,-0.0415,-0.0400,1.0210,0.9766,3.1128,1.9531,1,492,846,474
399041309,68848,-0.0371,-0.0430,1.0234,1.1597,3.2349,1.9531,1,466,874,474
399046306,68849,-0.0337,-0.0435,1.0225,1.0986,3.7231,1.9531,1,466,882,474
399051305,68850,-0.0347,-0.0391,1.0200,1.0986,4.3945,1.8921,1,465,882,474
399056303,68851,-0.0347,-0.0352,1.0186,0.9766,4.4556,1.8921,1,484,864,474
399061302,68852,-0.0308,-0.0391,1.0200,0.8545,5.1270,1.9531,1,466,899,474
399066307,68853,-0.0298,-0.0430,1.0210,1.2207,5.9204,1.8921,1,472,862,474
399071302,68854,-0.0352,-0.0415,1.0205,1.3428,6.4697,1.8921,1,472,872,474
399076308,68855,-0.0410,-0.0391,1.0195,1.2207,6.5918,1.7700,1,480,877,474
399081301,68856,-0.0420,-0.0400,1.0176,1.2207,6.8359,1.5869,1,481,858,474
399086323,68857,-0.0410,-0.0396,1.0166,1.4038,7.0801,1.7090,1,465,862,474
399091309,68858,-0.0415,-0.0361,1.0176,1.4648,7.2632,1.7700,1,483,853,474
399096301,68859,-0.0425,-0.0327,1.0195,1.2207,7.2632,1.7700,1,510,864,474
399101309,68860,-0.0449,-0.0298,1.0239,1.0376,7.6904,1.6479,1,466,881,474
399106308,68861,-0.0464,-0.0312,1.0273,0.7324,7.5073,1.5259,1,494,881,474
399111308,68862,-0.0498,-0.0366,1.0210,0.6104,7.5684,1.5869,1,474,803,474
399116304,68863,-0.0562,-0.0454,1.0132,0.6104,6.8970,1.4648,1,483,851,474
399121309,68864,-0.0562,-0.0537,1.0132,1.0376,6.7749,1.1597,1,474,850,474
399126308,68865,-0.0562,-0.0518,1.0137,1.8921,6.8970,0.9766,1,480,850,474
399131310,68866,-0.0576,-0.0425,1.0161,1.8921,6.4087,0.7324,1,488,843,474
399136306,68867,-0.0562,-0.0347,1.0220,1.8311,6.1035,0.6104,1,488,850,474
399141308,68868,-0.0552,-0.0269,1.0269,1.7700,5.9814,0.4272,1,493,843,474
399146307,68869,-0.0566,-0.0225,1.0273,1.4038,5.6763,0.3662,1,466,879,474
399151304,68870,-0.0586,-0.0239,1.0278,0.8545,5.1270,0.3662,1,483,883,474
399156308,68871,-0.0586,-0.0283,1.0298,0.4883,4.8218,0.2441,1,465,871,474
399161301,68872,-0.0576,-0.0312,1.0317,0.1221,4.5776,0.2441,1,484,869,474
399166303,68873,-0.0581,-0.0317,1.0298,-0.2441,4.0894,0.4883,1,477,850,474
399171306,68874,-0.0591,-0.0322,1.0259,-0.5493,3.7842,0.3662,1,481,870,474
399176303,68875,-0.0586,-0.0327,1.0220,-0.7935,3.5400,0.3052,1,483,878,474
399181307,68876,-0.0591,-0.0347,1.0195,-0.9766,3.1738,0.2441,1,469,873,474
399186303,68877,-0.0620,-0.0386,1.0181,-0.9766,2.9297,0.3052,1,470,861,474
399191335,68878,-0.0640,-0.0405,1.0181,-0.9766,2.6855,0.1831,1,474,851,474
399196306,68879,-0.0630,-0.0396,1.0186,-0.7935,2.5024,0.1221,1,483,859,474
399201307,68880,-0.0615,-0.0391,1.0190,-0.6714,2.3193,0.0000,1,466,873,474
399206302,68881,-0.0640,-0.0459,1.0122,-0.5493,2.1362,-0.1831,1,471,757,474
399211306,68882,-0.0708,-0.0542,1.0010,0.1221,1.7700,-0.3662,1,466,809,474
399216303,68883,-0.0752,-0.0547,0.9985,0.7324,1.2207,-0.4272,1,491,850,474
399221310,68884,-0.0737,-0.0518,1.0000,1.4038,0.8545,-0.5493,1,483,851,474
399226309,68885,-0.0679,-0.0498,1.0039,1.8921,0.6104,-0.6714,1,486,844,474
399231306,68886,-0.0610,-0.0483,1.0083,2.3804,0.6714,-0.6104,1,473,842,474
399236301,68887,-0.0615,-0.0503,1.0049,2.7466,0.7324,-0.6104,1,480,846,474
399241310,68888,-0.0669,-0.0557,0.9980,3.4180,0.4883,-0.7935,1,487,845,474
399246320,68889,-0.0688,-0.0576,0.9971,4.2725,0.1221,-0.8545,1,493,847,474
399251307,68890,-0.0654,-0.0557,1.0039,5.0659,-0.1831,-0.8545,1,466,875,474
399256307,68891,-0.0581,-0.0532,1.0117,5.6152,-0.1831,-0.9766,1,483,882,474
399261307,68892,-0.0537,-0.0483,1.0132,6.2256,0.0000,-0.9766,1,471,876,474
399266304,68893,-0.0557,-0.0449,1.0103,6.5918,0.2441,-0.9766,1,484,861,474
399271304,68894,-0.0601,-0.0439,1.0083,7.0190,-0.1831,-0.9766,1,466,928,474
399276305,68895,-0.0581,-0.0435,1.0112,7.2021,-0.4272,-0.9766,1,467,863,474
399281304,68896,-0.0562,-0.0449,1.0146,7.8125,-0.2441,-1.0376,1,468,881,474
399286301,68897,-0.0591,-0.0469,1.0122,8.3618,-0.1221,-1.1597,1,474,880,474
399291304,68898,-0.0649,-0.0474,1.0034,8.8501,-0.4272,-1.1597,1,482,857,474
399296308,68899,-0.0742,-0.0459,0.9932,9.3994,-0.8545,-1.3428,1,479,858,474
399301301,68900,-0.0776,-0.0454,0.9888,9.8267,-1.9531,-1.5259,1,483,862,474
399306306,68901,-0.0732,-0.0454,0.9922,10.5591,-2.5635,-1.4648,1,493,884,474
399311302,68902,-0.0640,-0.0439,1.0024,11.0474,-3.0518,-1.5869,1,480,898,474
399316304,68903,-0.0537,-0.0415,1.0137,11.4746,-2.6855,-1.6479,1,464,823,474
399321308,68904,-0.0508,-0.0317,1.0190,11.7798,-2.3193,-1.6479,1,480,861,474
399326309,68905,-0.0522,-0.0186,1.0215,11.5356,-2.4414,-1.5869,1,487,873,474
399331303,68906,-0.0537,-0.0132,1.0210,11.0474,-2.3193,-1.5869,1,473,877,474
399336309,68907,-0.0571,-0.0112,1.0151,10.7422,-2.3193,-1.4038,1,481,892,474
399341308,68908,-0.0645,-0.0078,1.0083,10.4370,-2.8687,-1.3428,1,486,875,474
399346306,68909,-0.0674,-0.0093,1.0059,10.0098,-3.4180,-1.4038,1,489,866,474
399351322,68910,-0.0557,-0.0215,1.0142,9.8267,-3.6621,-1.5259,1,466,850,474
399356302,68911,-0.0591,-0.0107,1.0146,9.6436,-3.8452,-1.5869,1,466,880,474
399361301,68912,-0.0625,-0.0020,1.0146,8.9111,-4.3945,-1.7090,1,465,885,474
399366307,68913,-0.0615,-0.0010,1.0186,8.4229,-4.5776,-1.8921,1,484,869,474
399371301,68914,-0.0586,-0.0034,1.0244,8.0566,-5.1270,-2.1362,1,465,872,474
399376302,68915,-0.0527,-0.0020,1.0288,7.5073,-5.4932,-2.2583,1,482,926,474
399381308,68916,-0.0459,0.0010,1.0308,6.8970,-5.3711,-2.3193,1,465,873,474
399386304,68917,-0.0469,-0.0010,1.0259,6.3477,-5.1270,-2.3804,1,465,868,474
399391307,68918,-0.0562,-0.0034,1.0186,5.9814,-5.5542,-2.6855,1,473,850,474
399396318,68919,-0.0630,-0.0029,1.0176,5.6763,-6.5308,-2.8076,1,477,864,474
399401303,68920,-0.0630,-0.0015,1.0205,5.3101,-7.2021,-3.1128,1,484,857,474
399406303,68921,-0.0605,-0.0010,1.0195,4.8828,-7.9346,-3.3569,1,484,852,474
399411301,68922,-0.0571,-0.0034,1.0166,4.4556,-8.7280,-3.4790,1,466,880,474
399416310,68923,-0.0532,-0.0068,1.0156,4.3335,-9.3994,-3.6011,1,494,884,474
399421306,68924,-0.0498,-0.0068,1.0181,4.2725,-9.5215,-3.8452,1,471,833,474
399426301,68925,-0.0469,-0.0054,1.0229,3.9673,-9.9487,-4.0894,1,485,853,474
399431309,68926,-0.0483,-0.0024,1.0234,3.8452,-10.0708,-4.2725,1,480,847,474
399436307,68927,-0.0527,0.0020,1.0186,3.4790,-10.4370,-4.5166,1,471,870,474
399441302,68928,-0.0552,0.0015,1.0137,3.1128,-10.9253,-4.9438,1,486,869,474
399446305,68929,-0.0522,-0.0020,1.0132,2.9907,-11.4746,-5.2490,1,476,865,474
399451308,68930,-0.0479,-0.0063,1.0132,2.9297,-11.5967,-5.5542,1,493,872,474
399456302,68931,-0.0527,-0.0063,1.0078,2.8076,-11.9629,-6.0425,1,466,895,474
399461308,68932,-0.0742,0.0034,0.9971,2.6245,-13.1226,-6.2866,1,484,898,474
399466301,68933,-0.0918,0.0127,0.9907,1.4038,-15.4419,-6.3477,1,475,900,474
399471302,68934,-0.0884,0.0122,0.9946,0.4272,-17.3950,-6.4087,1,465,884,474
399476308,68935,-0.0781,0.0054,1.0034,-0.0610,-18.5547,-6.4697,1,475,920,474
399481305,68936,-0.0752,-0.0029,1.0107,-0.7324,-20.1416,-6.2256,1,474,874,474
399486302,68937,-0.0884,-0.0015,1.0103,-1.3428,-22.0947,-6.0425,1,482,890,474
399491310,68938,-0.1050,0.0098,1.0054,-2.3804,-25.5127,-6.1035,1,469,886,474
399496304,68939,-0.0986,0.0200,1.0054,-3.1738,-28.5645,-6.7139,1,465,872,474
399501330,68940,-0.0713,0.0190,1.0117,-3.9062,-30.3345,-7.3242,1,483,879,474
399506306,68941,-0.0464,0.0059,1.0239,-4.6997,-31.1890,-7.4463,1,484,883,474
399511301,68942,-0.0352,-0.0005,1.0317,-5.1270,-32.2876,-7.2021,1,466,897,474
399516309,68943,-0.0342,-0.0034,1.0278,-5.6763,-33.3862,-7.0190,1,494,887,474
399521306,68944,-0.0381,-0.0112,1.0239,-6.0425,-34.7900,-7.0801,1,464,791,474
399526307,68945,-0.0386,-0.0132,1.0249,-5.6763,-36.7432,-6.9580,1,475,857,474
399531307,68946,-0.0376,-0.0088,1.0273,-5.7983,-37.9028,-7.2632,1,480,866,474
399536306,68947,-0.0347,-0.0083,1.0317,-5.6763,-39.1846,-7.8125,1,481,867,474
399541307,68948,-0.0269,-0.0166,1.0352,-5.3101,-40.4663,-7.7515,1,491,891,474
399546301,68949,-0.0249,-0.0254,1.0332,-4.6997,-40.9546,-7.8735,1,482,867,474
399551306,68950,-0.0278,-0.0259,1.0312,-4.2114,-42.2974,-7.6904,1,493,877,474
399556303,68951,-0.0278,-0.0215,1.0337,-3.5400,-43.6401,-7.4463,1,466,932,474
399561301,68952,-0.0220,-0.0151,1.0391,-3.3569,-44.8608,-7.0801,1,483,899,474
399566302,68953,-0.0117,-0.0054,1.0425,-3.2349,-46.0205,-6.4087,1,465,895,474
399571309,68954,-0.0039,-0.0029,1.0435,-3.8452,-47.7295,-6.1646,1,484,879,474
399576308,68955,-0.0015,-0.0068,1.0454,-4.0283,-49.1333,-6.0425,1,466,893,474
399581303,68956,-0.0005,-0.0063,1.0479,-4.0894,-50.7812,-6.1646,1,472,880,474
399586305,68957,0.0024,-0.0083,1.0522,-4.9438,-52.7344,-6.2256,1,483,876,474
399591303,68958,-0.0029,-0.0098,1.0557,-5.3711,-53.8940,-6.0425,1,465,899,474
399596302,68959,-0.0176,-0.0054,1.0576,-6.1035,-56.6406,-5.3711,1,475,869,474
399601309,68960,-0.0371,0.0010,1.0601,-7.2021,-60.5469,-4.8218,1,479,877,474
399606308,68961,-0.0542,0.0029,1.0649,-8.9722,-67.3218,-4.3945,1,484,869,474
399611310,68962,-0.0537,-0.0024,1.0674,-10.9253,-75.4395,-5.0659,1,492,891,474
399616304,68963,-0.0479,-0.0029,1.0649,-12.7563,-82.8857,-5.9204,1,471,909,474
399621308,68964,-0.0586,0.0020,1.0645,-15.3198,-91.4917,-7.5073,1,465,843,474
399626307,68965,-0.1187,0.0068,1.0723,-17.5171,-102.4170,-10.0708,1,476,819,474
399631306,68966,-0.2139,0.0151,1.0786,-20.2026,-119.5068,-12.2070,1,484,873,474
399636301,68967,-0.3047,0.0254,1.0903,-23.1934,-138.4277,-13.6719,1,475,915,474
399641308,68968,-0.3926,0.0415,1.1182,-26.8555,-164.3066,-14.2212,1,476,905,474
399646307,68969,-0.5068,0.0640,1.1626,-32.2876,-193.7256,-15.6860,1,476,935,474
399651305,68970,-0.6147,0.0884,1.2241,-38.0249,-232.9101,-16.7236,1,479,909,474
399656314,68971,-0.6714,0.1211,1.3027,-46.2646,-275.5127,-18.6768,1,493,908,474
399661306,68972,-0.7598,0.1719,1.4136,-58.6548,-320.2515,-22.2778,1,466,930,474
399666305,68973,-0.8618,0.1865,1.5376,-75.2563,-374.0234,-26.4893,1,483,937,474
399671309,68974,-0.8608,0.1040,1.6299,-87.5854,-427.7343,-31.1890,1,465,944,474
399676308,68975,-0.7144,0.0352,1.6689,-91.4917,-473.3276,-34.3018,1,484,946,474
399681305,68976,-0.5796,0.1182,1.6997,-100.5859,-503.1738,-38.6353,1,472,878,474
399686307,68977,-0.6973,0.2422,1.7856,-122.6807,-526.3672,-46.4478,1,480,938,474
399691306,68978,-0.9141,0.2441,1.8232,-138.9771,-574.0356,-53.7109,1,481,999,474
399696308,68979,-0.9497,0.0869,1.6953,-144.1650,-613.8916,-56.2744,1,465,935,474
399701309,68980,-0.8345,-0.0928,1.4243,-141.9678,-635.3760,-67.2607,1,467,943,474
399706305,68981,-0.6948,-0.1470,1.1060,-141.4795,-659.6679,-82.3975,1,465,911,474
399711301,68982,-0.5889,-0.1694,0.8491,-136.2305,-685.2416,-90.3320,1,483,929,474
399716305,68983,-0.5137,-0.2979,0.6484,-116.0889,-708.3129,-93.6279,1,492,945,474
399721303,68984,-0.4473,-0.4878,0.4468,-85.9375,-731.2621,-96.3135,1,466,952,474
399726302,68985,-0.3677,-0.4932,0.2832,-59.0210,-760.2538,-101.5015,1,494,944,474
399731308,68986,-0.1201,-0.0259,0.4536,-51.3306,-794.4946,-102.1728,1,486,942,474
399736301,68987,1.0322,0.4858,1.4482,-87.0361,-840.2099,-94.7266,1,489,837,474
399741307,68988,3.5273,-0.2114,3.2393,-131.8970,-763.4277,-91.8579,1,476,917,474
399746307,68989,4.5874,-1.3223,4.9766,-84.7778,-352.4170,-127.3804,1,481,925,474
399751306,68990,2.6035,-1.0688,5.7661,-34.3628,-99.4873,-144.2871,1,473,950,474
399756306,68991,0.2642,-0.2710,5.3906,-60.0586,-65.7959,-137.6343,1,482,914,474
399761321,68992,-0.7036,-0.1147,4.3589,-63.3545,9.3384,-148.2544,1,493,898,474
399766301,68993,-0.7471,-0.4019,3.3408,-51.4526,85.5713,-144.6533,1,466,924,474
399771301,68994,-0.6274,-0.6465,2.5659,-34.7290,131.5918,-133.8501,1,465,939,474
399776305,68995,-0.6592,-0.6597,1.9380,-17.8833,162.5366,-127.0752,1,480,931,474
399781306,68996,-0.7969,-0.5308,1.3882,3.7231,174.3164,-119.8120,1,465,933,474
399786303,68997,-0.9272,-0.3755,0.9346,24.9634,173.4009,-116.1499,1,466,881,474
399791308,68998,-0.9971,-0.2666,0.6450,37.9639,161.8042,-114.0747,1,472,971,474
399796302,68999,-0.9590,-0.2134,0.5381,48.9502,143.0054,-111.0840,1,472,925,474
399801305,69000,-0.8169,-0.1792,0.5674,53.8330,130.3101,-108.3984,1,482,929,474
399806303,69001,-0.6587,-0.1431,0.6753,53.5889,127.8076,-107.1167,1,465,934,474
399811322,69002,-0.5508,-0.1064,0.8096,49.6826,130.3711,-106.2012,1,484,925,474
399816309,69003,-0.4854,-0.0879,0.9434,42.2363,136.4136,-105.2246,1,483,913,474
399821304,69004,-0.4302,-0.1045,1.0693,32.6538,146.6064,-103.8208,1,494,940,474
399826305,69005,-0.3696,-0.1567,1.1797,23.0713,159.4849,-100.9521,1,494,930,474
399831304,69006,-0.3062,-0.2319,1.2573,15.0146,174.7436,-96.7407,1,467,897,474
399836307,69007,-0.2607,-0.3149,1.2891,8.9111,191.7724,-91.4307,1,475,873,474
399841310,69008,-0.2446,-0.3896,1.2759,5.7373,208.4350,-84.8389,1,490,881,474
399846305,69009,-0.2490,-0.4487,1.2280,4.8218,222.7783,-76.7822,1,480,903,474
399851303,69010,-0.2622,-0.4932,1.1680,5.4321,233.8867,-67.9932,1,475,920,474
399856308,69011,-0.2666,-0.5171,1.1226,6.5918,241.2720,-58.2886,1,486,897,474
399861305,69012,-0.2319,-0.5181,1.1060,7.0190,246.6431,-48.1567,1,493,897,474
399866308,69013,-0.1582,-0.5015,1.1079,6.2866,253.4790,-38.0859,1,465,922,474
399871308,69014,-0.0771,-0.4678,1.1064,4.0283,261.0474,-28.1982,1,483,923,474
399876302,69015,-0.0142,-0.4194,1.0835,0.0000,268.7378,-19.3481,1,466,920,474
399881304,69016,0.0264,-0.3696,1.0430,-6.0425,275.2686,-11.2305,1,484,809,474
399886309,69017,0.0547,-0.3262,0.9961,-13.1226,280.0293,-3.2959,1,475,904,474
399891302,69018,0.0786,-0.2905,0.9438,-20.5078,283.2031,3.9673,1,479,948,474
399896309,69019,0.0962,-0.2588,0.8882,-27.5879,284.7290,10.8643,1,471,907,474
399901309,69020,0.1025,-0.2271,0.8374,-34.3628,284.0576,17.4561,1,471,927,474
399906308,69021,0.1016,-0.1948,0.8062,-40.8325,280.9448,23.6816,1,478,919,474
399911320,69022,0.1011,-0.1655,0.8081,-46.7529,276.1230,29.6631,1,478,916,474
399916301,69023,0.1084,-0.1421,0.8521,-51.7578,270.5078,35.3394,1,484,916,474
399921301,69024,0.1309,-0.1250,0.9390,-55.6641,265.3809,40.5273,1,494,922,474
399926305,69025,0.1650,-0.1084,1.0645,-58.5327,261.7188,45.4102,1,490,928,474
399931304,69026,0.2090,-0.0918,1.2183,-60.2417,260.3760,49.6826,1,464,970,474
399936308,69027,0.2622,-0.0786,1.3770,-60.7300,262.0850,53.4668,1,489,852,474
399941308,69028,0.3140,-0.0688,1.5166,-60.2417,267.0288,57.1289,1,485,870,474
399946305,69029,0.3491,-0.0601,1.6235,-58.9600,274.1699,60.3638,1,474,911,474
399951302,69030,0.3691,-0.0483,1.6982,-57.5561,281.9214,63.4766,1,487,928,474
399956306,69031,0.3882,-0.0342,1.7480,-55.9082,290.2222,66.5283,1,478,915,474
399961303,69032,0.4116,-0.0137,1.7749,-53.7109,298.5840,68.9087,1,493,896,474
399966304,69033,0.4370,0.0156,1.7778,-51.2695,306.2744,70.5566,1,466,929,474
399971301,69034,0.4580,0.0483,1.7588,-48.9502,312.5000,71.1670,1,483,934,474
399976304,69035,0.4741,0.0781,1.7300,-46.8140,316.7725,70.8618,1,465,922,474
399981307,69036,0.4922,0.1011,1.7109,-45.2270,318.8477,69.7632,1,485,931,474
399986303,69037,0.5166,0.1099,1.7104,-44.1894,320.4956,68.1152,1,466,858,474
399991302,69038,0.5361,0.1060,1.7212,-43.0908,321.7163,66.2231,1,467,932,474
399996303,69039,0.5435,0.0962,1.7373,-42.0532,322.1435,64.3311,1,475,998,474
400001301,69040,0.5469,0.0864,1.7593,-41.1377,322.0825,62.3169,1,480,925,474
400006302,69041,0.5562,0.0762,1.7891,-40.5273,322.3877,60.2417,1,470,937,474
400011308,69042,0.5708,0.0640,1.8276,-39.6729,322.9370,57.9224,1,473,916,474
400016309,69043,0.5903,0.0503,1.8716,-38.2690,323.0591,55.2978,1,483,918,474
400021306,69044,0.6187,0.0356,1.9189,-36.4990,322.9370,52.1851,1,493,912,474
400026308,69045,0.6572,0.0249,1.9736,-34.8511,322.6318,48.4619,1,470,936,474
400031310,69046,0.7109,0.0186,2.0381,-34.1797,322.5097,44.1284,1,493,944,474
400036305,69047,0.7788,0.0122,2.1016,-34.7290,323.6694,39.2456,1,486,932,474
400041301,69048,0.8491,0.0049,2.1499,-36.5601,326.0498,33.8745,1,491,861,474
400046305,69049,0.9072,-0.0020,2.1768,-40.0391,328.6743,28.5034,1,486,898,474
400051302,69050,0.9595,-0.0127,2.1870,-45.2881,330.3222,23.4985,1,490,895,474
400056302,69051,1.0269,-0.0366,2.1846,-50.6592,331.6650,19.0430,1,483,935,474
400061304,69052,1.1108,-0.0688,2.1646,-54.9927,333.8623,15.2588,1,487,905,474
400066326,69053,1.1924,-0.1006,2.1147,-58.2886,336.0595,12.3291,1,466,918,474
400071309,69054,1.2588,-0.1255,2.0234,-59.9976,336.2426,10.1929,1,466,946,474
400076305,69055,1.3125,-0.1357,1.8931,-60.7910,333.0078,8.6060,1,465,947,474
400081304,69056,1.3647,-0.1309,1.7422,-62.2559,326.6601,7.6294,1,484,922,474
400086305,69057,1.4233,-0.1235,1.5889,-64.0869,317.6270,7.7515,1,465,871,474
400091304,69058,1.4888,-0.1230,1.4385,-65.3687,307.1289,8.4839,1,481,915,474
400096308,69059,1.5469,-0.1279,1.2876,-65.7959,294.5557,9.9487,1,467,904,474
400101301,69060,1.5903,-0.1353,1.1343,-65.6128,279.6631,12.2070,1,471,917,474
