t_us, seq, ax, ay, az, gx, gy, gz, valid, t_imu_us, t_serial_us, missed
2204753925,434654,-0.0308,0.0029,1.0195,0.0000,0.6714,-0.4883,1,466,832,3152
2204758929,434655,-0.0303,0.0024,1.0186,0.1831,0.6714,-0.5493,1,466,827,3152
2204763928,434656,-0.0278,0.0034,1.0215,0.1831,0.4883,-0.4883,1,492,876,3152
2204768937,434657,-0.0254,0.0034,1.0249,0.0610,0.5493,-0.4272,1,470,876,3152
2204773930,434658,-0.0249,0.0044,1.0259,0.1221,0.6104,-0.4272,1,494,877,3152
2204778926,434659,-0.0254,0.0049,1.0254,0.1221,0.6104,-0.4883,1,486,850,3152
2204783922,434660,-0.0269,0.0034,1.0254,-0.1221,0.6714,-0.4883,1,474,805,3152
2204788922,434661,-0.0269,0.0039,1.0244,0.0000,0.6104,-0.4272,1,510,831,3152
2204793924,434662,-0.0254,0.0039,1.0234,0.0000,0.6714,-0.4272,1,494,789,3152
2204798928,434663,-0.0249,0.0029,1.0225,-0.0610,0.7324,-0.3052,1,491,800,3152
2204803927,434664,-0.0254,0.0024,1.0225,-0.1831,0.7324,-0.3662,1,495,843,3152
2204808926,434665,-0.0264,0.0039,1.0244,-0.1221,0.6714,-0.3662,1,503,849,3152
2204813928,434666,-0.0278,0.0044,1.0249,-0.1221,0.6104,-0.2441,1,481,855,3152
2204818923,434667,-0.0283,0.0054,1.0234,-0.0610,0.6104,-0.1831,1,477,856,3152
2204823930,434668,-0.0278,0.0059,1.0215,-0.0610,0.6714,-0.3052,1,484,856,3152
2204828929,434669,-0.0269,0.0049,1.0215,-0.1221,0.5493,-0.3662,1,466,867,3152
2204833922,434670,-0.0264,0.0044,1.0234,-0.0610,0.6104,-0.2441,1,466,873,3152
2204838931,434671,-0.0254,0.0039,1.0234,-0.0610,0.6714,-0.2441,1,466,873,3152
2204843930,434672,-0.0249,0.0029,1.0220,0.1221,0.5493,-0.2441,1,466,877,3152
2204848927,434673,-0.0259,0.0024,1.0220,0.0000,0.5493,-0.3052,1,466,878,3152
2204853925,434674,-0.0278,0.0029,1.0215,0.0000,0.7324,-0.4272,1,466,829,3152
2204858923,434675,-0.0283,0.0029,1.0205,0.0610,0.7935,-0.3662,1,466,833,3152
2204863946,434676,-0.0269,0.0029,1.0215,0.0610,0.6714,-0.3662,1,466,876,3152
2204868924,434677,-0.0254,0.0039,1.0229,0.0610,0.7324,-0.3662,1,466,871,3152
2204873928,434678,-0.0254,0.0059,1.0239,0.0000,0.7324,-0.3052,1,465,876,3152
2204878945,434679,-0.0264,0.0063,1.0234,0.0000,0.7935,-0.3052,1,489,720,3152
2204883922,434680,-0.0283,0.0049,1.0220,0.0610,0.9155,-0.5493,1,494,778,3152
2204888924,434681,-0.0303,0.0034,1.0205,0.0610,0.7935,-0.3052,1,491,828,3152
2204893930,434682,-0.0298,0.0024,1.0200,0.1221,0.7324,-0.2441,1,497,827,3152
2204898927,434683,-0.0278,0.0039,1.0210,0.0610,0.6714,-0.3052,1,491,845,3152
2204903930,434684,-0.0269,0.0054,1.0234,-0.0610,0.9155,-0.3662,1,484,829,3152
2204908930,434685,-0.0259,0.0054,1.0249,-0.0610,1.0376,-0.2441,1,491,837,3152
2204913923,434686,-0.0259,0.0049,1.0239,-0.0610,1.0376,-0.2441,1,493,834,3152
2204918923,434687,-0.0283,0.0054,1.0215,-0.1221,1.0986,-0.3662,1,506,843,3152
2204923926,434688,-0.0303,0.0039,1.0200,-0.1221,1.0986,-0.2441,1,482,857,3152
2204928922,434689,-0.0298,0.0034,1.0210,-0.1831,1.0376,-0.1831,1,477,853,3152
2204933925,434690,-0.0278,0.0039,1.0229,-0.0610,0.9766,-0.2441,1,483,858,3152
2204938923,434691,-0.0269,0.0044,1.0239,0.0000,0.9766,-0.1831,1,466,879,3152
2204943930,434692,-0.0273,0.0049,1.0234,-0.0610,0.9766,-0.1221,1,466,828,3152
2204948930,434693,-0.0293,0.0054,1.0225,-0.0610,0.9766,-0.1831,1,466,870,3152
2204953922,434694,-0.0308,0.0044,1.0210,-0.1221,0.9155,-0.3052,1,465,873,3152
2204958929,434695,-0.0298,0.0034,1.0200,-0.1831,0.7935,-0.3052,1,466,865,3152
2204963926,434696,-0.0288,0.0029,1.0210,-0.1831,0.7935,-0.3052,1,465,873,3152
2204968937,434697,-0.0288,0.0034,1.0220,-0.1831,0.7935,-0.3052,1,466,873,3152
2204973923,434698,-0.0298,0.0024,1.0220,-0.1221,0.7324,-0.2441,1,465,876,3152
2204978928,434699,-0.0308,0.0020,1.0215,-0.0610,0.7324,-0.1221,1,492,878,3152
2204983933,434700,-0.0303,0.0024,1.0220,-0.0610,0.7324,-0.2441,1,475,819,3152
2204988929,434701,-0.0283,0.0024,1.0229,0.0610,0.7324,-0.3052,1,493,875,3152
2204993929,434702,-0.0273,0.0034,1.0234,0.0610,0.6104,-0.3662,1,497,801,3152
2204998922,434703,-0.0278,0.0039,1.0234,-0.0610,0.6714,-0.4272,1,476,837,3152
2205003928,434704,-0.0283,0.0039,1.0234,0.0000,0.4883,-0.4883,1,491,828,3152
2205008922,434705,-0.0283,0.0039,1.0225,0.1831,0.4883,-0.3662,1,492,792,3152
2205013925,434706,-0.0283,0.0039,1.0210,0.0000,0.4272,-0.2441,1,506,839,3152
2205018926,434707,-0.0283,0.0039,1.0205,0.0610,0.4883,-0.2441,1,508,802,3152
2205023928,434708,-0.0303,0.0024,1.0195,0.1221,0.3662,-0.2441,1,493,846,3152
2205028922,434709,-0.0322,0.0015,1.0186,0.0610,0.2441,-0.3662,1,466,856,3152
2205033929,434710,-0.0317,0.0020,1.0200,0.1221,0.0000,-0.3662,1,469,856,3152
2205038930,434711,-0.0283,0.0034,1.0225,0.1221,0.1221,-0.3052,1,483,809,3152
2205043928,434712,-0.0264,0.0034,1.0244,0.0610,0.1831,-0.2441,1,466,869,3152
2205048928,434713,-0.0273,0.0039,1.0249,0.1221,0.1221,-0.3052,1,466,879,3152
2205053923,434714,-0.0298,0.0044,1.0244,0.1221,0.1221,-0.4272,1,466,872,3152
2205058931,434715,-0.0293,0.0039,1.0229,0.0610,0.2441,-0.3052,1,466,870,3152
2205063923,434716,-0.0273,0.0024,1.0225,0.1831,0.1831,-0.1831,1,466,874,3152
2205068925,434717,-0.0264,0.0020,1.0229,0.1831,0.1221,-0.1831,1,466,883,3152
2205073931,434718,-0.0278,0.0024,1.0254,0.0610,0.2441,-0.2441,1,466,877,3152
2205078926,434719,-0.0298,0.0034,1.0259,0.1221,0.3662,-0.2441,1,466,880,3152
2205083929,434720,-0.0303,0.0034,1.0239,0.1221,0.3052,-0.2441,1,492,876,3152
2205088929,434721,-0.0293,0.0029,1.0225,0.0610,0.1831,-0.2441,1,466,871,3152
2205093925,434722,-0.0283,0.0029,1.0215,0.0610,0.3052,-0.1221,1,494,875,3152
2205098924,434723,-0.0293,0.0020,1.0215,0.0000,0.3662,-0.1221,1,511,795,3152
2205103922,434724,-0.0298,0.0005,1.0225,0.1221,0.1831,-0.1831,1,476,766,3152
2205108923,434725,-0.0288,0.0020,1.0234,0.1831,0.1221,-0.0610,1,508,829,3152
2205113929,434726,-0.0288,0.0024,1.0234,0.0610,0.1831,-0.1831,1,493,873,3152
2205118924,434727,-0.0293,0.0020,1.0234,0.1831,0.0000,-0.2441,1,496,915,3152
2205123930,434728,-0.0293,0.0020,1.0229,0.2441,0.0610,-0.1221,1,486,802,3152
2205128925,434729,-0.0303,0.0010,1.0220,0.2441,0.0610,-0.1221,1,500,833,3152
2205133922,434730,-0.0293,0.0010,1.0229,0.2441,-0.0610,-0.1221,1,510,817,3152
2205138923,434731,-0.0269,0.0024,1.0244,0.1831,0.0610,-0.1221,1,468,851,3152
2205143922,434732,-0.0269,0.0034,1.0244,0.1221,0.0000,-0.1831,1,484,855,3152
2205148928,434733,-0.0288,0.0044,1.0229,0.1831,0.0000,-0.0610,1,466,812,3152
2205153930,434734,-0.0303,0.0039,1.0215,0.1831,-0.0610,-0.2441,1,466,832,3152
2205158928,434735,-0.0293,0.0024,1.0215,0.3052,-0.3052,-0.0610,1,466,875,3152
2205163925,434736,-0.0278,0.0020,1.0220,0.1831,-0.3662,-0.0610,1,466,868,3152
2205168925,434737,-0.0278,0.0020,1.0229,0.0000,-0.2441,-0.1831,1,466,880,3152
2205173926,434738,-0.0273,0.0039,1.0234,0.1831,-0.2441,-0.3052,1,466,838,3152
2205178929,434739,-0.0283,0.0049,1.0229,0.2441,-0.1831,-0.1831,1,466,881,3152
2205183944,434740,-0.0288,0.0020,1.0229,0.1831,-0.2441,-0.1831,1,466,884,3152
2205188923,434741,-0.0278,0.0024,1.0239,0.3052,-0.1831,-0.1831,1,466,883,3152
2205193930,434742,-0.0283,0.0054,1.0244,0.2441,-0.1221,-0.1221,1,465,882,3152
2205198933,434743,-0.0293,0.0049,1.0239,0.1831,-0.1831,-0.2441,1,466,874,3152
2205203922,434744,-0.0278,0.0024,1.0220,0.1831,-0.1221,-0.3052,1,494,880,3152
2205208926,434745,-0.0273,0.0020,1.0200,0.2441,-0.1831,-0.1831,1,486,854,3152
2205213924,434746,-0.0278,0.0034,1.0186,0.1831,-0.1221,-0.1221,1,494,839,3152
2205218922,434747,-0.0293,0.0044,1.0181,0.1831,-0.1221,-0.2441,1,484,864,3152
2205223922,434748,-0.0308,0.0039,1.0186,0.2441,-0.3662,-0.2441,1,492,858,3152
2205228927,434749,-0.0298,0.0044,1.0190,0.2441,-0.3662,-0.1221,1,477,847,3152
2205233927,434750,-0.0283,0.0044,1.0190,0.2441,-0.3052,-0.1221,1,492,835,3152
2205238926,434751,-0.0288,0.0039,1.0210,0.1831,-0.3662,-0.1831,1,496,841,3152
2205243922,434752,-0.0283,0.0049,1.0239,0.2441,-0.4272,-0.1221,1,472,861,3152
2205248928,434753,-0.0264,0.0059,1.0259,0.2441,-0.3662,-0.0610,1,475,860,3152
2205253928,434754,-0.0244,0.0063,1.0273,0.1221,-0.2441,-0.1831,1,483,854,3152
2205258928,434755,-0.0234,0.0068,1.0269,0.0610,-0.1831,-0.1221,1,466,881,3152
2205263930,434756,-0.0244,0.0054,1.0254,-0.0610,-0.1221,-0.1831,1,466,873,3152
2205268928,434757,-0.0254,0.0024,1.0249,0.0000,-0.0610,-0.1831,1,466,875,3152
2205273926,434758,-0.0254,0.0024,1.0249,0.0610,0.1221,-0.1221,1,466,832,3152
2205278925,434759,-0.0254,0.0029,1.0244,0.0000,0.1831,-0.1221,1,465,870,3152
2205283923,434760,-0.0269,0.0020,1.0234,-0.0610,0.2441,-0.1221,1,466,829,3152
2205288944,434761,-0.0278,0.0024,1.0234,0.0000,-0.0610,-0.0610,1,466,874,3152
2205293924,434762,-0.0293,0.0024,1.0239,0.0000,-0.1221,0.0000,1,466,831,3152
2205298922,434763,-0.0298,0.0015,1.0225,0.1221,-0.0610,-0.1221,1,493,782,3152
2205303926,434764,-0.0288,0.0015,1.0210,0.2441,-0.1831,-0.2441,1,466,862,3152
2205308923,434765,-0.0283,0.0044,1.0205,0.1831,-0.2441,-0.1831,1,494,877,3152
2205313926,434766,-0.0283,0.0059,1.0220,0.1831,-0.1831,-0.1831,1,482,824,3152
2205318922,434767,-0.0264,0.0044,1.0239,0.3662,-0.2441,-0.1221,1,479,839,3152
2205323924,434768,-0.0259,0.0039,1.0244,0.3662,-0.2441,-0.1831,1,510,809,3152
2205328926,434769,-0.0269,0.0044,1.0225,0.2441,-0.1831,-0.1831,1,493,882,3152
2205333924,434770,-0.0278,0.0049,1.0210,0.1831,-0.1831,-0.2441,1,493,838,3152
2205338930,434771,-0.0273,0.0044,1.0225,0.2441,-0.2441,-0.3052,1,479,840,3152
2205343926,434772,-0.0264,0.0039,1.0244,0.3052,-0.3052,-0.2441,1,496,844,3152
2205348926,434773,-0.0264,0.0054,1.0229,0.1831,-0.1221,-0.2441,1,475,826,3152
2205353923,434774,-0.0264,0.0063,1.0215,0.3052,-0.3052,-0.2441,1,479,856,3152
2205358925,434775,-0.0259,0.0054,1.0234,0.1221,-0.1831,-0.1831,1,483,853,3152
2205363929,434776,-0.0254,0.0049,1.0249,0.0610,-0.1221,-0.1831,1,466,875,3152
2205368930,434777,-0.0259,0.0054,1.0254,0.3052,-0.1831,-0.2441,1,466,872,3152
2205373922,434778,-0.0259,0.0054,1.0244,0.2441,-0.1221,-0.2441,1,466,874,3152
2205378930,434779,-0.0259,0.0054,1.0220,0.1831,-0.0610,-0.3052,1,466,877,3152
2205383927,434780,-0.0264,0.0049,1.0215,0.1221,-0.1831,-0.2441,1,466,869,3152
2205388930,434781,-0.0278,0.0034,1.0234,0.1221,-0.2441,-0.2441,1,466,874,3152
2205393926,434782,-0.0273,0.0020,1.0244,0.0610,-0.1221,-0.3052,1,466,882,3152
2205398937,434783,-0.0264,0.0020,1.0234,0.1221,-0.0610,-0.3662,1,466,872,3152
2205403922,434784,-0.0259,0.0024,1.0210,0.1831,0.0000,-0.3662,1,465,872,3152
2205408927,434785,-0.0269,0.0020,1.0190,0.3052,-0.0610,-0.2441,1,493,830,3152
2205413942,434786,-0.0273,0.0020,1.0200,0.2441,-0.3052,-0.2441,1,479,869,3152
2205418924,434787,-0.0273,0.0024,1.0215,0.2441,-0.2441,-0.3052,1,494,814,3152
2205423928,434788,-0.0278,0.0034,1.0220,0.4272,-0.4272,-0.1831,1,478,839,3152
2205428930,434789,-0.0273,0.0049,1.0215,0.3662,-0.4272,-0.3052,1,504,843,3152
2205433928,434790,-0.0273,0.0049,1.0210,0.3662,-0.3662,-0.2441,1,481,872,3152
2205438924,434791,-0.0293,0.0044,1.0200,0.3052,-0.3052,-0.2441,1,491,906,3152
2205443923,434792,-0.0293,0.0049,1.0200,0.4272,-0.5493,-0.2441,1,483,835,3152
2205448925,434793,-0.0264,0.0059,1.0215,0.3662,-0.5493,-0.2441,1,484,846,3152
2205453930,434794,-0.0229,0.0059,1.0225,0.2441,-0.3662,-0.1831,1,503,845,3152
2205458930,434795,-0.0220,0.0059,1.0229,0.3052,-0.3662,-0.1831,1,476,859,3152
2205463927,434796,-0.0229,0.0059,1.0239,0.3052,-0.1221,-0.3052,1,470,853,3152
2205468925,434797,-0.0239,0.0059,1.0249,0.3662,-0.0610,-0.1831,1,484,848,3152
2205473925,434798,-0.0249,0.0054,1.0264,0.3052,0.0000,-0.1221,1,466,877,3152
2205478923,434799,-0.0259,0.0063,1.0259,0.2441,0.0000,-0.1221,1,466,822,3152
2205483926,434800,-0.0269,0.0059,1.0220,0.1221,0.0610,-0.1221,1,466,828,3152
2205488928,434801,-0.0278,0.0044,1.0195,0.0000,0.1221,-0.1831,1,466,864,3152
2205493925,434802,-0.0283,0.0039,1.0200,0.1221,-0.0610,-0.1221,1,466,830,3152
2205498923,434803,-0.0269,0.0049,1.0210,0.2441,0.0000,-0.1831,1,466,869,3152
2205503926,434804,-0.0249,0.0054,1.0215,0.3052,-0.0610,-0.1221,1,466,829,3152
2205508923,434805,-0.0249,0.0039,1.0200,0.3052,-0.0610,-0.0610,1,466,867,3152
2205513929,434806,-0.0273,0.0034,1.0195,0.3662,0.0000,-0.1221,1,466,869,3152
2205518930,434807,-0.0278,0.0039,1.0210,0.3662,-0.1221,0.0000,1,466,756,3152
2205523925,434808,-0.0259,0.0044,1.0220,0.3662,-0.1221,-0.0610,1,494,725,3152
2205528924,434809,-0.0249,0.0054,1.0225,0.3052,-0.1831,-0.0610,1,481,766,3152
2205533923,434810,-0.0254,0.0059,1.0229,0.3052,-0.2441,-0.0610,1,484,841,3152
2205538930,434811,-0.0259,0.0054,1.0220,0.3052,-0.4272,0.0000,1,492,804,3152
2205543923,434812,-0.0259,0.0049,1.0205,0.3052,-0.4272,-0.1221,1,489,784,3152
2205548924,434813,-0.0264,0.0049,1.0200,0.2441,-0.3052,-0.0610,1,481,828,3152
2205553926,434814,-0.0259,0.0034,1.0215,0.3052,-0.2441,-0.1221,1,487,836,3152
2205558927,434815,-0.0254,0.0034,1.0229,0.5493,-0.3052,-0.1221,1,489,840,3152
2205563928,434816,-0.0259,0.0054,1.0229,0.4272,-0.3052,-0.0610,1,500,842,3152
2205568926,434817,-0.0254,0.0063,1.0239,0.4272,-0.3052,-0.0610,1,475,824,3152
2205573926,434818,-0.0239,0.0054,1.0244,0.4272,-0.3052,-0.0610,1,475,854,3152
2205578927,434819,-0.0220,0.0044,1.0244,0.3662,-0.2441,-0.0610,1,484,855,3152
2205583926,434820,-0.0215,0.0044,1.0244,0.2441,-0.1221,-0.1831,1,466,878,3152
2205588923,434821,-0.0225,0.0049,1.0229,0.3052,-0.1221,-0.0610,1,466,875,3152
2205593922,434822,-0.0244,0.0054,1.0220,0.4272,0.0000,0.0000,1,466,867,3152
2205598930,434823,-0.0254,0.0059,1.0220,0.3662,0.0000,-0.1831,1,466,783,3152
2205603926,434824,-0.0264,0.0059,1.0215,0.3052,0.1221,-0.0610,1,466,828,3152
2205608926,434825,-0.0269,0.0049,1.0215,0.3662,0.0610,-0.1221,1,466,863,3152
2205613924,434826,-0.0264,0.0039,1.0205,0.3662,-0.0610,-0.2441,1,466,869,3152
2205618931,434827,-0.0249,0.0049,1.0200,0.3662,0.0000,-0.1221,1,466,877,3152
2205623928,434828,-0.0264,0.0063,1.0200,0.4272,0.0000,-0.1221,1,492,825,3152
2205628929,434829,-0.0269,0.0059,1.0200,0.5493,0.0000,-0.1831,1,469,762,3152
2205633927,434830,-0.0254,0.0068,1.0210,0.5493,-0.1221,-0.1221,1,490,751,3152
2205638926,434831,-0.0244,0.0088,1.0225,0.4883,-0.0610,-0.0610,1,510,765,3152
2205643922,434832,-0.0244,0.0078,1.0239,0.3052,0.0000,-0.1831,1,491,831,3152
2205648923,434833,-0.0234,0.0054,1.0249,0.3052,-0.0610,-0.1221,1,503,830,3152
2205653924,434834,-0.0229,0.0054,1.0249,0.4272,0.0610,-0.0610,1,487,828,3152
2205658925,434835,-0.0229,0.0049,1.0239,0.3052,0.1221,-0.1831,1,494,835,3152
2205663929,434836,-0.0239,0.0049,1.0210,0.4272,0.2441,-0.1831,1,500,842,3152
2205668924,434837,-0.0244,0.0054,1.0195,0.4272,0.3052,-0.0610,1,491,801,3152
2205673930,434838,-0.0234,0.0044,1.0210,0.4883,-0.0610,-0.0610,1,510,825,3152
2205678931,434839,-0.0215,0.0049,1.0229,0.5493,0.2441,-0.1221,1,481,847,3152
2205683923,434840,-0.0210,0.0063,1.0244,0.3662,0.4883,-0.2441,1,483,856,3152
2205688929,434841,-0.0225,0.0068,1.0249,0.4272,0.3662,-0.1831,1,466,878,3152
2205693929,434842,-0.0244,0.0078,1.0239,0.6104,0.3662,-0.1221,1,466,881,3152
2205698925,434843,-0.0249,0.0083,1.0229,0.4883,0.3662,-0.2441,1,466,875,3152
2205703931,434844,-0.0239,0.0083,1.0239,0.5493,0.4272,-0.1831,1,466,883,3152
2205708930,434845,-0.0234,0.0083,1.0249,0.4272,0.5493,-0.0610,1,466,885,3152
2205713930,434846,-0.0244,0.0068,1.0244,0.3052,0.6104,-0.1831,1,466,879,3152
2205718927,434847,-0.0264,0.0049,1.0229,0.3662,0.4272,-0.1831,1,465,875,3152
2205723954,434848,-0.0264,0.0044,1.0215,0.3052,0.5493,-0.3052,1,465,880,3152
2205728926,434849,-0.0249,0.0049,1.0215,0.2441,0.4883,-0.1831,1,466,868,3152
2205733924,434850,-0.0254,0.0059,1.0215,0.3052,0.6104,-0.2441,1,466,906,3152
2205738944,434851,-0.0269,0.0063,1.0215,0.3662,0.6104,-0.3052,1,466,864,3152
2205743927,434852,-0.0293,0.0063,1.0215,0.3662,0.4272,-0.3662,1,493,868,3152
2205748925,434853,-0.0303,0.0068,1.0215,0.3052,0.3662,-0.3662,1,484,831,3152
2205753929,434854,-0.0273,0.0078,1.0220,0.3662,0.2441,-0.2441,1,489,833,3152
2205758928,434855,-0.0239,0.0078,1.0239,0.1831,0.4272,-0.3052,1,491,821,3152
2205763930,434856,-0.0234,0.0073,1.0249,0.0610,0.4272,-0.3662,1,500,876,3152
2205768930,434857,-0.0244,0.0073,1.0244,0.0610,0.5493,-0.3662,1,494,840,3152
2205773929,434858,-0.0249,0.0083,1.0234,0.0000,0.5493,-0.3662,1,504,850,3152
2205778930,434859,-0.0239,0.0083,1.0239,-0.1221,0.5493,-0.2441,1,492,791,3152
2205783923,434860,-0.0229,0.0078,1.0254,-0.0610,0.6104,-0.3052,1,469,861,3152
2205788928,434861,-0.0239,0.0073,1.0254,-0.0610,0.6714,-0.1831,1,473,850,3152
2205793923,434862,-0.0254,0.0063,1.0244,-0.0610,0.7935,-0.2441,1,483,859,3152
2205798926,434863,-0.0269,0.0059,1.0244,-0.1221,0.6104,-0.3052,1,466,877,3152
2205803927,434864,-0.0269,0.0059,1.0239,-0.1831,0.6714,-0.2441,1,466,864,3152
2205808923,434865,-0.0244,0.0059,1.0229,-0.1831,0.9766,-0.3052,1,465,877,3152
2205813924,434866,-0.0220,0.0063,1.0229,-0.1221,0.9155,-0.1831,1,466,872,3152
2205818922,434867,-0.0220,0.0078,1.0239,-0.1831,1.0376,-0.3052,1,466,879,3152
2205823925,434868,-0.0225,0.0088,1.0239,-0.1221,1.0376,-0.3052,1,466,875,3152
2205828922,434869,-0.0229,0.0083,1.0239,-0.1831,1.1597,-0.3052,1,466,869,3152
2205833931,434870,-0.0249,0.0068,1.0239,-0.2441,1.0986,-0.3052,1,465,881,3152
2205838925,434871,-0.0259,0.0049,1.0225,-0.2441,1.0986,-0.2441,1,466,881,3152
2205843931,434872,-0.0259,0.0039,1.0210,-0.2441,1.0376,-0.1221,1,492,877,3152
2205848948,434873,-0.0278,0.0049,1.0186,-0.1831,1.1597,-0.3052,1,465,870,3152
2205853923,434874,-0.0308,0.0059,1.0171,-0.2441,0.9155,-0.3052,1,494,872,3152
2205858929,434875,-0.0303,0.0054,1.0176,-0.1221,0.8545,-0.2441,1,484,846,3152
2205863925,434876,-0.0278,0.0044,1.0205,0.0000,0.7324,-0.4272,1,484,829,3152
2205868926,434877,-0.0249,0.0049,1.0234,-0.0610,0.6104,-0.4272,1,506,831,3152
2205873926,434878,-0.0234,0.0063,1.0244,-0.1831,0.7324,-0.3052,1,493,886,3152
2205878927,434879,-0.0234,0.0063,1.0244,-0.1221,0.8545,-0.3052,1,500,838,3152
2205883925,434880,-0.0239,0.0054,1.0239,-0.1831,0.8545,-0.3052,1,506,839,3152
2205888930,434881,-0.0249,0.0054,1.0225,-0.3052,0.8545,-0.3052,1,504,844,3152
2205893923,434882,-0.0249,0.0068,1.0220,-0.2441,0.9155,-0.3662,1,476,821,3152
2205898926,434883,-0.0244,0.0078,1.0229,-0.3052,0.9766,-0.3662,1,480,863,3152
2205903928,434884,-0.0259,0.0068,1.0234,-0.3052,0.9766,-0.3052,1,483,857,3152
2205908927,434885,-0.0278,0.0054,1.0220,-0.1221,1.0986,-0.3662,1,466,851,3152
2205913923,434886,-0.0298,0.0044,1.0195,-0.1221,1.0986,-0.3052,1,466,876,3152
2205918922,434887,-0.0303,0.0044,1.0195,-0.0610,0.9155,-0.3052,1,466,871,3152
2205923930,434888,-0.0288,0.0044,1.0215,-0.0610,0.7324,-0.2441,1,465,870,3152
2205928928,434889,-0.0273,0.0054,1.0239,-0.0610,0.7935,-0.2441,1,466,879,3152
2205933924,434890,-0.0269,0.0068,1.0249,-0.0610,0.8545,-0.3052,1,466,877,3152
2205938925,434891,-0.0269,0.0059,1.0244,-0.1831,0.7324,-0.4272,1,465,872,3152
2205943922,434892,-0.0273,0.0044,1.0244,0.0000,0.7935,-0.3662,1,466,878,3152
2205948929,434893,-0.0278,0.0044,1.0244,0.0610,0.7935,-0.3052,1,466,831,3152
2205953925,434894,-0.0283,0.0059,1.0234,0.0610,0.7324,-0.4272,1,492,871,3152
2205958929,434895,-0.0278,0.0063,1.0244,0.0000,0.7935,-0.4272,1,466,876,3152
2205963928,434896,-0.0273,0.0063,1.0244,-0.0610,0.6714,-0.3052,1,494,833,3152
2205968930,434897,-0.0269,0.0054,1.0220,0.0000,0.6104,-0.3662,1,511,817,3152
2205973925,434898,-0.0283,0.0054,1.0205,-0.0610,0.4883,-0.3662,1,484,785,3152
2205978930,434899,-0.0298,0.0059,1.0205,-0.0610,0.4272,-0.3662,1,496,808,3152
2205983927,434900,-0.0293,0.0073,1.0215,0.1831,0.3662,-0.4883,1,478,870,3152
2205988928,434901,-0.0283,0.0078,1.0215,0.1221,0.3662,-0.3662,1,506,906,3152
2205993923,434902,-0.0269,0.0063,1.0225,-0.0610,0.2441,-0.3662,1,495,837,3152
2205998926,434903,-0.0269,0.0059,1.0234,-0.1221,0.1831,-0.3052,1,471,846,3152
2206003924,434904,-0.0273,0.0059,1.0229,0.0610,0.3052,-0.3662,1,495,821,3152
2206008928,434905,-0.0269,0.0049,1.0220,0.0000,0.1831,-0.3662,1,470,852,3152
2206013922,434906,-0.0259,0.0034,1.0215,0.0000,0.0000,-0.3052,1,484,810,3152
2206018929,434907,-0.0254,0.0054,1.0220,0.0000,0.0610,-0.3662,1,466,779,3152
2206023930,434908,-0.0259,0.0059,1.0225,0.0000,0.0000,-0.3662,1,466,827,3152
2206028923,434909,-0.0278,0.0054,1.0234,0.0000,0.0000,-0.2441,1,465,780,3152
2206033922,434910,-0.0283,0.0063,1.0234,0.0000,0.1221,-0.2441,1,466,787,3152
2206038930,434911,-0.0264,0.0063,1.0234,-0.2441,0.0000,-0.4272,1,466,833,3152
2206043922,434912,-0.0254,0.0059,1.0225,-0.1221,0.1221,-0.3052,1,466,836,3152
2206048922,434913,-0.0264,0.0059,1.0215,-0.0610,0.1221,-0.3052,1,466,863,3152
2206053926,434914,-0.0283,0.0054,1.0220,0.0000,0.1221,-0.3052,1,465,864,3152
2206058925,434915,-0.0288,0.0034,1.0234,-0.0610,0.0610,-0.3052,1,466,822,3152
2206063927,434916,-0.0283,0.0039,1.0244,0.0000,0.0610,-0.2441,1,492,875,3152
2206068925,434917,-0.0273,0.0049,1.0229,0.0000,0.0610,-0.3052,1,493,831,3152
2206073931,434918,-0.0269,0.0039,1.0200,-0.1221,0.0000,-0.3662,1,483,721,3152
2206078928,434919,-0.0269,0.0054,1.0195,0.0000,-0.1831,-0.2441,1,511,723,3152
2206083922,434920,-0.0264,0.0059,1.0220,-0.1221,-0.0610,-0.2441,1,491,766,3152
2206088927,434921,-0.0249,0.0044,1.0244,-0.1221,-0.0610,-0.3052,1,507,804,3152
2206093923,434922,-0.0234,0.0049,1.0254,0.0000,-0.1221,-0.3052,1,486,869,3152
2206098927,434923,-0.0234,0.0073,1.0239,-0.0610,0.1221,-0.3662,1,476,781,3152
2206103925,434924,-0.0254,0.0063,1.0215,-0.0610,0.0000,-0.2441,1,491,843,3152
2206108923,434925,-0.0269,0.0044,1.0205,-0.0610,0.0000,-0.3052,1,474,782,3152
2206113929,434926,-0.0264,0.0049,1.0229,0.0000,0.0000,-0.2441,1,495,775,3152
2206118931,434927,-0.0264,0.0059,1.0259,0.0000,0.1831,-0.1831,1,465,766,3152
2206123925,434928,-0.0264,0.0063,1.0254,0.0000,0.2441,-0.3052,1,478,808,3152
2206128931,434929,-0.0264,0.0054,1.0225,-0.0610,0.1221,-0.4272,1,466,809,3152
2206133922,434930,-0.0264,0.0039,1.0205,0.0610,0.1221,-0.2441,1,466,869,3152
2206138928,434931,-0.0264,0.0039,1.0220,0.0000,0.1221,-0.4272,1,466,873,3152
2206143929,434932,-0.0273,0.0049,1.0225,0.0000,0.1831,-0.4883,1,466,827,3152
2206148930,434933,-0.0283,0.0034,1.0215,0.0610,0.1831,-0.3662,1,466,828,3152
2206153924,434934,-0.0269,0.0024,1.0210,0.1831,0.0610,-0.3662,1,465,880,3152
2206158927,434935,-0.0249,0.0044,1.0215,0.1831,0.1221,-0.4272,1,466,875,3152
2206163922,434936,-0.0264,0.0054,1.0205,0.1831,-0.0610,-0.3052,1,465,877,3152
2206168935,434937,-0.0278,0.0054,1.0200,0.1831,-0.1221,-0.3052,1,466,870,3152
2206173929,434938,-0.0273,0.0054,1.0215,0.1221,0.0000,-0.3662,1,466,869,3152
2206178922,434939,-0.0264,0.0068,1.0210,0.1221,0.0000,-0.3052,1,493,825,3152
2206183922,434940,-0.0269,0.0073,1.0190,0.0000,0.0610,-0.3052,1,479,746,3152
2206188923,434941,-0.0278,0.0054,1.0190,0.1221,-0.0610,-0.2441,1,512,729,3152
2206193925,434942,-0.0283,0.0039,1.0205,0.2441,-0.1221,-0.3052,1,473,843,3152
2206198922,434943,-0.0283,0.0044,1.0225,0.1221,-0.3052,-0.3662,1,499,834,3152
2206203925,434944,-0.0278,0.0054,1.0244,0.1831,-0.1831,-0.4883,1,479,869,3152
2206208925,434945,-0.0269,0.0049,1.0234,0.1221,-0.1221,-0.3662,1,481,867,3152
2206213923,434946,-0.0249,0.0049,1.0234,0.2441,-0.1831,-0.3052,1,488,839,3152
2206218930,434947,-0.0239,0.0063,1.0234,0.2441,-0.1831,-0.3052,1,496,838,3152
2206223928,434948,-0.0239,0.0059,1.0229,0.0610,-0.0610,-0.3052,1,495,850,3152
2206228923,434949,-0.0249,0.0049,1.0225,0.1831,0.0610,-0.4272,1,473,847,3152
2206233925,434950,-0.0254,0.0049,1.0234,0.1831,0.0000,-0.3052,1,474,857,3152
2206238926,434951,-0.0259,0.0059,1.0239,0.1221,0.1221,-0.3662,1,484,808,3152
2206243925,434952,-0.0254,0.0054,1.0239,0.1831,0.0610,-0.3662,1,466,871,3152
2206248922,434953,-0.0234,0.0054,1.0229,0.1221,0.1221,-0.4272,1,466,876,3152
2206253923,434954,-0.0234,0.0063,1.0225,0.0610,0.3662,-0.3662,1,466,871,3152
2206258927,434955,-0.0244,0.0049,1.0220,0.1221,0.3662,-0.4883,1,466,876,3152
2206263922,434956,-0.0249,0.0029,1.0229,0.1831,0.3662,-0.3662,1,466,873,3152
2206268927,434957,-0.0234,0.0049,1.0244,0.1831,0.3662,-0.3052,1,466,884,3152
2206273930,434958,-0.0234,0.0073,1.0239,0.0610,0.4272,-0.3052,1,466,876,3152
2206278933,434959,-0.0239,0.0073,1.0229,-0.0610,0.5493,-0.4272,1,466,875,3152
2206283925,434960,-0.0249,0.0063,1.0239,0.0610,0.4883,-0.3662,1,466,882,3152
2206288922,434961,-0.0249,0.0049,1.0249,-0.0610,0.4883,-0.3052,1,493,878,3152
2206293924,434962,-0.0239,0.0034,1.0249,-0.0610,0.4883,-0.3052,1,477,870,3152
2206298925,434963,-0.0244,0.0039,1.0234,-0.1221,0.6104,-0.2441,1,494,872,3152
2206303927,434964,-0.0249,0.0059,1.0220,-0.0610,0.6104,-0.2441,1,512,765,3152
2206308931,434965,-0.0259,0.0073,1.0225,-0.1221,0.6104,-0.2441,1,480,831,3152
2206313923,434966,-0.0269,0.0073,1.0229,-0.0610,0.6104,-0.3662,1,504,807,3152
2206318928,434967,-0.0273,0.0049,1.0234,0.0000,0.7935,-0.3662,1,495,885,3152
2206323922,434968,-0.0273,0.0024,1.0234,0.0000,0.7935,-0.3052,1,495,799,3152
2206328929,434969,-0.0269,0.0024,1.0220,0.0000,0.7324,-0.3662,1,504,753,3152
2206333928,434970,-0.0264,0.0039,1.0220,-0.0610,0.6714,-0.4272,1,496,785,3152
2206338923,434971,-0.0264,0.0054,1.0229,-0.0610,0.7324,-0.4272,1,502,826,3152
2206343922,434972,-0.0264,0.0059,1.0244,-0.1831,0.7324,-0.4272,1,479,856,3152
2206348926,434973,-0.0259,0.0044,1.0234,-0.1221,0.7935,-0.4272,1,483,859,3152
2206353927,434974,-0.0254,0.0034,1.0225,-0.1221,0.7324,-0.4883,1,466,854,3152
2206358931,434975,-0.0254,0.0039,1.0220,-0.1221,0.6104,-0.3052,1,466,872,3152
2206363926,434976,-0.0259,0.0059,1.0215,-0.0610,0.6104,-0.3052,1,466,865,3152
2206368930,434977,-0.0259,0.0073,1.0220,-0.0610,0.5493,-0.3662,1,466,863,3152
2206373927,434978,-0.0269,0.0068,1.0220,-0.1831,0.6104,-0.3052,1,466,878,3152
2206378926,434979,-0.0283,0.0059,1.0210,-0.1221,0.6104,-0.3052,1,466,872,3152
2206383926,434980,-0.0283,0.0049,1.0220,-0.0610,0.4883,-0.3052,1,465,864,3152
2206388927,434981,-0.0259,0.0054,1.0234,0.0610,0.4272,-0.2441,1,466,870,3152
2206393924,434982,-0.0244,0.0059,1.0234,-0.1221,0.4883,-0.4272,1,466,877,3152
2206398928,434983,-0.0259,0.0044,1.0229,-0.1831,0.5493,-0.3662,1,492,873,3152
2206403924,434984,-0.0264,0.0029,1.0220,0.0000,0.5493,-0.3662,1,493,881,3152
2206408924,434985,-0.0254,0.0049,1.0215,0.0610,0.4883,-0.3052,1,483,727,3152
2206413923,434986,-0.0244,0.0059,1.0220,0.0000,0.6104,-0.3662,1,511,797,3152
2206418924,434987,-0.0239,0.0049,1.0225,-0.0610,0.6104,-0.2441,1,478,793,3152
2206423925,434988,-0.0234,0.0059,1.0239,0.0000,0.4883,-0.2441,1,505,833,3152
2206428923,434989,-0.0254,0.0068,1.0249,-0.1221,0.6104,-0.3052,1,489,815,3152
2206433928,434990,-0.0278,0.0059,1.0229,-0.3052,0.7324,-0.3662,1,476,829,3152
2206438923,434991,-0.0288,0.0054,1.0210,-0.1221,0.6714,-0.4272,1,493,844,3152
2206443927,434992,-0.0283,0.0063,1.0205,-0.0610,0.5493,-0.3052,1,480,841,3152
2206448931,434993,-0.0288,0.0059,1.0195,-0.1221,0.4883,-0.3662,1,505,828,3152
2206453928,434994,-0.0278,0.0034,1.0190,-0.0610,0.4272,-0.3662,1,473,855,3152
2206458922,434995,-0.0254,0.0039,1.0195,0.0000,0.3662,-0.3662,1,483,862,3152
2206463930,434996,-0.0239,0.0063,1.0220,-0.0610,0.4272,-0.4272,1,465,832,3152
2206468928,434997,-0.0249,0.0059,1.0239,0.0000,0.4272,-0.4272,1,466,880,3152
2206473926,434998,-0.0264,0.0049,1.0254,0.0000,0.3662,-0.4272,1,466,833,3152
2206478922,434999,-0.0254,0.0049,1.0259,-0.0610,0.3662,-0.3662,1,465,830,3152
2206483924,435000,-0.0229,0.0059,1.0249,-0.0610,0.6104,-0.3662,1,466,875,3152
2206488926,435001,-0.0239,0.0049,1.0239,-0.0610,0.6104,-0.3662,1,466,874,3152
2206493929,435002,-0.0264,0.0029,1.0234,0.0610,0.5493,-0.4272,1,466,874,3152
2206498926,435003,-0.0273,0.0024,1.0234,0.2441,0.5493,-0.4883,1,466,879,3152
2206503947,435004,-0.0283,0.0039,1.0220,0.1831,0.6104,-0.3662,1,465,883,3152
2206508925,435005,-0.0298,0.0049,1.0210,0.2441,0.4272,-0.3662,1,466,877,3152
2206513923,435006,-0.0308,0.0044,1.0205,0.1831,0.2441,-0.4272,1,493,876,3152
2206518925,435007,-0.0293,0.0044,1.0215,0.2441,0.1221,-0.4883,1,488,875,3152
2206523923,435008,-0.0254,0.0063,1.0239,0.1221,0.1221,-0.4272,1,512,770,3152
2206528926,435009,-0.0249,0.0068,1.0239,0.1221,0.3662,-0.4272,1,481,842,3152
2206533922,435010,-0.0273,0.0054,1.0229,0.1221,0.2441,-0.4272,1,506,850,3152
2206538926,435011,-0.0269,0.0054,1.0234,0.1831,0.0610,-0.4883,1,482,876,3152
2206543928,435012,-0.0254,0.0068,1.0234,0.0610,0.1221,-0.5493,1,508,854,3152
2206548922,435013,-0.0269,0.0063,1.0229,-0.0610,0.1221,-0.4272,1,491,841,3152
2206553924,435014,-0.0278,0.0044,1.0225,-0.0610,0.1221,-0.4883,1,476,844,3152
2206558922,435015,-0.0278,0.0049,1.0229,0.0000,0.1221,-0.4883,1,496,822,3152
2206563931,435016,-0.0278,0.0059,1.0229,-0.1221,0.1221,-0.3662,1,474,809,3152
2206568922,435017,-0.0264,0.0054,1.0229,-0.0610,-0.0610,-0.3052,1,482,854,3152
2206573928,435018,-0.0234,0.0083,1.0234,-0.0610,0.0000,-0.4272,1,466,869,3152
2206578925,435019,-0.0249,0.0098,1.0220,-0.3052,0.4272,-0.5493,1,466,832,3152
2206583924,435020,-0.0264,0.0049,1.0210,-0.2441,0.3052,-0.4272,1,466,876,3152
2206588930,435021,-0.0264,0.0034,1.0220,0.0000,0.2441,-0.3662,1,466,873,3152
2206593928,435022,-0.0264,0.0034,1.0234,-0.0610,0.4883,-0.4272,1,466,833,3152
2206598930,435023,-0.0259,0.0024,1.0244,0.0000,0.4272,-0.3052,1,466,878,3152
2206603925,435024,-0.0249,0.0049,1.0249,0.0000,0.3662,-0.3662,1,466,830,3152
2206608925,435025,-0.0239,0.0063,1.0254,0.0610,0.4883,-0.4272,1,466,835,3152
2206613923,435026,-0.0244,0.0054,1.0249,-0.0610,0.4272,-0.4272,1,466,876,3152
2206618929,435027,-0.0249,0.0054,1.0229,0.0000,0.4883,-0.4272,1,466,877,3152
2206623927,435028,-0.0254,0.0073,1.0210,-0.0610,0.7324,-0.4272,1,465,777,3152
2206628927,435029,-0.0278,0.0078,1.0205,0.0000,0.7324,-0.4883,1,492,872,3152
2206633928,435030,-0.0303,0.0059,1.0200,0.0610,0.4272,-0.4883,1,510,728,3152
2206638930,435031,-0.0288,0.0044,1.0205,0.1221,0.1831,-0.3662,1,474,826,3152
2206643925,435032,-0.0249,0.0049,1.0229,0.1221,0.1831,-0.4272,1,500,836,3152
2206648925,435033,-0.0234,0.0059,1.0244,0.1831,0.3662,-0.4883,1,489,876,3152
2206653926,435034,-0.0254,0.0068,1.0244,-0.0610,0.3052,-0.3662,1,494,836,3152
2206658922,435035,-0.0283,0.0054,1.0225,-0.0610,0.2441,-0.4272,1,500,834,3152
2206663929,435036,-0.0308,0.0039,1.0200,0.0000,0.1831,-0.4883,1,483,801,3152
2206668922,435037,-0.0293,0.0044,1.0190,-0.0610,0.1831,-0.4272,1,496,779,3152
2206673926,435038,-0.0259,0.0049,1.0210,0.1221,0.1831,-0.3662,1,469,854,3152
2206678926,435039,-0.0254,0.0059,1.0215,0.1221,0.1831,-0.2441,1,484,851,3152
2206683925,435040,-0.0273,0.0059,1.0215,0.0000,0.3052,-0.2441,1,466,853,3152
2206688926,435041,-0.0293,0.0049,1.0215,0.0000,0.2441,-0.2441,1,466,825,3152
2206693931,435042,-0.0293,0.0049,1.0220,-0.1831,0.2441,-0.2441,1,466,831,3152
2206698928,435043,-0.0278,0.0059,1.0210,-0.1221,0.2441,-0.1831,1,466,879,3152
2206703924,435044,-0.0269,0.0068,1.0190,-0.0610,0.1831,-0.1221,1,466,875,3152
2206708926,435045,-0.0288,0.0068,1.0186,-0.1221,0.0000,-0.1831,1,466,874,3152
2206713931,435046,-0.0303,0.0059,1.0205,-0.1831,-0.1221,-0.2441,1,465,831,3152
2206718928,435047,-0.0293,0.0054,1.0220,-0.0610,0.0000,-0.2441,1,466,873,3152
2206723950,435048,-0.0269,0.0049,1.0225,0.0000,0.0000,-0.2441,1,466,826,3152
2206728926,435049,-0.0273,0.0049,1.0220,0.0610,0.0000,-0.2441,1,466,780,3152
2206733929,435050,-0.0278,0.0059,1.0210,0.1221,-0.0610,-0.3052,1,466,827,3152
2206738925,435051,-0.0273,0.0068,1.0200,0.1831,-0.1221,-0.2441,1,465,863,3152
2206743923,435052,-0.0269,0.0063,1.0215,0.0610,0.1221,-0.3662,1,511,875,3152
2206748925,435053,-0.0249,0.0049,1.0234,0.0610,0.0610,-0.3052,1,477,842,3152
2206753929,435054,-0.0254,0.0049,1.0244,-0.1221,0.1831,-0.2441,1,503,830,3152
2206758923,435055,-0.0269,0.0063,1.0239,0.0000,0.1221,-0.2441,1,484,874,3152
2206763927,435056,-0.0259,0.0078,1.0244,-0.1221,0.2441,-0.2441,1,494,791,3152
2206768922,435057,-0.0249,0.0073,1.0254,0.0000,0.3052,-0.2441,1,489,839,3152
2206773922,435058,-0.0249,0.0063,1.0259,0.0610,0.3052,-0.3052,1,501,800,3152
2206778926,435059,-0.0244,0.0059,1.0249,0.0000,0.4883,-0.3662,1,504,821,3152
2206783925,435060,-0.0254,0.0059,1.0234,0.0000,0.5493,-0.2441,1,508,782,3152
2206788926,435061,-0.0264,0.0059,1.0229,0.0000,0.7324,-0.1831,1,479,811,3152
2206793925,435062,-0.0278,0.0049,1.0234,-0.0610,0.6104,-0.2441,1,484,812,3152
2206798922,435063,-0.0283,0.0044,1.0249,-0.1831,0.4272,-0.2441,1,466,876,3152
2206803925,435064,-0.0278,0.0054,1.0244,-0.1831,0.4272,-0.1221,1,466,885,3152
2206808923,435065,-0.0269,0.0059,1.0234,-0.1831,0.4883,-0.1831,1,466,879,3152
2206813928,435066,-0.0249,0.0059,1.0244,-0.2441,0.6104,-0.1831,1,466,876,3152
2206818925,435067,-0.0244,0.0054,1.0254,-0.1831,0.5493,-0.2441,1,466,878,3152
2206823924,435068,-0.0254,0.0054,1.0249,-0.2441,0.7324,-0.2441,1,466,881,3152
2206828922,435069,-0.0259,0.0059,1.0249,-0.1831,0.8545,-0.1831,1,466,880,3152
2206833945,435070,-0.0259,0.0054,1.0244,-0.2441,0.7935,-0.1221,1,465,877,3152
2206838926,435071,-0.0254,0.0049,1.0249,-0.1831,0.9155,-0.2441,1,466,873,3152
2206843944,435072,-0.0254,0.0059,1.0254,-0.2441,0.9766,-0.1831,1,494,880,3152
2206848924,435073,-0.0259,0.0073,1.0249,-0.3662,1.0986,-0.1831,1,473,871,3152
2206853922,435074,-0.0269,0.0078,1.0234,-0.3662,1.1597,-0.2441,1,510,819,3152
2206858930,435075,-0.0273,0.0073,1.0220,-0.3662,1.0986,-0.1221,1,492,842,3152
2206863927,435076,-0.0283,0.0063,1.0220,-0.4272,1.0986,-0.1831,1,491,848,3152
2206868926,435077,-0.0308,0.0059,1.0220,-0.4883,1.0376,-0.2441,1,483,842,3152
2206873930,435078,-0.0312,0.0059,1.0225,-0.6104,0.9766,-0.3052,1,486,838,3152
2206878929,435079,-0.0293,0.0054,1.0234,-0.4272,0.9155,-0.3052,1,491,858,3152
2206883924,435080,-0.0269,0.0044,1.0239,-0.3662,0.9155,-0.1831,1,494,844,3152
2206888928,435081,-0.0259,0.0044,1.0234,-0.4272,0.8545,-0.3052,1,509,833,3152
2206893926,435082,-0.0269,0.0044,1.0234,-0.4883,1.0376,-0.3052,1,478,853,3152
2206898922,435083,-0.0288,0.0049,1.0229,-0.5493,0.9766,-0.1831,1,483,852,3152
2206903922,435084,-0.0298,0.0054,1.0215,-0.6104,0.8545,-0.3662,1,466,882,3152
2206908930,435085,-0.0288,0.0054,1.0205,-0.4883,1.0376,-0.3662,1,466,871,3152
2206913925,435086,-0.0273,0.0044,1.0220,-0.5493,1.0376,-0.2441,1,466,876,3152
2206918929,435087,-0.0273,0.0034,1.0234,-0.5493,0.9766,-0.2441,1,466,878,3152
2206923922,435088,-0.0293,0.0054,1.0239,-0.4272,1.0986,-0.3662,1,466,884,3152
2206928929,435089,-0.0283,0.0059,1.0234,-0.5493,1.0986,-0.3052,1,466,879,3152
2206933934,435090,-0.0278,0.0054,1.0229,-0.5493,1.0986,-0.3662,1,466,877,3152
2206938952,435091,-0.0288,0.0054,1.0234,-0.6714,1.2207,-0.2441,1,466,883,3152
2206943923,435092,-0.0278,0.0059,1.0239,-0.6714,1.2207,-0.2441,1,466,879,3152
2206948926,435093,-0.0269,0.0054,1.0249,-0.8545,1.2817,-0.2441,1,466,877,3152
2206953931,435094,-0.0283,0.0039,1.0254,-0.9155,1.3428,-0.2441,1,483,877,3152
2206958930,435095,-0.0288,0.0039,1.0249,-0.8545,1.4038,-0.1831,1,465,851,3152
2206963926,435096,-0.0278,0.0044,1.0239,-0.9766,1.3428,-0.1221,1,496,865,3152
2206968929,435097,-0.0269,0.0044,1.0239,-0.9766,1.4648,-0.2441,1,485,873,3152
2206973925,435098,-0.0269,0.0039,1.0249,-0.8545,1.5259,-0.1221,1,484,839,3152
2206978926,435099,-0.0273,0.0034,1.0244,-0.9155,1.7700,-0.0610,1,496,833,3152
2206983926,435100,-0.0278,0.0029,1.0229,-1.0376,1.8311,-0.1221,1,505,840,3152
2206988926,435101,-0.0293,0.0029,1.0215,-1.2207,1.7090,0.0000,1,492,827,3152
2206993928,435102,-0.0312,0.0015,1.0200,-0.9766,1.7090,0.0610,1,467,808,3152
2206998927,435103,-0.0322,0.0015,1.0195,-0.8545,1.5869,-0.0610,1,484,872,3152
2207003924,435104,-0.0322,0.0024,1.0205,-0.8545,1.4648,-0.1221,1,466,859,3152
2207008923,435105,-0.0322,0.0034,1.0210,-0.9155,1.4648,-0.0610,1,466,878,3152
2207013925,435106,-0.0327,0.0024,1.0190,-0.7935,1.2817,-0.0610,1,466,880,3152
2207018923,435107,-0.0337,0.0020,1.0161,-0.8545,1.1597,-0.1221,1,466,880,3152
2207023922,435108,-0.0347,0.0020,1.0146,-0.7324,0.9155,-0.0610,1,466,871,3152
2207028928,435109,-0.0342,0.0010,1.0151,-0.7324,0.8545,-0.3052,1,465,879,3152
2207033924,435110,-0.0327,0.0000,1.0176,-0.5493,0.6104,-0.1831,1,466,869,3152
2207038929,435111,-0.0308,0.0015,1.0200,-0.4883,0.4883,-0.1831,1,466,837,3152
2207043944,435112,-0.0293,0.0029,1.0215,-0.6104,0.5493,-0.1831,1,466,869,3152
2207048930,435113,-0.0288,0.0029,1.0220,-0.4883,0.6104,-0.2441,1,466,875,3152
2207053933,435114,-0.0298,0.0020,1.0225,-0.6104,0.5493,-0.1221,1,493,875,3152
2207058924,435115,-0.0308,0.0024,1.0225,-0.6104,0.6104,-0.1221,1,479,867,3152
2207063925,435116,-0.0308,0.0024,1.0229,-0.5493,0.6714,-0.1831,1,511,790,3152
2207068927,435117,-0.0293,0.0029,1.0234,-0.4883,0.6714,-0.2441,1,481,849,3152
2207073922,435118,-0.0278,0.0029,1.0234,-0.6104,0.6104,-0.1831,1,503,819,3152
2207078924,435119,-0.0288,0.0020,1.0220,-0.6104,0.8545,-0.1831,1,496,886,3152
2207083930,435120,-0.0308,0.0010,1.0200,-0.6104,0.8545,-0.1221,1,501,834,3152
2207088926,435121,-0.0317,0.0005,1.0186,-0.6104,0.7935,-0.1831,1,504,821,3152
2207093924,435122,-0.0317,0.0005,1.0181,-0.4272,0.8545,-0.1221,1,487,839,3152
2207098929,435123,-0.0317,0.0015,1.0186,-0.4883,0.7935,-0.1221,1,496,821,3152
2207103925,435124,-0.0317,0.0015,1.0200,-0.4883,0.6714,-0.0610,1,465,849,3152
2207108929,435125,-0.0312,0.0015,1.0220,-0.4272,0.6714,-0.0610,1,483,850,3152
2207113931,435126,-0.0312,0.0005,1.0220,-0.3052,0.5493,-0.1221,1,466,895,3152
2207118929,435127,-0.0312,0.0000,1.0220,-0.1831,0.6714,-0.1831,1,466,890,3152
2207123930,435128,-0.0308,0.0015,1.0215,-0.1831,0.6104,-0.1831,1,466,864,3152
2207128928,435129,-0.0293,0.0020,1.0220,-0.1221,0.6714,-0.1221,1,466,870,3152
2207133925,435130,-0.0293,0.0005,1.0215,-0.0610,0.6104,-0.1831,1,466,866,3152
2207138922,435131,-0.0312,-0.0010,1.0186,0.0000,0.7324,-0.2441,1,466,867,3152
2207143926,435132,-0.0337,-0.0020,1.0176,0.0000,0.5493,-0.1831,1,466,855,3152
2207148934,435133,-0.0342,-0.0015,1.0200,0.0610,0.3052,-0.2441,1,466,830,3152
2207153922,435134,-0.0332,-0.0005,1.0220,0.1221,0.2441,-0.3662,1,466,868,3152
2207158932,435135,-0.0312,0.0005,1.0220,0.0610,0.3052,-0.2441,1,494,872,3152
2207163923,435136,-0.0298,0.0010,1.0210,0.1831,0.3052,-0.3662,1,479,892,3152
2207168927,435137,-0.0283,0.0020,1.0210,0.1831,0.1221,-0.3662,1,511,820,3152
2207173927,435138,-0.0283,0.0039,1.0215,0.2441,0.3662,-0.2441,1,474,807,3152
2207178930,435139,-0.0303,0.0034,1.0229,0.0610,0.2441,-0.4272,1,504,816,3152
2207183929,435140,-0.0308,0.0000,1.0244,0.2441,0.0610,-0.3052,1,485,888,3152
2207188928,435141,-0.0303,0.0000,1.0249,0.3052,0.1221,-0.1831,1,491,799,3152
2207193926,435142,-0.0298,0.0000,1.0249,0.2441,0.1831,-0.3052,1,499,799,3152
2207198924,435143,-0.0283,-0.0005,1.0254,0.2441,0.1221,-0.3052,1,482,789,3152
2207203928,435144,-0.0293,0.0015,1.0254,0.3052,0.3052,-0.3052,1,504,819,3152
2207208922,435145,-0.0298,0.0005,1.0244,0.1831,0.2441,-0.2441,1,508,813,3152
2207213929,435146,-0.0293,0.0010,1.0225,0.1831,0.2441,-0.2441,1,484,857,3152
2207218923,435147,-0.0312,0.0020,1.0195,0.1831,0.3052,-0.3662,1,466,875,3152
2207223924,435148,-0.0337,-0.0005,1.0190,0.2441,0.1221,-0.3662,1,466,900,3152
2207228923,435149,-0.0332,-0.0024,1.0195,0.4272,-0.0610,-0.3052,1,465,873,3152
2207233928,435150,-0.0312,0.0005,1.0210,0.4272,0.0000,-0.3662,1,466,879,3152
2207238925,435151,-0.0308,0.0039,1.0220,0.4272,0.0000,-0.4272,1,466,850,3152
2207243922,435152,-0.0312,0.0039,1.0220,0.4883,-0.1221,-0.4272,1,466,829,3152
2207248924,435153,-0.0303,0.0020,1.0220,0.3052,-0.1831,-0.4272,1,465,900,3152
2207253924,435154,-0.0288,0.0020,1.0234,0.3052,-0.1221,-0.3662,1,466,871,3152
2207258927,435155,-0.0278,0.0020,1.0244,0.3052,0.0000,-0.3052,1,466,874,3152
2207263923,435156,-0.0288,0.0015,1.0234,0.2441,0.0610,-0.3052,1,492,823,3152
2207268927,435157,-0.0303,0.0024,1.0234,0.2441,0.0000,-0.3662,1,470,870,3152
2207273928,435158,-0.0308,0.0034,1.0244,0.2441,-0.1221,-0.3052,1,469,758,3152
2207278925,435159,-0.0298,0.0029,1.0244,0.2441,-0.1831,-0.3662,1,464,841,3152
2207283926,435160,-0.0293,0.0029,1.0254,0.1831,0.0610,-0.3662,1,505,851,3152
2207288924,435161,-0.0298,0.0029,1.0254,0.3052,0.1221,-0.4272,1,488,874,3152
2207293927,435162,-0.0298,0.0034,1.0254,0.3662,0.0610,-0.2441,1,496,850,3152
2207298926,435163,-0.0293,0.0024,1.0249,0.3052,0.0610,-0.4272,1,496,864,3152
2207303927,435164,-0.0288,0.0020,1.0234,0.2441,0.0610,-0.5493,1,486,843,3152
2207308924,435165,-0.0293,0.0020,1.0225,0.3052,-0.0610,-0.4272,1,482,832,3152
2207313926,435166,-0.0303,0.0020,1.0215,0.4272,-0.1221,-0.3052,1,509,822,3152
2207318922,435167,-0.0303,0.0010,1.0210,0.3662,-0.1221,-0.4272,1,479,846,3152
2207323925,435168,-0.0288,0.0015,1.0205,0.3052,-0.1221,-0.3662,1,466,848,3152
2207328926,435169,-0.0288,0.0029,1.0215,0.3662,-0.1221,-0.3052,1,465,871,3152
2207333927,435170,-0.0298,0.0044,1.0225,0.3052,-0.2441,-0.4272,1,466,873,3152
2207338927,435171,-0.0308,0.0034,1.0220,0.4883,-0.3662,-0.3662,1,466,872,3152
2207343922,435172,-0.0298,0.0029,1.0234,0.3662,-0.3662,-0.3662,1,466,877,3152
2207348925,435173,-0.0293,0.0029,1.0249,0.2441,-0.3052,-0.4272,1,466,882,3152
2207353929,435174,-0.0283,0.0029,1.0264,0.1831,-0.3052,-0.4272,1,466,877,3152
2207358925,435175,-0.0273,0.0034,1.0269,0.3052,-0.2441,-0.3662,1,466,878,3152
2207363940,435176,-0.0269,0.0049,1.0259,0.1221,-0.0610,-0.3052,1,466,878,3152
2207368924,435177,-0.0273,0.0049,1.0229,0.0610,0.0610,-0.3662,1,466,865,3152
2207373926,435178,-0.0298,0.0029,1.0215,0.1221,-0.0610,-0.3052,1,493,874,3152
2207378924,435179,-0.0303,0.0015,1.0215,0.0610,-0.0610,-0.3662,1,466,865,3152
2207383927,435180,-0.0288,0.0024,1.0220,0.1221,0.0000,-0.3052,1,498,866,3152
2207388922,435181,-0.0269,0.0034,1.0239,0.0610,-0.0610,-0.3052,1,464,774,3152
2207393927,435182,-0.0259,0.0039,1.0254,-0.0610,0.0610,-0.3052,1,509,841,3152
2207398929,435183,-0.0264,0.0039,1.0244,0.0000,0.1831,-0.2441,1,491,866,3152
2207403926,435184,-0.0273,0.0034,1.0220,-0.0610,0.3052,-0.2441,1,474,803,3152
2207408925,435185,-0.0273,0.0034,1.0225,-0.0610,0.2441,-0.3052,1,500,834,3152
2207413922,435186,-0.0278,0.0044,1.0239,-0.1221,0.3052,-0.3052,1,484,843,3152
2207418922,435187,-0.0288,0.0044,1.0225,-0.1221,0.3662,-0.3662,1,492,821,3152
2207423927,435188,-0.0293,0.0029,1.0220,-0.1221,0.3052,-0.3052,1,465,829,3152
2207428922,435189,-0.0293,0.0024,1.0229,-0.2441,0.4272,-0.3052,1,478,846,3152
2207433931,435190,-0.0293,0.0024,1.0229,-0.1831,0.4272,-0.2441,1,466,860,3152
2207438924,435191,-0.0283,0.0029,1.0229,-0.2441,0.3662,-0.3052,1,466,884,3152
2207443923,435192,-0.0283,0.0029,1.0239,-0.1831,0.4272,-0.1831,1,466,880,3152
2207448926,435193,-0.0293,0.0024,1.0239,-0.1221,0.4272,-0.1831,1,466,885,3152
2207453922,435194,-0.0303,0.0024,1.0220,-0.1831,0.5493,-0.3052,1,466,878,3152
2207458925,435195,-0.0293,0.0029,1.0210,-0.3052,0.4883,-0.2441,1,466,875,3152
2207463926,435196,-0.0278,0.0034,1.0215,-0.1831,0.4272,-0.1831,1,466,871,3152
2207468928,435197,-0.0269,0.0034,1.0229,-0.2441,0.5493,-0.2441,1,466,884,3152
2207473942,435198,-0.0283,0.0034,1.0234,-0.2441,0.5493,-0.2441,1,466,884,3152
2207478929,435199,-0.0293,0.0029,1.0229,-0.3662,0.6104,-0.2441,1,466,887,3152
2207483943,435200,-0.0298,0.0024,1.0234,-0.4272,0.6104,-0.1831,1,493,878,3152
2207488924,435201,-0.0298,0.0020,1.0239,-0.2441,0.5493,-0.2441,1,466,877,3152
2207493923,435202,-0.0298,0.0020,1.0225,-0.1831,0.6104,-0.1221,1,466,822,3152
2207498925,435203,-0.0303,0.0020,1.0210,-0.3052,0.5493,-0.0610,1,506,828,3152
2207503925,435204,-0.0308,0.0015,1.0205,-0.3052,0.4883,-0.2441,1,473,877,3152
2207508931,435205,-0.0303,0.0010,1.0215,-0.2441,0.6104,-0.3662,1,496,828,3152
2207513929,435206,-0.0293,0.0020,1.0229,-0.3052,0.6104,-0.2441,1,498,828,3152
2207518925,435207,-0.0298,0.0024,1.0244,-0.2441,0.6714,-0.2441,1,489,841,3152
2207523930,435208,-0.0303,0.0020,1.0244,-0.3052,0.6714,-0.2441,1,492,834,3152
2207528927,435209,-0.0308,0.0010,1.0229,-0.1831,0.6104,-0.1221,1,465,824,3152
2207533930,435210,-0.0303,0.0005,1.0225,-0.2441,0.6714,-0.1831,1,484,848,3152
2207538922,435211,-0.0298,0.0005,1.0234,-0.3052,0.7935,-0.3052,1,483,851,3152
2207543922,435212,-0.0303,0.0015,1.0229,-0.2441,0.6104,-0.2441,1,466,864,3152
2207548929,435213,-0.0312,0.0020,1.0220,-0.1831,0.4883,-0.3052,1,466,873,3152
2207553924,435214,-0.0317,0.0024,1.0215,0.0610,0.6104,-0.1831,1,466,897,3152
2207558926,435215,-0.0312,0.0034,1.0215,-0.0610,0.4883,-0.3052,1,466,874,3152
2207563923,435216,-0.0303,0.0034,1.0220,0.0000,0.4883,-0.2441,1,466,895,3152
2207568925,435217,-0.0308,0.0029,1.0210,0.0610,0.4272,-0.1831,1,466,828,3152
2207573931,435218,-0.0317,0.0020,1.0200,-0.0610,0.3662,-0.1831,1,466,872,3152
2207578925,435219,-0.0332,0.0020,1.0195,0.0000,0.1221,-0.1831,1,466,876,3152
2207583930,435220,-0.0337,0.0020,1.0195,0.0610,0.1221,-0.2441,1,466,831,3152
2207588929,435221,-0.0317,0.0010,1.0210,-0.1221,0.1221,-0.2441,1,466,872,3152
2207593924,435222,-0.0293,0.0000,1.0229,0.1221,0.0000,-0.2441,1,465,866,3152
2207598925,435223,-0.0288,-0.0005,1.0234,0.2441,0.0000,-0.1221,1,483,759,3152
2207603923,435224,-0.0288,0.0010,1.0220,0.2441,0.1221,-0.1221,1,464,768,3152
2207608928,435225,-0.0293,0.0024,1.0210,0.2441,0.0000,-0.1831,1,485,800,3152
2207613929,435226,-0.0288,0.0029,1.0229,0.0610,0.1221,-0.3052,1,486,792,3152
2207618923,435227,-0.0288,0.0024,1.0244,0.1831,0.1221,-0.2441,1,490,831,3152
2207623925,435228,-0.0278,0.0034,1.0259,0.0610,0.1831,-0.1221,1,479,842,3152
2207628925,435229,-0.0269,0.0044,1.0264,0.0610,0.1831,-0.3052,1,484,835,3152
2207633923,435230,-0.0283,0.0034,1.0254,0.0610,0.3662,-0.1831,1,485,821,3152
2207638924,435231,-0.0298,0.0020,1.0239,0.0000,0.3052,-0.1831,1,499,831,3152
2207643925,435232,-0.0303,0.0015,1.0220,0.0000,0.1831,-0.1831,1,467,807,3152
2207648922,435233,-0.0298,0.0015,1.0225,0.0610,0.3052,-0.1831,1,484,808,3152
2207653924,435234,-0.0288,0.0020,1.0239,0.1221,0.5493,-0.2441,1,466,867,3152
2207658927,435235,-0.0303,0.0020,1.0225,0.1221,0.4883,-0.1831,1,466,878,3152
2207663930,435236,-0.0312,0.0005,1.0200,0.0610,0.3052,-0.1831,1,466,868,3152
2207668925,435237,-0.0312,0.0000,1.0205,0.0610,0.3052,-0.1831,1,465,891,3152
2207673928,435238,-0.0308,0.0000,1.0220,0.0610,0.1831,-0.1221,1,466,857,3152
2207678931,435239,-0.0303,0.0015,1.0225,0.1221,0.3662,-0.3052,1,466,828,3152
2207683923,435240,-0.0308,0.0044,1.0220,0.1831,0.3662,-0.1831,1,466,865,3152
2207688926,435241,-0.0308,0.0054,1.0220,0.0610,0.2441,-0.2441,1,466,875,3152
2207693947,435242,-0.0308,0.0044,1.0220,0.0000,0.2441,-0.3052,1,466,873,3152
2207698926,435243,-0.0303,0.0029,1.0225,0.0000,0.2441,-0.2441,1,466,823,3152
2207703943,435244,-0.0303,0.0020,1.0225,-0.0610,0.3662,-0.3052,1,466,828,3152
2207708930,435245,-0.0298,0.0024,1.0225,-0.1831,0.2441,-0.2441,1,465,866,3152
2207713930,435246,-0.0283,0.0029,1.0234,-0.1831,0.3052,-0.1831,1,511,881,3152
2207718923,435247,-0.0273,0.0024,1.0239,-0.1221,0.3662,-0.2441,1,478,849,3152
2207723924,435248,-0.0278,0.0010,1.0234,-0.1221,0.2441,-0.2441,1,492,831,3152
2207728927,435249,-0.0283,0.0015,1.0225,-0.1831,0.3052,-0.3052,1,480,856,3152
2207733927,435250,-0.0303,0.0029,1.0225,-0.1221,0.4272,-0.1831,1,486,858,3152
2207738924,435251,-0.0303,0.0024,1.0229,-0.1221,0.3662,-0.3052,1,493,833,3152
2207743927,435252,-0.0298,0.0020,1.0229,0.0000,0.3662,-0.2441,1,494,824,3152
2207748922,435253,-0.0288,0.0020,1.0229,-0.1221,0.3662,-0.1221,1,502,785,3152
2207753926,435254,-0.0283,0.0020,1.0215,-0.1221,0.4883,-0.2441,1,478,854,3152
2207758925,435255,-0.0308,0.0020,1.0200,-0.0610,0.3662,-0.3052,1,483,855,3152
2207763929,435256,-0.0327,0.0024,1.0200,-0.0610,0.1831,-0.3662,1,466,867,3152
2207768928,435257,-0.0317,0.0024,1.0225,0.0000,0.2441,-0.2441,1,466,880,3152
2207773927,435258,-0.0303,0.0029,1.0239,0.0000,0.1831,-0.1831,1,466,837,3152
2207778925,435259,-0.0298,0.0024,1.0249,0.0000,0.3052,-0.1831,1,466,832,3152
2207783930,435260,-0.0308,0.0015,1.0239,-0.0610,0.2441,-0.2441,1,466,831,3152
2207788924,435261,-0.0322,0.0010,1.0225,-0.0610,0.1831,-0.3052,1,466,877,3152
2207793927,435262,-0.0312,0.0005,1.0225,-0.0610,0.1831,-0.3052,1,466,870,3152
2207798922,435263,-0.0283,0.0015,1.0234,-0.0610,0.1831,-0.1831,1,466,892,3152
2207803929,435264,-0.0273,0.0029,1.0234,-0.1221,0.3662,-0.2441,1,466,879,3152
2207808924,435265,-0.0288,0.0024,1.0220,-0.1831,0.5493,-0.3662,1,493,880,3152
2207813928,435266,-0.0303,0.0015,1.0205,-0.1221,0.3052,-0.3052,1,493,885,3152
2207818922,435267,-0.0312,0.0020,1.0215,-0.1221,0.1221,-0.3052,1,487,859,3152
2207823925,435268,-0.0303,0.0020,1.0244,0.0000,0.1221,-0.3052,1,464,822,3152
2207828923,435269,-0.0288,0.0020,1.0254,0.0610,0.1831,-0.3052,1,503,790,3152
2207833930,435270,-0.0283,0.0020,1.0254,0.0000,0.3052,-0.3662,1,488,870,3152
2207838930,435271,-0.0293,0.0015,1.0244,0.0610,0.1831,-0.3662,1,488,814,3152
2207843930,435272,-0.0303,0.0010,1.0234,0.0000,0.1831,-0.2441,1,484,835,3152
2207848928,435273,-0.0308,0.0015,1.0229,0.1221,0.1831,-0.2441,1,493,796,3152
2207853923,435274,-0.0322,0.0015,1.0220,0.1221,0.2441,-0.3662,1,500,842,3152
2207858922,435275,-0.0332,0.0005,1.0210,0.0610,0.1221,-0.3052,1,510,827,3152
2207863924,435276,-0.0332,0.0000,1.0205,0.1831,0.0000,-0.3662,1,480,842,3152
2207868926,435277,-0.0308,0.0000,1.0205,0.3052,0.0610,-0.1831,1,484,776,3152
2207873929,435278,-0.0288,0.0010,1.0225,0.1831,0.0000,-0.3662,1,466,829,3152
2207878926,435279,-0.0283,0.0024,1.0234,0.1221,0.0000,-0.3052,1,466,829,3152
2207883925,435280,-0.0298,0.0015,1.0234,0.1831,0.0000,-0.2441,1,466,828,3152
2207888923,435281,-0.0308,0.0010,1.0229,0.1831,0.0000,-0.3052,1,466,831,3152
2207893923,435282,-0.0308,0.0024,1.0229,0.1831,0.0000,-0.2441,1,466,822,3152
2207898922,435283,-0.0298,0.0029,1.0234,0.1221,0.0610,-0.2441,1,466,834,3152
2207903927,435284,-0.0293,0.0029,1.0234,0.1221,0.1831,-0.1831,1,466,875,3152
2207908928,435285,-0.0303,0.0034,1.0229,0.0000,0.1831,-0.2441,1,466,877,3152
2207913927,435286,-0.0308,0.0034,1.0220,0.0610,0.2441,-0.1831,1,465,833,3152
2207918928,435287,-0.0312,0.0029,1.0215,0.0610,0.1221,-0.2441,1,466,873,3152
2207923922,435288,-0.0312,0.0024,1.0220,0.0000,0.1221,-0.2441,1,466,896,3152
2207928924,435289,-0.0308,0.0020,1.0225,-0.1221,0.1831,-0.2441,1,511,779,3152
2207933929,435290,-0.0293,0.0015,1.0225,-0.0610,0.1831,-0.3052,1,481,842,3152
2207938927,435291,-0.0283,0.0015,1.0225,0.1221,0.1221,-0.2441,1,504,803,3152
2207943925,435292,-0.0293,0.0034,1.0225,0.1221,0.2441,-0.2441,1,485,898,3152
2207948930,435293,-0.0303,0.0049,1.0225,0.0000,0.2441,-0.3662,1,496,836,3152
2207953926,435294,-0.0298,0.0039,1.0220,-0.1221,0.3052,-0.3052,1,499,752,3152
2207958926,435295,-0.0293,0.0020,1.0220,-0.0610,0.3052,-0.1831,1,490,835,3152
2207963922,435296,-0.0298,0.0029,1.0225,0.1221,0.2441,-0.3662,1,494,822,3152
2207968927,435297,-0.0303,0.0039,1.0229,0.1221,0.1831,-0.3662,1,470,855,3152
2207973923,435298,-0.0308,0.0034,1.0215,0.0610,0.1831,-0.3052,1,484,856,3152
2207978930,435299,-0.0308,0.0029,1.0205,0.0000,0.1831,-0.3052,1,466,870,3152
2207983930,435300,-0.0298,0.0020,1.0205,0.0000,0.0610,-0.3662,1,466,823,3152
2207988924,435301,-0.0298,0.0005,1.0210,-0.1221,0.1221,-0.4272,1,466,827,3152
2207993925,435302,-0.0288,0.0000,1.0229,-0.0610,0.1831,-0.2441,1,466,865,3152
2207998923,435303,-0.0283,0.0005,1.0239,0.1221,0.1831,-0.2441,1,466,841,3152
2208003925,435304,-0.0278,0.0015,1.0229,0.0610,0.2441,-0.3052,1,466,875,3152
2208008925,435305,-0.0288,0.0020,1.0215,-0.1221,0.3052,-0.2441,1,466,873,3152
2208013928,435306,-0.0293,0.0024,1.0215,-0.0610,0.2441,-0.2441,1,466,873,3152
2208018953,435307,-0.0293,0.0029,1.0229,-0.0610,0.2441,-0.2441,1,466,879,3152
2208023923,435308,-0.0288,0.0024,1.0229,0.0610,0.3052,-0.2441,1,466,879,3152
2208028927,435309,-0.0293,0.0029,1.0225,0.1221,0.1831,-0.1831,1,466,875,3152
2208033924,435310,-0.0303,0.0029,1.0225,0.0000,0.1831,-0.3052,1,472,873,3152
2208038924,435311,-0.0303,0.0029,1.0220,0.0000,0.2441,-0.3052,1,466,772,3152
2208043929,435312,-0.0298,0.0024,1.0220,0.1221,0.3662,-0.1831,1,484,822,3152
2208048925,435313,-0.0293,0.0020,1.0220,0.1221,0.2441,-0.2441,1,478,875,3152
2208053923,435314,-0.0293,0.0024,1.0225,0.0000,0.3052,-0.2441,1,484,834,3152
2208058924,435315,-0.0298,0.0029,1.0229,0.0610,0.3662,-0.3662,1,491,789,3152
2208063931,435316,-0.0293,0.0029,1.0239,0.0000,0.3662,-0.3662,1,479,847,3152
2208068926,435317,-0.0293,0.0034,1.0239,-0.0610,0.4883,-0.3662,1,473,786,3152
2208073922,435318,-0.0293,0.0029,1.0244,-0.0610,0.4272,-0.2441,1,496,829,3152
2208078925,435319,-0.0288,0.0024,1.0239,-0.1221,0.4272,-0.2441,1,470,832,3152
2208083924,435320,-0.0278,0.0029,1.0239,-0.1221,0.6104,-0.2441,1,483,864,3152
2208088927,435321,-0.0278,0.0029,1.0234,-0.0610,0.6714,-0.1831,1,466,876,3152
2208093924,435322,-0.0288,0.0020,1.0229,-0.1221,0.5493,-0.1221,1,466,878,3152
2208098929,435323,-0.0288,0.0024,1.0234,-0.1221,0.5493,-0.2441,1,466,875,3152
2208103928,435324,-0.0288,0.0024,1.0225,-0.1221,0.4883,-0.2441,1,466,883,3152
2208108923,435325,-0.0293,0.0029,1.0220,-0.2441,0.7324,-0.2441,1,466,878,3152
2208113924,435326,-0.0303,0.0029,1.0234,-0.0610,0.6714,-0.2441,1,466,880,3152
2208118925,435327,-0.0308,0.0039,1.0229,-0.1221,0.4883,-0.1831,1,465,875,3152
2208123929,435328,-0.0293,0.0039,1.0215,-0.0610,0.6714,-0.2441,1,466,874,3152
2208128953,435329,-0.0273,0.0034,1.0215,-0.1831,0.6714,-0.2441,1,466,875,3152
2208133924,435330,-0.0264,0.0029,1.0229,-0.1831,0.8545,-0.2441,1,466,881,3152
2208138922,435331,-0.0278,0.0020,1.0244,-0.1221,0.7324,-0.2441,1,466,879,3152
2208143928,435332,-0.0308,0.0010,1.0249,-0.1831,0.5493,-0.2441,1,466,877,3152
2208148922,435333,-0.0322,0.0005,1.0244,-0.0610,0.5493,-0.2441,1,493,828,3152
2208153925,435334,-0.0322,0.0010,1.0229,0.0000,0.6714,-0.3052,1,484,809,3152
2208158923,435335,-0.0317,0.0015,1.0225,-0.0610,0.6104,-0.3052,1,486,784,3152
2208163930,435336,-0.0303,0.0015,1.0234,0.0610,0.5493,-0.1831,1,493,825,3152
2208168927,435337,-0.0288,0.0020,1.0234,0.1221,0.5493,-0.1221,1,491,834,3152
2208173923,435338,-0.0288,0.0024,1.0225,-0.0610,0.6714,-0.1831,1,481,843,3152
2208178929,435339,-0.0288,0.0024,1.0220,0.0610,0.6714,-0.1831,1,480,830,3152
2208183925,435340,-0.0293,0.0024,1.0215,0.0610,0.6714,-0.1831,1,494,829,3152
2208188927,435341,-0.0298,0.0010,1.0225,0.0610,0.6714,-0.2441,1,469,853,3152
2208193930,435342,-0.0308,0.0005,1.0244,-0.0610,0.7324,-0.1221,1,483,849,3152
2208198925,435343,-0.0312,0.0005,1.0254,-0.1831,0.6104,-0.1221,1,466,867,3152
2208203930,435344,-0.0308,0.0015,1.0264,-0.2441,0.7324,-0.2441,1,466,891,3152
2208208926,435345,-0.0298,0.0034,1.0273,-0.1221,0.7324,-0.3052,1,466,876,3152
2208213924,435346,-0.0293,0.0034,1.0264,-0.1221,0.7324,-0.1831,1,466,874,3152
2208218927,435347,-0.0288,0.0020,1.0244,-0.3052,0.7935,-0.1221,1,466,876,3152
2208223927,435348,-0.0293,0.0005,1.0225,-0.2441,0.9155,-0.1831,1,466,872,3152
2208228928,435349,-0.0308,0.0010,1.0220,-0.2441,1.0376,-0.2441,1,466,874,3152
2208233927,435350,-0.0308,0.0029,1.0220,-0.1221,0.9155,-0.1221,1,466,872,3152
2208238931,435351,-0.0312,0.0024,1.0234,-0.1831,0.8545,-0.1221,1,466,868,3152
2208243955,435352,-0.0312,0.0020,1.0254,-0.3662,0.9155,-0.2441,1,466,902,3152
2208248925,435353,-0.0317,0.0029,1.0244,-0.1831,0.9766,-0.2441,1,466,904,3152
2208253923,435354,-0.0312,0.0029,1.0220,-0.1221,1.0376,-0.3052,1,466,879,3152
2208258925,435355,-0.0317,0.0015,1.0210,-0.3052,1.0376,-0.1831,1,494,891,3152
2208263923,435356,-0.0327,0.0000,1.0215,-0.3662,0.9155,-0.2441,1,464,840,3152
2208268930,435357,-0.0327,-0.0005,1.0225,-0.0610,0.8545,-0.1831,1,506,782,3152
2208273929,435358,-0.0322,0.0000,1.0234,-0.1831,0.9766,-0.1831,1,481,870,3152
2208278928,435359,-0.0317,0.0005,1.0234,-0.2441,0.9766,-0.3052,1,498,801,3152
2208283923,435360,-0.0327,0.0015,1.0210,-0.1831,1.0376,-0.2441,1,484,865,3152
2208288924,435361,-0.0356,0.0020,1.0166,-0.1831,0.7935,-0.1831,1,495,835,3152
2208293922,435362,-0.0376,0.0005,1.0161,-0.1221,0.6714,-0.1831,1,496,850,3152
2208298928,435363,-0.0361,-0.0005,1.0186,-0.1221,0.5493,-0.2441,1,504,822,3152
2208303927,435364,-0.0327,0.0005,1.0210,-0.0610,0.4883,-0.3052,1,467,853,3152
2208308923,435365,-0.0308,0.0015,1.0225,-0.0610,0.4272,-0.2441,1,484,844,3152
2208313930,435366,-0.0303,0.0020,1.0239,-0.1221,0.5493,-0.2441,1,466,871,3152
2208318923,435367,-0.0308,0.0010,1.0249,-0.0610,0.4883,-0.3052,1,466,874,3152
2208323925,435368,-0.0317,0.0005,1.0249,-0.1221,0.5493,-0.3052,1,466,865,3152
2208328922,435369,-0.0317,0.0010,1.0239,-0.1831,0.6714,-0.1831,1,466,871,3152
2208333928,435370,-0.0322,0.0015,1.0234,-0.2441,0.6714,-0.1831,1,466,878,3152
2208338927,435371,-0.0322,0.0010,1.0225,-0.2441,0.6714,-0.2441,1,466,880,3152
2208343930,435372,-0.0317,0.0000,1.0220,-0.1831,0.6104,-0.3052,1,466,876,3152
2208348925,435373,-0.0312,0.0000,1.0225,-0.2441,0.7324,-0.3052,1,466,832,3152
2208353922,435374,-0.0317,0.0010,1.0220,-0.1831,0.7324,-0.3052,1,466,860,3152
2208358925,435375,-0.0322,0.0010,1.0215,-0.1221,0.6714,-0.2441,1,465,872,3152
2208363934,435376,-0.0337,0.0000,1.0215,-0.1221,0.6714,-0.3052,1,492,871,3152
2208368922,435377,-0.0342,-0.0010,1.0205,0.0000,0.5493,-0.2441,1,466,723,3152
2208373923,435378,-0.0342,-0.0005,1.0210,-0.0610,0.6714,-0.1831,1,511,738,3152
2208378931,435379,-0.0332,0.0010,1.0210,-0.1831,0.4883,-0.3662,1,465,800,3152
2208383922,435380,-0.0312,0.0020,1.0205,0.0000,0.4272,-0.3052,1,491,843,3152
2208388929,435381,-0.0303,0.0015,1.0215,0.0000,0.4272,-0.3052,1,485,812,3152
2208393926,435382,-0.0322,0.0000,1.0215,-0.1831,0.3662,-0.3052,1,487,782,3152
2208398930,435383,-0.0342,0.0000,1.0205,-0.1221,0.4272,-0.1831,1,498,805,3152
2208403922,435384,-0.0342,0.0010,1.0215,-0.0610,0.2441,-0.3052,1,477,788,3152
2208408929,435385,-0.0327,0.0010,1.0229,-0.0610,0.1831,-0.3052,1,506,819,3152
2208413927,435386,-0.0322,0.0010,1.0225,-0.1221,0.2441,-0.2441,1,502,825,3152
2208418927,435387,-0.0317,0.0015,1.0210,-0.1221,0.3052,-0.1831,1,483,853,3152
2208423929,435388,-0.0317,0.0024,1.0210,-0.1221,0.2441,-0.1831,1,466,867,3152
2208428930,435389,-0.0317,0.0024,1.0220,-0.2441,0.2441,-0.1221,1,466,877,3152
2208433925,435390,-0.0317,0.0015,1.0229,-0.1221,0.3052,-0.1831,1,466,880,3152
2208438923,435391,-0.0322,-0.0005,1.0234,-0.0610,0.3662,-0.2441,1,465,873,3152
2208443926,435392,-0.0332,-0.0005,1.0229,0.0610,0.2441,-0.3662,1,466,877,3152
2208448927,435393,-0.0332,-0.0005,1.0215,0.0610,0.2441,-0.3052,1,466,876,3152
2208453924,435394,-0.0332,0.0000,1.0210,0.1221,0.3052,-0.3052,1,466,868,3152
2208458924,435395,-0.0322,0.0005,1.0220,0.0610,0.2441,-0.2441,1,466,826,3152
2208463944,435396,-0.0312,0.0000,1.0229,0.1221,0.2441,-0.3052,1,466,874,3152
2208468931,435397,-0.0308,-0.0010,1.0229,0.3052,0.0610,-0.3052,1,466,856,3152
2208473947,435398,-0.0312,0.0000,1.0225,0.2441,0.0610,-0.3662,1,493,861,3152
2208478927,435399,-0.0312,0.0010,1.0220,0.2441,0.1221,-0.3052,1,493,860,3152
2208483930,435400,-0.0303,0.0020,1.0229,0.2441,0.2441,-0.3052,1,502,890,3152
2208488929,435401,-0.0308,0.0029,1.0239,0.2441,0.0610,-0.3052,1,475,843,3152
2208493928,435402,-0.0322,0.0034,1.0229,0.1221,0.3662,-0.3052,1,476,869,3152
2208498930,435403,-0.0327,0.0024,1.0215,0.1221,0.3052,-0.3662,1,485,837,3152
2208503928,435404,-0.0332,0.0005,1.0220,0.1221,0.1831,-0.3662,1,487,834,3152
2208508925,435405,-0.0327,0.0000,1.0234,0.1221,0.1831,-0.3052,1,493,832,3152
2208513925,435406,-0.0327,0.0005,1.0244,0.1221,0.1831,-0.3662,1,496,787,3152
2208518925,435407,-0.0322,0.0005,1.0225,0.1221,0.1221,-0.3052,1,494,827,3152
2208523923,435408,-0.0312,0.0010,1.0220,0.2441,0.1221,-0.2441,1,467,814,3152
2208528928,435409,-0.0312,0.0015,1.0225,0.3052,0.1221,-0.3052,1,483,878,3152
2208533923,435410,-0.0308,0.0015,1.0239,0.1221,0.1831,-0.3662,1,466,887,3152
2208538929,435411,-0.0308,0.0015,1.0234,0.0000,0.3052,-0.3052,1,466,872,3152
2208543922,435412,-0.0303,0.0020,1.0225,0.1221,0.2441,-0.3662,1,466,820,3152
2208548931,435413,-0.0308,0.0015,1.0225,0.1831,0.2441,-0.3662,1,466,873,3152
2208553922,435414,-0.0312,0.0000,1.0234,0.1221,0.2441,-0.4272,1,466,874,3152
2208558925,435415,-0.0322,0.0005,1.0244,0.1221,0.2441,-0.3052,1,466,863,3152
2208563922,435416,-0.0317,0.0024,1.0249,0.1221,0.3662,-0.3662,1,466,870,3152
2208568926,435417,-0.0312,0.0024,1.0244,0.1221,0.3662,-0.3662,1,466,880,3152
2208573922,435418,-0.0317,0.0024,1.0239,0.1221,0.3662,-0.3052,1,466,905,3152
2208578925,435419,-0.0317,0.0015,1.0234,0.0610,0.3662,-0.3662,1,466,877,3152
2208583923,435420,-0.0317,0.0005,1.0220,0.1221,0.3052,-0.3052,1,492,877,3152
2208588930,435421,-0.0322,0.0010,1.0215,0.0610,0.1221,-0.3662,1,484,860,3152
2208593922,435422,-0.0332,0.0015,1.0220,0.1831,0.1831,-0.2441,1,493,803,3152
2208598922,435423,-0.0332,0.0020,1.0225,0.1221,0.2441,-0.3052,1,486,812,3152
2208603929,435424,-0.0317,0.0020,1.0220,0.1221,0.1831,-0.3662,1,492,879,3152
2208608930,435425,-0.0308,0.0005,1.0205,0.1221,0.3052,-0.1831,1,491,836,3152
2208613928,435426,-0.0317,0.0000,1.0205,0.1221,0.2441,-0.2441,1,490,851,3152
2208618929,435427,-0.0327,0.0000,1.0215,0.0610,0.1221,-0.3052,1,475,790,3152
2208623926,435428,-0.0332,0.0010,1.0225,0.0610,0.0000,-0.3052,1,481,781,3152
2208628922,435429,-0.0312,0.0020,1.0249,0.1221,0.0610,-0.3052,1,503,773,3152
2208633923,435430,-0.0283,0.0010,1.0264,0.1831,0.1831,-0.2441,1,477,872,3152
2208638930,435431,-0.0278,0.0015,1.0254,0.1831,0.2441,-0.3052,1,484,856,3152
2208643924,435432,-0.0298,0.0015,1.0225,0.0610,0.2441,-0.3662,1,465,874,3152
2208648930,435433,-0.0317,0.0015,1.0215,0.0000,0.2441,-0.3662,1,466,873,3152
2208653924,435434,-0.0317,0.0020,1.0215,-0.0610,0.3052,-0.2441,1,466,832,3152
2208658929,435435,-0.0317,0.0020,1.0225,-0.0610,0.3052,-0.1831,1,466,873,3152
2208663928,435436,-0.0327,0.0010,1.0229,0.0000,0.3662,-0.2441,1,465,873,3152
2208668930,435437,-0.0332,0.0005,1.0229,-0.0610,0.4883,-0.3052,1,466,832,3152
2208673922,435438,-0.0337,0.0005,1.0225,-0.1221,0.4272,-0.2441,1,466,869,3152
2208678928,435439,-0.0342,0.0010,1.0225,0.0000,0.3052,-0.2441,1,466,870,3152
2208683931,435440,-0.0337,0.0020,1.0215,0.0000,0.3052,-0.3052,1,466,821,3152
2208688925,435441,-0.0327,0.0015,1.0210,0.0000,0.2441,-0.3662,1,465,820,3152
2208693944,435442,-0.0317,0.0005,1.0220,-0.0610,0.2441,-0.2441,1,493,827,3152
2208698927,435443,-0.0312,0.0005,1.0225,0.1221,0.1221,-0.1831,1,466,872,3152
2208703928,435444,-0.0308,0.0015,1.0225,0.0610,0.2441,-0.2441,1,511,890,3152
2208708929,435445,-0.0312,0.0029,1.0220,0.0610,0.2441,-0.3662,1,474,794,3152
2208713930,435446,-0.0317,0.0039,1.0215,0.0000,0.3052,-0.2441,1,490,824,3152
2208718929,435447,-0.0312,0.0044,1.0225,0.0610,0.3052,-0.2441,1,494,790,3152
2208723925,435448,-0.0303,0.0034,1.0234,0.1831,0.3662,-0.2441,1,477,856,3152
2208728930,435449,-0.0298,0.0024,1.0239,0.0000,0.1221,-0.1221,1,484,851,3152
2208733930,435450,-0.0293,0.0015,1.0229,0.0000,0.3052,-0.3052,1,486,778,3152
2208738927,435451,-0.0298,0.0005,1.0239,0.0000,0.4272,-0.2441,1,486,773,3152
2208743929,435452,-0.0308,0.0000,1.0249,0.0610,0.4883,-0.2441,1,496,781,3152
2208748930,435453,-0.0322,0.0005,1.0234,0.0610,0.4272,-0.3662,1,508,785,3152
2208753930,435454,-0.0322,0.0015,1.0215,0.0610,0.3052,-0.1831,1,483,856,3152
2208758927,435455,-0.0322,0.0020,1.0205,0.1221,0.3662,-0.2441,1,466,870,3152
2208763922,435456,-0.0317,0.0015,1.0210,0.0000,0.3662,-0.3662,1,466,876,3152
2208768924,435457,-0.0303,0.0020,1.0220,0.1221,0.3662,-0.3052,1,466,829,3152
2208773927,435458,-0.0293,0.0034,1.0229,0.1831,0.2441,-0.0610,1,465,866,3152
2208778926,435459,-0.0308,0.0015,1.0229,-0.0610,0.3052,-0.1831,1,466,879,3152
2208783925,435460,-0.0317,-0.0005,1.0229,0.0610,0.4272,-0.2441,1,466,871,3152
2208788928,435461,-0.0317,-0.0005,1.0239,0.0610,0.4272,-0.3662,1,466,876,3152
2208793923,435462,-0.0317,0.0005,1.0234,0.1221,0.4883,-0.3662,1,466,875,3152
2208798950,435463,-0.0322,0.0010,1.0220,0.1221,0.4272,-0.3052,1,466,872,3152
2208803926,435464,-0.0337,0.0005,1.0215,0.0610,0.3052,-0.1831,1,466,867,3152
2208808922,435465,-0.0347,0.0000,1.0215,0.1831,0.3662,-0.2441,1,493,865,3152
2208813930,435466,-0.0337,0.0000,1.0215,0.2441,0.2441,-0.1831,1,484,761,3152
2208818925,435467,-0.0317,0.0005,1.0220,0.2441,0.1831,-0.1221,1,493,725,3152
2208823922,435468,-0.0317,0.0015,1.0229,0.1831,0.2441,-0.1221,1,483,842,3152
2208828929,435469,-0.0317,0.0015,1.0234,0.1831,0.3052,-0.3052,1,488,876,3152
2208833926,435470,-0.0317,0.0015,1.0220,0.1221,0.2441,-0.2441,1,485,831,3152
2208838927,435471,-0.0317,0.0010,1.0200,0.1221,0.1221,-0.1831,1,495,834,3152
2208843925,435472,-0.0308,0.0015,1.0205,0.1221,0.1831,-0.3052,1,490,836,3152
2208848928,435473,-0.0303,0.0034,1.0234,0.0610,0.1831,-0.3052,1,502,818,3152
2208853928,435474,-0.0312,0.0039,1.0239,0.1831,0.2441,-0.2441,1,502,826,3152
2208858922,435475,-0.0322,0.0029,1.0225,0.0610,0.1831,-0.3052,1,506,862,3152
2208863929,435476,-0.0327,0.0024,1.0200,0.1831,0.1831,-0.2441,1,484,853,3152
2208868926,435477,-0.0322,0.0010,1.0200,0.1221,0.3052,-0.1831,1,466,882,3152
2208873922,435478,-0.0317,-0.0005,1.0215,0.0610,0.1221,-0.1221,1,466,866,3152
2208878930,435479,-0.0308,0.0010,1.0229,-0.0610,0.1221,-0.2441,1,466,864,3152
2208883924,435480,-0.0308,0.0020,1.0229,0.0610,0.0610,-0.3052,1,466,867,3152
2208888928,435481,-0.0308,0.0020,1.0220,0.1831,0.1831,-0.2441,1,466,866,3152
2208893923,435482,-0.0312,0.0010,1.0210,0.0610,0.1831,-0.1831,1,466,876,3152
2208898928,435483,-0.0327,0.0000,1.0210,0.0000,0.0000,-0.1831,1,466,896,3152
2208903922,435484,-0.0332,-0.0005,1.0225,0.0610,0.1221,-0.2441,1,466,744,3152
2208908927,435485,-0.0317,0.0015,1.0239,0.1221,0.0610,-0.2441,1,465,869,3152
2208913928,435486,-0.0303,0.0039,1.0254,0.0610,0.1221,-0.3662,1,466,873,3152
2208918924,435487,-0.0303,0.0039,1.0259,0.0610,0.1221,-0.1831,1,492,869,3152
2208923929,435488,-0.0317,0.0029,1.0244,0.1221,0.1831,-0.1221,1,466,868,3152
2208928930,435489,-0.0332,0.0020,1.0215,0.0610,0.2441,-0.2441,1,493,873,3152
2208933926,435490,-0.0337,0.0010,1.0200,0.0610,0.0610,-0.3662,1,477,809,3152
2208938929,435491,-0.0327,0.0005,1.0200,0.1221,0.0610,-0.3662,1,481,864,3152
2208943923,435492,-0.0317,0.0015,1.0215,0.2441,0.1221,-0.1831,1,505,878,3152
2208948923,435493,-0.0312,0.0015,1.0239,0.2441,0.1831,-0.2441,1,486,856,3152
2208953926,435494,-0.0317,0.0005,1.0244,0.1831,0.2441,-0.3662,1,491,894,3152
2208958927,435495,-0.0332,0.0000,1.0225,0.1831,0.3052,-0.2441,1,491,848,3152
2208963924,435496,-0.0332,0.0000,1.0210,0.1831,0.1221,-0.3662,1,490,789,3152
2208968927,435497,-0.0317,0.0010,1.0210,0.1221,0.0610,-0.3052,1,465,788,3152
2208973924,435498,-0.0308,0.0015,1.0220,0.3052,0.1831,-0.1831,1,484,843,3152
2208978927,435499,-0.0312,0.0020,1.0225,0.3662,0.0000,-0.3052,1,466,867,3152
2208983922,435500,-0.0322,0.0020,1.0225,0.1221,0.0000,-0.2441,1,466,850,3152
2208988922,435501,-0.0332,0.0005,1.0220,0.1221,0.1221,-0.2441,1,465,829,3152
2208993924,435502,-0.0327,0.0005,1.0215,0.1831,-0.0610,-0.4272,1,466,868,3152
2208998923,435503,-0.0312,0.0010,1.0234,0.1831,-0.0610,-0.3052,1,465,873,3152
2209003922,435504,-0.0298,0.0015,1.0254,0.2441,0.1221,-0.2441,1,466,895,3152
2209008930,435505,-0.0303,0.0024,1.0259,0.1831,0.0610,-0.3052,1,466,875,3152
2209013926,435506,-0.0312,0.0024,1.0249,0.0610,0.1221,-0.3052,1,466,870,3152
2209018924,435507,-0.0322,0.0010,1.0244,0.1831,0.0610,-0.1831,1,466,898,3152
2209023955,435508,-0.0322,0.0010,1.0234,0.1221,0.0000,-0.1831,1,466,877,3152
2209028929,435509,-0.0317,0.0010,1.0210,0.1221,-0.0610,-0.2441,1,465,827,3152
2209033927,435510,-0.0317,0.0005,1.0205,0.1221,-0.0610,-0.3662,1,493,868,3152
2209038928,435511,-0.0312,0.0015,1.0215,0.1831,-0.0610,-0.2441,1,489,868,3152
2209043926,435512,-0.0293,0.0024,1.0225,0.1831,-0.0610,-0.2441,1,466,824,3152
2209048925,435513,-0.0278,0.0020,1.0234,0.1831,-0.1221,-0.1831,1,483,810,3152
2209053925,435514,-0.0293,0.0010,1.0234,0.2441,-0.0610,-0.1221,1,479,877,3152
2209058923,435515,-0.0312,0.0010,1.0225,0.3052,-0.1221,-0.3052,1,503,830,3152
2209063923,435516,-0.0322,0.0020,1.0229,0.3052,0.0000,-0.3052,1,489,867,3152
2209068926,435517,-0.0308,0.0034,1.0234,0.1831,0.1221,-0.3052,1,495,777,3152
2209073929,435518,-0.0303,0.0034,1.0234,0.1221,0.1831,-0.3052,1,496,824,3152
2209078923,435519,-0.0312,0.0015,1.0239,0.1831,0.1221,-0.1831,1,485,823,3152
2209083930,435520,-0.0308,0.0000,1.0239,0.0610,0.2441,-0.3052,1,506,853,3152
2209088923,435521,-0.0303,0.0000,1.0229,0.1831,0.0610,-0.3662,1,484,811,3152
2209093923,435522,-0.0298,0.0020,1.0215,0.2441,-0.0610,-0.2441,1,466,836,3152
2209098928,435523,-0.0303,0.0034,1.0215,0.2441,0.0000,-0.1221,1,466,875,3152
2209103927,435524,-0.0308,0.0029,1.0220,0.3052,-0.1221,-0.3052,1,466,826,3152
2209108931,435525,-0.0312,0.0015,1.0225,0.3052,-0.0610,-0.3052,1,466,862,3152
2209113930,435526,-0.0317,0.0005,1.0229,0.2441,-0.0610,-0.3662,1,466,891,3152
2209118928,435527,-0.0312,0.0015,1.0229,0.3662,0.1221,-0.3662,1,466,876,3152
2209123930,435528,-0.0303,0.0029,1.0225,0.3052,0.1221,-0.3662,1,466,901,3152
2209128926,435529,-0.0298,0.0024,1.0225,0.3052,-0.0610,-0.3662,1,466,869,3152
2209133934,435530,-0.0298,0.0020,1.0234,0.3052,0.0000,-0.2441,1,466,872,3152
2209138930,435531,-0.0298,0.0024,1.0244,0.3052,0.0000,-0.3662,1,466,828,3152
2209143943,435532,-0.0298,0.0034,1.0249,0.3052,0.0610,-0.3052,1,492,831,3152
2209148923,435533,-0.0303,0.0034,1.0234,0.3052,0.1831,-0.2441,1,492,870,3152
2209153924,435534,-0.0312,0.0034,1.0229,0.2441,0.1831,-0.3052,1,490,874,3152
2209158928,435535,-0.0312,0.0024,1.0239,0.1831,0.0610,-0.2441,1,471,818,3152
2209163923,435536,-0.0312,0.0015,1.0244,0.1831,0.0610,-0.1831,1,494,828,3152
2209168922,435537,-0.0312,0.0020,1.0239,0.1831,0.1221,-0.1831,1,483,901,3152
2209173928,435538,-0.0317,0.0024,1.0234,0.1831,0.2441,-0.3052,1,489,863,3152
2209178926,435539,-0.0317,0.0024,1.0229,0.1831,0.3662,-0.3052,1,481,870,3152
2209183926,435540,-0.0312,0.0020,1.0220,0.1221,0.1221,-0.3662,1,488,804,3152
2209188928,435541,-0.0303,0.0024,1.0210,0.1831,0.1221,-0.3662,1,495,848,3152
2209193927,435542,-0.0298,0.0034,1.0215,0.1831,0.1831,-0.3052,1,504,825,3152
2209198929,435543,-0.0303,0.0024,1.0225,0.0610,0.0610,-0.2441,1,483,855,3152
2209203924,435544,-0.0308,0.0015,1.0229,0.0610,0.1221,-0.3662,1,466,869,3152
2209208930,435545,-0.0312,0.0010,1.0220,0.2441,0.1221,-0.3052,1,465,870,3152
2209213928,435546,-0.0322,0.0005,1.0205,0.1221,0.0000,-0.2441,1,466,890,3152
2209218927,435547,-0.0327,0.0010,1.0210,0.1831,0.0000,-0.3052,1,466,825,3152
2209223923,435548,-0.0322,0.0015,1.0220,0.3662,-0.1831,-0.3052,1,466,823,3152
2209228924,435549,-0.0317,0.0020,1.0220,0.3662,-0.1221,-0.3052,1,466,875,3152
2209233929,435550,-0.0322,0.0015,1.0210,0.3052,-0.1221,-0.4272,1,466,872,3152
2209238930,435551,-0.0322,0.0015,1.0200,0.1831,-0.1831,-0.3662,1,466,869,3152
2209243931,435552,-0.0312,0.0024,1.0215,0.2441,-0.0610,-0.3662,1,466,880,3152
2209248946,435553,-0.0303,0.0024,1.0244,0.2441,-0.1221,-0.3662,1,466,904,3152
2209253935,435554,-0.0288,0.0024,1.0249,0.3052,-0.1831,-0.3052,1,466,877,3152
2209258930,435555,-0.0288,0.0029,1.0239,0.2441,0.0000,-0.3052,1,493,877,3152
2209263924,435556,-0.0293,0.0029,1.0229,0.1831,0.0610,-0.4272,1,483,745,3152
2209268928,435557,-0.0293,0.0029,1.0225,0.1221,0.2441,-0.3662,1,467,818,3152
2209273925,435558,-0.0293,0.0024,1.0229,0.1221,0.1831,-0.3662,1,499,797,3152
2209278928,435559,-0.0288,0.0024,1.0234,0.3052,0.1221,-0.3052,1,481,903,3152
2209283927,435560,-0.0293,0.0034,1.0239,0.0610,0.3662,-0.3662,1,486,832,3152
2209288930,435561,-0.0288,0.0039,1.0234,0.0610,0.4883,-0.3662,1,496,869,3152
2209293922,435562,-0.0288,0.0034,1.0225,0.0610,0.3052,-0.3052,1,498,847,3152
2209298922,435563,-0.0298,0.0024,1.0215,0.1221,0.2441,-0.3052,1,485,821,3152
2209303927,435564,-0.0298,0.0020,1.0210,0.0610,0.1831,-0.3052,1,493,824,3152
2209308929,435565,-0.0298,0.0024,1.0220,0.0610,0.3052,-0.3662,1,484,848,3152
2209313923,435566,-0.0298,0.0029,1.0229,0.0000,0.2441,-0.3052,1,466,871,3152
2209318926,435567,-0.0308,0.0024,1.0229,0.0000,0.2441,-0.3052,1,466,829,3152
2209323928,435568,-0.0312,0.0020,1.0225,0.0000,0.2441,-0.3052,1,466,828,3152
2209328928,435569,-0.0308,0.0020,1.0229,-0.0610,0.2441,-0.1831,1,466,852,3152
2209333922,435570,-0.0308,0.0020,1.0239,0.0000,0.4272,-0.1831,1,465,877,3152
2209338926,435571,-0.0308,0.0024,1.0234,0.0000,0.3662,-0.2441,1,466,831,3152
2209343927,435572,-0.0312,0.0029,1.0234,0.0000,0.3052,-0.3052,1,466,832,3152
2209348922,435573,-0.0317,0.0039,1.0239,0.0000,0.4272,-0.2441,1,466,850,3152
2209353923,435574,-0.0308,0.0029,1.0234,-0.0610,0.3052,-0.2441,1,466,836,3152
2209358952,435575,-0.0293,0.0024,1.0234,0.0000,0.3052,-0.2441,1,466,872,3152
2209363937,435576,-0.0288,0.0024,1.0229,0.0000,0.3662,-0.3052,1,466,830,3152
2209368924,435577,-0.0303,0.0024,1.0229,0.0000,0.4883,-0.2441,1,493,832,3152
2209373928,435578,-0.0308,0.0029,1.0239,-0.0610,0.4272,-0.1831,1,496,761,3152
2209378924,435579,-0.0298,0.0034,1.0244,-0.0610,0.4883,-0.2441,1,464,761,3152
2209383926,435580,-0.0288,0.0034,1.0239,-0.0610,0.5493,-0.1831,1,482,857,3152
2209388922,435581,-0.0293,0.0029,1.0229,-0.0610,0.6104,-0.1221,1,489,882,3152
2209393922,435582,-0.0303,0.0029,1.0234,-0.1831,0.5493,-0.2441,1,500,829,3152
2209398925,435583,-0.0303,0.0024,1.0249,-0.1221,0.6104,-0.1831,1,486,840,3152
2209403931,435584,-0.0298,0.0020,1.0239,-0.0610,0.6104,-0.1831,1,492,842,3152
2209408929,435585,-0.0298,0.0015,1.0225,-0.1221,0.5493,-0.2441,1,489,826,3152
2209413928,435586,-0.0312,0.0015,1.0215,-0.1831,0.6104,-0.1831,1,492,826,3152
2209418926,435587,-0.0312,0.0029,1.0210,-0.3052,0.6104,-0.1831,1,483,878,3152
2209423922,435588,-0.0298,0.0034,1.0210,-0.1221,0.6714,-0.2441,1,466,893,3152
2209428926,435589,-0.0288,0.0024,1.0210,0.0000,0.6104,-0.1831,1,465,873,3152
2209433926,435590,-0.0298,0.0005,1.0215,-0.1221,0.5493,-0.2441,1,465,832,3152
2209438929,435591,-0.0303,0.0000,1.0215,-0.0610,0.6104,-0.3052,1,466,871,3152
2209443924,435592,-0.0298,0.0024,1.0225,-0.2441,0.4883,-0.1831,1,466,824,3152
2209448929,435593,-0.0283,0.0039,1.0244,-0.2441,0.5493,-0.2441,1,466,878,3152
2209453931,435594,-0.0273,0.0029,1.0239,-0.1831,0.6714,-0.3052,1,466,888,3152
2209458926,435595,-0.0283,0.0020,1.0229,-0.3052,0.7324,-0.1221,1,466,876,3152
2209463927,435596,-0.0293,0.0020,1.0229,-0.1221,0.6714,-0.1221,1,465,874,3152
2209468926,435597,-0.0298,0.0029,1.0225,-0.1831,0.6714,-0.1221,1,466,868,3152
2209473928,435598,-0.0303,0.0034,1.0229,-0.2441,0.6104,-0.1831,1,492,872,3152
2209478923,435599,-0.0303,0.0039,1.0239,-0.2441,0.6714,-0.2441,1,466,877,3152
2209483925,435600,-0.0303,0.0034,1.0249,-0.2441,0.7935,-0.1831,1,491,876,3152
2209488926,435601,-0.0303,0.0024,1.0244,-0.3662,0.7935,-0.2441,1,512,765,3152
2209493922,435602,-0.0312,0.0020,1.0220,-0.4272,0.6714,-0.2441,1,485,878,3152
2209498923,435603,-0.0317,0.0020,1.0210,-0.3052,0.6104,-0.1221,1,494,899,3152
2209503928,435604,-0.0322,0.0020,1.0215,-0.1831,0.6714,-0.3052,1,503,845,3152
2209508927,435605,-0.0312,0.0020,1.0215,-0.1831,0.6714,-0.1831,1,481,870,3152
2209513930,435606,-0.0303,0.0024,1.0205,-0.2441,0.6104,-0.2441,1,499,898,3152
2209518930,435607,-0.0303,0.0024,1.0210,-0.3662,0.7935,-0.1831,1,477,828,3152
2209523927,435608,-0.0308,0.0024,1.0229,-0.3662,0.6104,-0.1831,1,497,827,3152
2209528928,435609,-0.0308,0.0020,1.0239,-0.2441,0.6104,-0.1221,1,484,856,3152
2209533929,435610,-0.0303,0.0024,1.0229,-0.2441,0.6714,-0.1221,1,466,868,3152
2209538930,435611,-0.0308,0.0020,1.0220,-0.3662,0.7324,-0.1831,1,466,875,3152
2209543924,435612,-0.0317,0.0010,1.0215,-0.3052,0.7935,-0.1831,1,466,876,3152
2209548923,435613,-0.0332,0.0005,1.0210,-0.2441,0.7324,-0.2441,1,466,869,3152
2209553922,435614,-0.0342,0.0005,1.0205,-0.3052,0.6714,-0.2441,1,466,876,3152
2209558926,435615,-0.0332,0.0015,1.0205,-0.1831,0.6714,-0.2441,1,466,868,3152
2209563923,435616,-0.0317,0.0024,1.0210,-0.1831,0.6714,-0.3052,1,466,878,3152
2209568924,435617,-0.0312,0.0024,1.0200,-0.2441,0.5493,-0.2441,1,466,874,3152
2209573926,435618,-0.0322,0.0020,1.0205,-0.2441,0.6714,-0.2441,1,466,907,3152
2209578941,435619,-0.0322,0.0024,1.0215,-0.2441,0.4883,-0.3052,1,466,880,3152
2209583936,435620,-0.0322,0.0020,1.0215,-0.2441,0.4272,-0.3052,1,466,876,3152
2209588923,435621,-0.0317,0.0010,1.0220,-0.1221,0.4883,-0.3052,1,493,875,3152
2209593925,435622,-0.0312,0.0015,1.0229,-0.1221,0.4272,-0.3052,1,483,863,3152
2209598927,435623,-0.0312,0.0024,1.0234,-0.1831,0.4272,-0.3052,1,492,893,3152
2209603929,435624,-0.0308,0.0020,1.0234,-0.1221,0.4272,-0.1831,1,484,827,3152
2209608925,435625,-0.0317,0.0010,1.0229,-0.1221,0.4883,-0.1221,1,489,882,3152
2209613928,435626,-0.0322,0.0005,1.0229,-0.1831,0.4883,-0.3052,1,484,828,3152
2209618930,435627,-0.0322,0.0005,1.0239,-0.1831,0.6104,-0.3662,1,507,832,3152
2209623924,435628,-0.0322,0.0015,1.0239,-0.1831,0.4883,-0.2441,1,486,871,3152
2209628923,435629,-0.0337,0.0020,1.0220,-0.1221,0.3662,-0.2441,1,498,849,3152
2209633926,435630,-0.0337,0.0020,1.0200,0.0610,0.3662,-0.2441,1,499,826,3152
2209638927,435631,-0.0332,0.0024,1.0200,0.0610,0.3662,-0.3052,1,502,826,3152
2209643928,435632,-0.0327,0.0024,1.0225,-0.0610,0.4272,-0.2441,1,483,855,3152
2209648923,435633,-0.0317,0.0015,1.0244,-0.1221,0.4272,-0.1831,1,466,878,3152
2209653925,435634,-0.0317,0.0010,1.0239,-0.1831,0.3662,-0.2441,1,466,878,3152
2209658922,435635,-0.0327,0.0010,1.0225,-0.0610,0.3662,-0.2441,1,465,880,3152
2209663924,435636,-0.0332,0.0020,1.0220,-0.0610,0.3052,-0.2441,1,466,874,3152
2209668925,435637,-0.0327,0.0020,1.0210,0.0610,0.4272,-0.2441,1,466,873,3152
2209673929,435638,-0.0327,0.0015,1.0205,-0.0610,0.3662,-0.1221,1,466,875,3152
2209678925,435639,-0.0322,0.0005,1.0205,-0.0610,0.4272,-0.2441,1,466,873,3152
2209683930,435640,-0.0317,0.0005,1.0195,0.0000,0.4272,-0.3052,1,466,873,3152
2209688930,435641,-0.0322,0.0000,1.0195,0.0000,0.3052,-0.1831,1,466,826,3152
2209693949,435642,-0.0317,0.0005,1.0215,-0.0610,0.3662,-0.1221,1,466,790,3152
2209698935,435643,-0.0312,0.0015,1.0229,-0.0610,0.4272,-0.3662,1,466,868,3152
2209703929,435644,-0.0312,0.0015,1.0229,0.0000,0.3662,-0.3052,1,493,901,3152
2209708931,435645,-0.0317,0.0020,1.0215,0.0000,0.4272,-0.2441,1,487,840,3152
2209713925,435646,-0.0312,0.0029,1.0210,-0.1221,0.5493,-0.1831,1,465,811,3152
2209718930,435647,-0.0312,0.0029,1.0220,-0.2441,0.4272,-0.2441,1,483,822,3152
2209723922,435648,-0.0317,0.0024,1.0229,0.0000,0.5493,-0.2441,1,481,914,3152
2209728929,435649,-0.0317,0.0020,1.0220,-0.0610,0.5493,-0.2441,1,495,828,3152
2209733930,435650,-0.0312,0.0015,1.0210,-0.1831,0.6104,-0.3052,1,496,867,3152
2209738928,435651,-0.0312,0.0015,1.0220,-0.1221,0.6104,-0.1831,1,501,887,3152
2209743926,435652,-0.0322,0.0010,1.0225,0.0000,0.6104,-0.2441,1,508,863,3152
2209748931,435653,-0.0327,0.0000,1.0220,-0.0610,0.5493,-0.1831,1,492,777,3152
2209753930,435654,-0.0317,0.0005,1.0225,-0.0610,0.6104,-0.1221,1,511,791,3152
2209758922,435655,-0.0308,0.0024,1.0234,0.0000,0.6104,-0.1221,1,466,862,3152
2209763925,435656,-0.0308,0.0034,1.0239,-0.0610,0.6714,-0.1831,1,466,824,3152
2209768926,435657,-0.0322,0.0020,1.0229,-0.1831,0.6714,-0.1831,1,466,875,3152
2209773925,435658,-0.0342,0.0000,1.0220,-0.1221,0.6714,-0.1831,1,466,881,3152
2209778927,435659,-0.0352,0.0000,1.0210,-0.1221,0.6104,-0.2441,1,466,831,3152
2209783929,435660,-0.0337,0.0024,1.0215,-0.1221,0.5493,-0.3052,1,466,829,3152
2209788928,435661,-0.0317,0.0029,1.0225,-0.1221,0.6104,-0.2441,1,466,872,3152
2209793928,435662,-0.0312,0.0015,1.0239,-0.1831,0.5493,-0.2441,1,466,872,3152
2209798924,435663,-0.0312,0.0015,1.0239,-0.1221,0.6104,-0.1831,1,466,906,3152
2209803946,435664,-0.0327,0.0024,1.0229,-0.1221,0.7324,-0.1221,1,466,896,3152
2209808922,435665,-0.0327,0.0020,1.0210,-0.1831,0.7324,-0.1831,1,466,877,3152
2209813925,435666,-0.0312,0.0010,1.0205,-0.0610,0.7935,-0.1221,1,493,879,3152
2209818923,435667,-0.0293,0.0005,1.0220,-0.1221,0.7935,-0.1221,1,511,889,3152
2209823924,435668,-0.0303,0.0015,1.0220,-0.1831,0.8545,-0.2441,1,493,777,3152
2209828927,435669,-0.0322,0.0020,1.0220,-0.0610,0.7935,-0.2441,1,511,785,3152
2209833925,435670,-0.0322,0.0020,1.0225,-0.1831,0.7935,-0.0610,1,481,874,3152
2209838929,435671,-0.0322,0.0015,1.0239,-0.1221,0.8545,-0.1221,1,488,835,3152
2209843930,435672,-0.0317,0.0015,1.0259,-0.1221,0.8545,0.0000,1,490,830,3152
2209848924,435673,-0.0312,0.0015,1.0254,-0.1831,0.9766,-0.1221,1,484,776,3152
2209853925,435674,-0.0317,0.0005,1.0244,-0.1831,1.0376,-0.1831,1,494,818,3152
2209858929,435675,-0.0322,0.0005,1.0229,-0.2441,1.0986,-0.1831,1,473,829,3152
2209863930,435676,-0.0327,0.0010,1.0229,-0.2441,1.0376,-0.1221,1,493,832,3152
2209868927,435677,-0.0327,0.0010,1.0225,-0.2441,1.0376,-0.1221,1,483,826,3152
2209873931,435678,-0.0327,0.0010,1.0215,-0.1221,1.0986,-0.2441,1,466,868,3152
2209878923,435679,-0.0332,0.0010,1.0195,-0.1221,1.0986,-0.1221,1,466,871,3152
2209883929,435680,-0.0347,0.0000,1.0181,-0.1221,0.9766,-0.1831,1,466,870,3152
2209888929,435681,-0.0347,0.0005,1.0181,-0.1831,0.9155,-0.2441,1,466,828,3152
2209893928,435682,-0.0332,0.0010,1.0195,-0.1221,0.8545,-0.2441,1,465,873,3152
2209898929,435683,-0.0308,0.0010,1.0220,-0.1221,0.9155,-0.3052,1,466,872,3152
2209903928,435684,-0.0298,-0.0005,1.0239,0.0000,0.9766,-0.0610,1,466,864,3152
2209908922,435685,-0.0308,0.0000,1.0244,0.0000,1.0376,-0.1831,1,466,821,3152
2209913923,435686,-0.0317,0.0015,1.0244,-0.1221,1.0376,-0.2441,1,465,788,3152
2209918924,435687,-0.0327,0.0029,1.0244,-0.1831,0.9766,-0.2441,1,466,875,3152
2209923941,435688,-0.0327,0.0044,1.0244,-0.1221,0.9155,-0.1831,1,466,881,3152
2209928937,435689,-0.0322,0.0049,1.0234,-0.2441,0.9766,-0.2441,1,466,878,3152
2209933924,435690,-0.0327,0.0039,1.0225,-0.1831,1.0986,-0.2441,1,493,879,3152
2209938924,435691,-0.0327,0.0034,1.0229,-0.1831,1.1597,-0.1831,1,483,882,3152
2209943923,435692,-0.0322,0.0024,1.0225,-0.1221,1.2817,-0.1221,1,493,872,3152
2209948927,435693,-0.0317,0.0005,1.0215,-0.1831,1.3428,-0.1221,1,512,761,3152
2209953924,435694,-0.0322,-0.0005,1.0220,-0.2441,1.2817,-0.3052,1,478,881,3152
2209958926,435695,-0.0327,0.0000,1.0229,-0.3052,1.2817,-0.3052,1,506,834,3152
2209963928,435696,-0.0332,0.0005,1.0234,-0.3052,1.0986,-0.1221,1,485,831,3152
2209968930,435697,-0.0342,0.0015,1.0225,-0.3662,1.1597,-0.1831,1,488,838,3152
2209973923,435698,-0.0366,0.0015,1.0200,-0.2441,1.2207,-0.2441,1,491,845,3152
2209978926,435699,-0.0386,0.0005,1.0176,-0.1221,1.1597,-0.1221,1,493,831,3152
2209983923,435700,-0.0376,-0.0015,1.0186,-0.1831,0.9155,-0.1831,1,500,816,3152
2209988925,435701,-0.0352,-0.0020,1.0205,-0.0610,0.7324,-0.3052,1,483,831,3152
2209993928,435702,-0.0337,-0.0005,1.0229,0.0610,0.7324,-0.3052,1,466,869,3152
2209998927,435703,-0.0322,0.0015,1.0239,0.0000,0.7935,-0.2441,1,466,868,3152
2210003924,435704,-0.0322,0.0020,1.0234,-0.1831,0.7935,-0.2441,1,466,833,3152
2210008922,435705,-0.0337,0.0015,1.0220,-0.1221,0.7324,-0.2441,1,466,881,3152
2210013927,435706,-0.0337,0.0015,1.0210,-0.0610,0.7935,-0.3052,1,466,873,3152
2210018930,435707,-0.0342,0.0024,1.0229,-0.1221,0.7935,-0.2441,1,466,864,3152
2210023924,435708,-0.0342,0.0024,1.0239,-0.3052,0.7324,-0.2441,1,466,878,3152
2210028929,435709,-0.0337,0.0020,1.0239,-0.3052,0.8545,-0.2441,1,465,879,3152
2210033929,435710,-0.0332,0.0020,1.0239,-0.4272,0.8545,-0.1831,1,466,873,3152
2210038955,435711,-0.0327,-0.0015,1.0225,-0.4272,1.0376,-0.1831,1,466,881,3152
2210043940,435712,-0.0322,-0.0010,1.0229,-0.4272,1.0986,-0.3052,1,466,877,3152
2210048929,435713,-0.0322,0.0010,1.0249,-0.3052,1.0986,-0.1831,1,466,875,3152
2210053924,435714,-0.0332,0.0020,1.0259,-0.3052,1.2207,-0.1831,1,483,873,3152
2210058928,435715,-0.0332,0.0015,1.0259,-0.3662,1.1597,-0.1831,1,498,753,3152
2210063927,435716,-0.0327,0.0010,1.0249,-0.3662,1.3428,-0.0610,1,482,827,3152
2210068922,435717,-0.0337,0.0010,1.0229,-0.3052,1.3428,-0.1831,1,480,887,3152
2210073924,435718,-0.0342,0.0015,1.0215,-0.4272,1.2207,-0.3052,1,490,832,3152
2210078927,435719,-0.0352,0.0005,1.0220,-0.4883,1.4038,-0.2441,1,494,861,3152
2210083925,435720,-0.0361,0.0000,1.0229,-0.4883,1.3428,-0.1831,1,488,839,3152
2210088930,435721,-0.0356,0.0010,1.0239,-0.4272,1.3428,-0.1831,1,493,793,3152
2210093923,435722,-0.0347,0.0005,1.0239,-0.4272,1.3428,-0.2441,1,492,831,3152
2210098922,435723,-0.0342,0.0000,1.0229,-0.3052,1.3428,-0.2441,1,511,828,3152
2210103928,435724,-0.0342,0.0005,1.0220,-0.3052,1.3428,-0.1221,1,466,834,3152
2210108928,435725,-0.0356,-0.0005,1.0210,-0.3052,1.2817,-0.2441,1,466,864,3152
2210113926,435726,-0.0366,-0.0020,1.0200,-0.3052,1.2207,-0.1831,1,466,872,3152
2210118924,435727,-0.0376,-0.0010,1.0205,-0.1831,1.2207,-0.1831,1,466,875,3152
2210123925,435728,-0.0371,0.0005,1.0215,-0.1831,1.1597,-0.2441,1,466,875,3152
2210128928,435729,-0.0366,-0.0005,1.0215,-0.2441,1.1597,-0.2441,1,466,876,3152
2210133923,435730,-0.0371,-0.0005,1.0200,-0.2441,1.0376,-0.2441,1,466,876,3152
2210138923,435731,-0.0371,-0.0020,1.0195,-0.2441,0.9766,-0.2441,1,466,874,3152
2210143930,435732,-0.0361,-0.0039,1.0210,-0.0610,1.0376,-0.1831,1,466,881,3152
2210148922,435733,-0.0366,-0.0015,1.0229,0.0610,1.1597,-0.2441,1,465,875,3152
2210153923,435734,-0.0366,0.0000,1.0229,-0.1221,0.9155,-0.3662,1,466,877,3152
2210158927,435735,-0.0361,-0.0010,1.0225,-0.0610,0.9766,-0.2441,1,466,839,3152
2210163930,435736,-0.0366,-0.0005,1.0205,0.0000,1.0986,-0.1221,1,510,871,3152
2210168922,435737,-0.0376,0.0000,1.0200,-0.0610,1.0986,-0.2441,1,493,739,3152
2210173927,435738,-0.0376,-0.0010,1.0210,0.0000,0.8545,-0.1831,1,483,841,3152
2210178925,435739,-0.0371,-0.0010,1.0210,0.1221,1.0986,-0.2441,1,491,783,3152
2210183927,435740,-0.0361,-0.0005,1.0210,0.0000,0.8545,-0.1831,1,490,831,3152
2210188929,435741,-0.0356,0.0000,1.0220,0.1831,0.8545,-0.1221,1,491,821,3152
2210193929,435742,-0.0356,0.0010,1.0229,0.2441,0.9766,-0.2441,1,493,803,3152
2210198924,435743,-0.0366,0.0000,1.0225,0.1221,0.9155,-0.3052,1,498,846,3152
2210203929,435744,-0.0356,-0.0034,1.0220,0.1831,0.9155,-0.1831,1,483,784,3152
2210208925,435745,-0.0342,-0.0039,1.0220,0.3662,1.1597,-0.1221,1,502,836,3152
2210213923,435746,-0.0347,-0.0005,1.0229,0.2441,1.0376,-0.0610,1,483,827,3152
2210218923,435747,-0.0356,0.0000,1.0234,0.1221,1.0986,-0.1831,1,465,872,3152
2210223925,435748,-0.0356,-0.0005,1.0244,0.3052,1.0376,-0.1831,1,466,839,3152
2210228926,435749,-0.0356,-0.0005,1.0239,0.3662,1.0376,-0.2441,1,465,872,3152
2210233924,435750,-0.0366,0.0000,1.0225,0.1221,1.0986,-0.3052,1,466,878,3152
2210238930,435751,-0.0371,-0.0010,1.0220,0.3662,0.9155,-0.2441,1,466,831,3152
2210243923,435752,-0.0361,-0.0010,1.0229,0.3662,1.1597,-0.1831,1,466,877,3152
2210248927,435753,-0.0356,0.0015,1.0225,0.2441,1.3428,-0.2441,1,466,879,3152
2210253923,435754,-0.0366,0.0029,1.0225,0.1831,1.1597,-0.2441,1,466,879,3152
2210258928,435755,-0.0366,0.0005,1.0239,0.1831,0.9155,-0.1221,1,466,879,3152
2210263938,435756,-0.0352,-0.0015,1.0249,0.3662,1.3428,-0.1221,1,466,873,3152
2210268928,435757,-0.0347,-0.0010,1.0229,0.3662,1.6479,-0.2441,1,493,872,3152
2210273929,435758,-0.0361,-0.0010,1.0215,0.3052,1.5869,-0.3052,1,484,877,3152
2210278925,435759,-0.0371,-0.0034,1.0215,0.2441,1.5259,-0.2441,1,493,856,3152
2210283922,435760,-0.0371,-0.0039,1.0210,0.4272,1.5259,-0.1831,1,510,768,3152
2210288926,435761,-0.0371,-0.0010,1.0210,0.6104,1.6479,-0.1831,1,491,878,3152
2210293928,435762,-0.0386,0.0005,1.0205,0.4883,1.5259,-0.2441,1,491,832,3152
2210298924,435763,-0.0391,0.0005,1.0190,0.5493,1.4648,-0.2441,1,495,839,3152
2210303930,435764,-0.0400,0.0000,1.0176,0.5493,1.4648,-0.1831,1,503,842,3152
2210308931,435765,-0.0400,0.0005,1.0181,0.4272,1.3428,-0.0610,1,480,791,3152
2210313925,435766,-0.0396,0.0015,1.0195,0.6104,1.2817,-0.1831,1,498,818,3152
2210318924,435767,-0.0386,0.0005,1.0205,0.6714,1.2207,-0.1831,1,511,827,3152
2210323930,435768,-0.0376,-0.0020,1.0210,0.7324,1.2207,-0.1831,1,466,869,3152
2210328925,435769,-0.0381,-0.0015,1.0205,0.7324,1.2817,-0.1221,1,465,875,3152
2210333926,435770,-0.0386,0.0000,1.0195,0.7935,1.1597,0.0610,1,466,872,3152
2210338924,435771,-0.0391,0.0000,1.0195,0.7935,1.1597,-0.1831,1,466,832,3152
2210343927,435772,-0.0396,-0.0010,1.0210,0.7935,1.0986,-0.1831,1,465,834,3152
2210348931,435773,-0.0391,-0.0010,1.0215,0.7935,1.0986,-0.1831,1,466,872,3152
2210353922,435774,-0.0391,0.0005,1.0215,0.6714,0.9766,-0.1221,1,466,869,3152
2210358926,435775,-0.0410,0.0010,1.0200,0.7324,0.7935,-0.1831,1,466,859,3152
2210363924,435776,-0.0386,-0.0024,1.0205,0.9155,0.6104,-0.1831,1,466,872,3152
2210368932,435777,-0.0356,-0.0049,1.0229,0.9766,1.2817,-0.1221,1,466,877,3152
2210373929,435778,-0.0371,-0.0015,1.0225,1.0986,1.1597,-0.0610,1,466,877,3152
2210378923,435779,-0.0396,0.0020,1.0205,0.9766,1.0376,-0.1221,1,492,873,3152
2210383931,435780,-0.0400,0.0024,1.0200,1.0376,0.9766,-0.0610,1,511,866,3152
2210388922,435781,-0.0400,0.0029,1.0186,0.9766,1.0986,0.0610,1,489,812,3152
2210393930,435782,-0.0396,0.0020,1.0195,0.9766,0.9155,0.0000,1,511,783,3152
2210398929,435783,-0.0371,0.0005,1.0220,1.0986,1.0986,-0.0610,1,484,788,3152
2210403923,435784,-0.0366,0.0010,1.0225,1.1597,1.2207,0.0610,1,491,831,3152
2210408924,435785,-0.0386,0.0020,1.0225,1.0376,1.1597,-0.0610,1,486,831,3152
2210413926,435786,-0.0381,0.0010,1.0215,0.9766,1.1597,0.0000,1,504,794,3152
2210418925,435787,-0.0371,0.0020,1.0205,1.0986,1.2207,0.0610,1,489,772,3152
2210423925,435788,-0.0361,0.0049,1.0210,0.9766,1.3428,0.0610,1,492,827,3152
2210428930,435789,-0.0361,0.0083,1.0229,0.7935,1.5869,0.1221,1,510,822,3152
2210433925,435790,-0.0371,0.0073,1.0229,0.6714,1.7700,0.1221,1,465,878,3152
2210438922,435791,-0.0391,0.0029,1.0215,0.4883,2.0142,0.1221,1,466,876,3152
2210443923,435792,-0.0405,0.0029,1.0205,0.4883,1.9531,0.1831,1,466,866,3152
2210448930,435793,-0.0396,0.0054,1.0215,0.3662,1.8921,0.1221,1,465,878,3152
2210453927,435794,-0.0376,0.0039,1.0234,0.3052,2.0142,0.1831,1,466,868,3152
2210458930,435795,-0.0381,0.0020,1.0239,0.4883,2.0142,0.3052,1,466,874,3152
2210463924,435796,-0.0415,0.0015,1.0220,0.4272,1.8311,0.1831,1,466,868,3152
2210468927,435797,-0.0410,0.0000,1.0210,0.2441,1.5259,0.1831,1,466,875,3152
2210473926,435798,-0.0371,-0.0034,1.0225,0.6714,1.6479,0.2441,1,466,836,3152
2210478932,435799,-0.0405,-0.0044,1.0200,0.8545,1.6479,0.1831,1,466,880,3152
2210483925,435800,-0.0444,-0.0029,1.0171,0.7324,1.0376,0.1831,1,466,874,3152
2210488930,435801,-0.0415,0.0010,1.0186,0.9766,1.2817,0.1221,1,492,874,3152
2210493930,435802,-0.0405,0.0054,1.0186,0.9155,1.5259,0.1831,1,469,811,3152
2210498925,435803,-0.0410,0.0073,1.0181,0.7324,1.4038,0.3052,1,506,785,3152
2210503926,435804,-0.0405,0.0098,1.0186,0.6104,1.4038,0.3052,1,491,850,3152
2210508926,435805,-0.0410,0.0132,1.0186,0.2441,1.5869,0.1831,1,474,827,3152
2210513930,435806,-0.0430,0.0112,1.0151,-0.1221,1.5869,0.1221,1,480,842,3152
2210518929,435807,-0.0420,0.0063,1.0117,-0.3052,1.5259,0.2441,1,496,839,3152
2210523927,435808,-0.0415,0.0068,1.0088,-0.3662,1.7090,0.3052,1,483,828,3152
2210528926,435809,-0.0474,0.0039,1.0049,-0.6714,1.7090,0.1831,1,491,823,3152
2210533929,435810,-0.0503,-0.0034,1.0068,-0.6714,1.0376,0.2441,1,500,825,3152
2210538929,435811,-0.0430,0.0005,1.0156,-0.4272,0.8545,0.3662,1,484,826,3152
2210543929,435812,-0.0376,0.0107,1.0171,-0.7324,1.6479,0.3052,1,466,871,3152
2210548927,435813,-0.0425,0.0073,1.0103,-1.4038,1.7700,0.3052,1,466,874,3152
2210553923,435814,-0.0479,-0.0068,1.0073,-1.0376,1.1597,0.3052,1,466,870,3152
2210558923,435815,-0.0469,-0.0146,1.0078,-0.5493,0.6714,0.2441,1,466,871,3152
2210563930,435816,-0.0449,-0.0093,1.0049,0.0000,1.1597,0.2441,1,466,881,3152
2210568924,435817,-0.0454,0.0020,1.0005,-0.1221,1.0986,0.1831,1,466,828,3152
2210573930,435818,-0.0459,0.0093,1.0010,-0.1221,0.9766,0.0610,1,466,872,3152
2210578924,435819,-0.0405,0.0078,1.0088,-0.3662,1.1597,-0.0610,1,466,862,3152
2210583923,435820,-0.0322,0.0015,1.0161,-0.1221,2.1973,-0.1221,1,466,873,3152
2210588940,435821,-0.0327,-0.0039,1.0112,0.1221,3.4790,-0.1831,1,466,873,3152
2210593922,435822,-0.0405,-0.0078,1.0010,0.3662,3.7231,-0.1221,1,466,882,3152
2210598926,435823,-0.0449,-0.0117,0.9927,0.7935,3.9062,-0.0610,1,510,874,3152
2210603926,435824,-0.0459,-0.0146,0.9897,1.5259,4.5776,-0.0610,1,487,866,3152
2210608930,435825,-0.0435,-0.0137,0.9917,2.0142,5.0049,0.0000,1,511,872,3152
2210613922,435826,-0.0396,-0.0034,0.9990,2.3193,5.7983,0.2441,1,477,786,3152
2210618928,435827,-0.0400,0.0132,1.0078,1.9531,6.1646,0.4883,1,509,896,3152
2210623929,435828,-0.0376,0.0210,1.0161,1.1597,6.1646,0.6104,1,488,845,3152
2210628930,435829,-0.0352,0.0142,1.0229,0.7324,7.3853,0.7935,1,495,871,3152
2210633924,435830,-0.0400,0.0049,1.0269,0.7935,7.8735,0.7935,1,483,833,3152
2210638930,435831,-0.0430,-0.0020,1.0332,0.5493,7.3853,1.0376,1,492,825,3152
2210643930,435832,-0.0400,-0.0049,1.0405,0.6104,7.5073,1.0376,1,511,829,3152
2210648924,435833,-0.0376,-0.0015,1.0454,0.6714,7.6904,1.0986,1,466,822,3152
2210653924,435834,-0.0405,0.0059,1.0454,0.5493,7.6294,0.9766,1,466,874,3152
2210658924,435835,-0.0469,0.0117,1.0435,0.3662,7.2021,0.6714,1,466,874,3152
2210663922,435836,-0.0503,0.0093,1.0420,0.2441,6.3477,0.3662,1,466,877,3152
2210668925,435837,-0.0513,0.0015,1.0376,0.3662,6.1035,0.1221,1,466,874,3152
2210673929,435838,-0.0591,0.0010,1.0293,0.7935,5.5542,-0.2441,1,465,872,3152
2210678924,435839,-0.0693,0.0083,1.0200,0.7935,4.4556,-0.5493,1,466,869,3152
2210683922,435840,-0.0728,0.0117,1.0151,0.3052,3.5400,-0.8545,1,466,879,3152
2210688926,435841,-0.0703,0.0078,1.0156,0.3662,2.6245,-1.0376,1,466,875,3152
2210693923,435842,-0.0679,0.0054,1.0171,0.4883,2.0142,-1.0986,1,466,880,3152
2210698957,435843,-0.0708,0.0078,1.0146,0.3052,1.0986,-1.2207,1,466,869,3152
2210703923,435844,-0.0771,0.0107,1.0088,0.1831,-0.1221,-1.3428,1,466,876,3152
2210708925,435845,-0.0820,0.0122,1.0044,-0.1221,-1.3428,-1.2207,1,510,876,3152
2210713926,435846,-0.0762,0.0151,1.0127,-0.6714,-2.6855,-1.0986,1,494,863,3152
2210718928,435847,-0.0601,0.0190,1.0298,-1.2817,-3.5400,-0.9155,1,512,871,3152
2210723923,435848,-0.0479,0.0210,1.0400,-1.9531,-3.5400,-0.6714,1,486,887,3152
2210728927,435849,-0.0449,0.0171,1.0400,-2.6855,-3.8452,-0.7324,1,477,837,3152
2210733929,435850,-0.0488,0.0083,1.0347,-2.8076,-4.2114,-0.6714,1,484,855,3152
2210738922,435851,-0.0518,0.0020,1.0293,-2.6855,-4.8218,-0.4272,1,491,881,3152
2210743924,435852,-0.0508,0.0005,1.0259,-2.7466,-5.0659,-0.3662,1,508,832,3152
2210748924,435853,-0.0518,0.0000,1.0215,-2.5635,-5.1270,-0.4272,1,510,825,3152
2210753923,435854,-0.0557,-0.0010,1.0171,-2.4414,-5.5542,-0.4272,1,510,792,3152
2210758925,435855,-0.0562,-0.0020,1.0171,-2.5024,-5.9204,-0.4272,1,466,873,3152
2210763924,435856,-0.0522,-0.0024,1.0210,-2.4414,-6.2866,-0.4272,1,466,877,3152
2210768927,435857,-0.0488,-0.0073,1.0249,-2.1362,-6.4087,-0.3662,1,466,887,3152
2210773925,435858,-0.0464,-0.0146,1.0239,-1.6479,-6.4087,-0.3052,1,466,888,3152
2210778926,435859,-0.0449,-0.0156,1.0215,-1.0376,-6.3477,-0.3662,1,466,883,3152
2210783928,435860,-0.0469,-0.0073,1.0200,-0.5493,-6.3477,-0.4883,1,466,883,3152
2210788931,435861,-0.0513,0.0010,1.0186,-0.4272,-6.5308,-0.6714,1,465,876,3152
2210793926,435862,-0.0532,0.0010,1.0181,-0.3052,-7.2021,-0.6714,1,466,870,3152
2210798927,435863,-0.0581,-0.0005,1.0161,-0.0610,-7.3853,-0.9766,1,466,870,3152
2210803930,435864,-0.0688,0.0039,1.0098,0.3662,-8.1177,-1.3428,1,466,872,3152
2210808927,435865,-0.0747,0.0117,1.0049,0.3662,-9.4604,-1.8311,1,466,879,3152
2210813923,435866,-0.0767,0.0146,1.0034,0.3052,-10.6812,-2.6245,1,492,879,3152
2210818927,435867,-0.0801,0.0107,1.0034,0.4883,-12.3901,-3.2349,1,510,897,3152
2210823930,435868,-0.0723,0.0054,1.0093,0.7324,-14.4043,-3.6621,1,483,881,3152
2210828929,435869,-0.0601,0.0010,1.0146,0.9155,-15.1367,-4.2114,1,512,881,3152
2210833922,435870,-0.0669,-0.0039,1.0049,1.2207,-17.7002,-4.3335,1,473,875,3152
2210838925,435871,-0.0571,-0.0137,1.0107,1.6479,-18.7378,-4.2114,1,483,844,3152
2210843928,435872,-0.0508,-0.0142,1.0127,2.0752,-19.2871,-4.0894,1,486,859,3152
2210848925,435873,-0.0469,-0.0039,1.0132,2.0752,-20.2637,-4.0283,1,488,858,3152
2210853926,435874,-0.0361,0.0029,1.0200,2.1362,-20.6299,-3.9062,1,491,887,3152
2210858926,435875,-0.0220,0.0029,1.0288,2.2583,-20.2637,-4.0283,1,489,852,3152
2210863927,435876,-0.0132,0.0015,1.0332,2.3193,-19.3481,-4.0894,1,505,852,3152
2210868929,435877,-0.0156,0.0015,1.0303,2.4414,-18.7378,-4.1504,1,484,844,3152
2210873923,435878,-0.0205,0.0020,1.0273,2.5024,-18.6157,-4.2114,1,466,885,3152
2210878926,435879,-0.0166,0.0034,1.0283,2.5024,-18.1885,-4.2114,1,466,896,3152
2210883930,435880,-0.0073,0.0054,1.0303,2.4414,-17.5171,-4.0894,1,465,897,3152
2210888928,435881,0.0000,0.0049,1.0322,2.3193,-16.7236,-3.8452,1,466,884,3152
2210893930,435882,0.0044,0.0044,1.0347,2.3193,-15.5029,-3.7231,1,465,855,3152
2210898924,435883,0.0034,0.0068,1.0342,2.1973,-14.6484,-3.7231,1,466,897,3152
2210903924,435884,0.0000,0.0083,1.0303,2.1973,-13.9770,-3.5400,1,466,903,3152
2210908926,435885,-0.0024,0.0073,1.0264,2.1362,-13.2446,-3.6011,1,466,854,3152
2210913928,435886,-0.0034,0.0049,1.0254,2.1362,-12.5732,-3.3569,1,466,899,3152
2210918937,435887,-0.0005,0.0029,1.0269,2.1973,-12.0850,-3.4180,1,466,902,3152
2210923924,435888,0.0020,0.0010,1.0259,2.2583,-11.1084,-3.5400,1,466,887,3152
2210928926,435889,0.0000,-0.0010,1.0215,2.5024,-10.8032,-3.4180,1,509,887,3152
2210933923,435890,-0.0083,-0.0024,1.0127,2.9907,-10.4370,-3.7231,1,474,734,3152
2210938925,435891,-0.0249,-0.0010,1.0029,3.4180,-10.6201,-4.0283,1,512,889,3152
2210943928,435892,-0.0337,-0.0029,1.0010,3.4790,-11.9629,-4.2114,1,488,791,3152
2210948925,435893,-0.0225,-0.0103,1.0093,4.1504,-12.6953,-4.5776,1,491,904,3152
2210953923,435894,-0.0054,-0.0137,1.0186,4.9438,-12.5732,-4.9438,1,495,859,3152
2210958929,435895,0.0078,-0.0083,1.0254,5.5542,-12.3901,-5.2490,1,501,871,3152
2210963924,435896,0.0176,0.0054,1.0312,5.7983,-12.0239,-5.6763,1,496,894,3152
2210968930,435897,0.0254,0.0186,1.0371,5.3101,-11.2305,-5.8594,1,486,898,3152
2210973928,435898,0.0239,0.0239,1.0376,4.7607,-9.9487,-6.0425,1,492,847,3152
2210978924,435899,0.0181,0.0229,1.0342,4.3945,-10.0098,-6.0425,1,511,839,3152
2210983930,435900,0.0176,0.0220,1.0327,3.9062,-9.5215,-6.0425,1,466,884,3152
2210988926,435901,0.0176,0.0254,1.0303,3.4790,-8.5449,-5.9814,1,466,880,3152
2210993929,435902,0.0122,0.0293,1.0273,2.6245,-8.4839,-5.5542,1,465,884,3152
2210998924,435903,0.0044,0.0264,1.0234,1.8921,-8.6060,-4.7607,1,465,888,3152
2211003927,435904,-0.0024,0.0200,1.0195,1.3428,-9.0332,-3.8452,1,466,875,3152
2211008927,435905,-0.0039,0.0146,1.0166,1.0376,-9.4604,-3.2349,1,466,885,3152
2211013924,435906,-0.0083,0.0098,1.0142,0.9766,-9.5825,-2.8687,1,465,882,3152
2211018928,435907,-0.0176,0.0098,1.0137,0.8545,-10.6812,-2.5024,1,466,875,3152
2211023922,435908,-0.0283,0.0107,1.0103,0.7935,-11.9629,-2.3804,1,466,891,3152
2211028924,435909,-0.0352,0.0083,1.0078,0.8545,-13.9160,-2.1973,1,466,895,3152
2211033937,435910,-0.0327,0.0044,1.0083,1.0376,-15.8691,-2.0752,1,466,896,3152
2211038929,435911,-0.0327,0.0015,1.0073,1.2817,-17.5781,-2.0752,1,466,897,3152
2211043929,435912,-0.0347,0.0005,1.0068,1.5869,-19.8364,-2.0752,1,510,890,3152
2211048930,435913,-0.0337,0.0005,1.0103,1.8921,-22.2168,-1.8921,1,493,874,3152
2211053930,435914,-0.0312,0.0015,1.0132,2.1362,-24.4141,-1.8311,1,511,789,3152
2211058922,435915,-0.0288,0.0029,1.0186,2.4414,-26.5503,-1.7090,1,499,806,3152
2211063930,435916,-0.0225,0.0068,1.0249,2.6855,-29.3579,-1.7700,1,509,857,3152
2211068922,435917,-0.0166,0.0103,1.0264,2.8076,-31.7383,-2.3193,1,486,864,3152
2211073922,435918,-0.0181,0.0176,1.0249,3.0518,-34.1797,-3.1738,1,477,826,3152
2211078928,435919,-0.0210,0.0278,1.0269,2.4414,-37.1094,-3.7231,1,483,845,3152
2211083927,435920,-0.0151,0.0293,1.0332,1.6479,-40.4053,-3.8452,1,509,849,3152
2211088929,435921,-0.0049,0.0342,1.0381,1.0986,-42.7856,-3.9062,1,511,857,3152
2211093923,435922,-0.0005,0.0420,1.0405,0.0000,-45.1660,-3.6621,1,466,893,3152
2211098928,435923,0.0005,0.0469,1.0415,-1.4038,-47.7295,-3.1738,1,466,846,3152
2211103928,435924,0.0015,0.0508,1.0425,-2.9297,-49.5605,-1.8921,1,466,893,3152
2211108930,435925,-0.0015,0.0547,1.0474,-4.8828,-51.3306,-0.7324,1,466,889,3152
2211113922,435926,0.0059,0.0566,1.0547,-6.7749,-54.9316,0.9155,1,466,894,3152
2211118928,435927,0.0205,0.0552,1.0581,-8.3008,-56.2744,1.9531,1,466,900,3152
2211123926,435928,0.0166,0.0581,1.0547,-10.1318,-57.7393,2.7466,1,466,901,3152
2211128923,435929,-0.0229,0.0605,1.0449,-11.7187,-59.9976,3.7231,1,466,922,3152
2211133928,435930,-0.0820,0.0640,1.0352,-13.8550,-66.5283,5.2490,1,465,928,3152
2211138922,435931,-0.1235,0.0664,1.0361,-16.0522,-75.6836,6.4087,1,466,915,3152
2211143938,435932,-0.1533,0.0640,1.0415,-17.8833,-86.6699,6.7139,1,466,910,3152
2211148922,435933,-0.2085,0.0732,1.0474,-20.2637,-98.3887,5.7373,1,465,921,3152
2211153922,435934,-0.2949,0.0923,1.0601,-23.6206,-116.8823,4.8828,1,466,920,3152
2211158925,435935,-0.3882,0.1123,1.0718,-27.7100,-138.7329,4.2114,1,510,928,3152
2211163922,435936,-0.4624,0.1382,1.0928,-32.5928,-163.0249,3.6011,1,494,926,3152
2211168922,435937,-0.5361,0.1875,1.1357,-40.4663,-193.4204,2.3193,1,510,904,3152
2211173928,435938,-0.5869,0.2451,1.2017,-52.4292,-233.0322,1.0376,1,482,818,3152
2211178922,435939,-0.5840,0.2773,1.2803,-65.6128,-274.4751,0.6104,1,479,936,3152
2211183923,435940,-0.6094,0.3413,1.3809,-82.0923,-311.9507,-0.6104,1,497,870,3152
2211188927,435941,-0.6997,0.4722,1.5137,-104.1260,-353.8818,-1.8921,1,496,880,3152
2211193928,435942,-0.7734,0.5894,1.6597,-132.0801,-398.9868,-6.9580,1,491,901,3152
2211198922,435943,-0.7246,0.5996,1.7593,-166.3818,-449.9511,-16.1743,1,507,892,3152
2211203924,435944,-0.7285,0.5093,1.8203,-200.9888,-484.1308,-31.1279,1,507,907,3152
2211208923,435945,-0.9072,0.4336,1.8521,-227.9053,-528.1372,-45.0439,1,484,903,3152
2211213925,435946,-0.9961,0.3848,1.7573,-250.4272,-585.7544,-51.0864,1,466,942,3152
2211218925,435947,-0.9409,0.2437,1.5444,-277.5269,-624.2676,-62.0117,1,466,945,3152
2211223925,435948,-0.8760,0.0347,1.2539,-291.3208,-662.3535,-76.7212,1,466,940,3152
2211228924,435949,-0.8027,-0.1763,0.8862,-285.6445,-704.7119,-86.3037,1,466,939,3152
2211233923,435950,-0.7383,-0.3721,0.6162,-275.0854,-739.5629,-96.0693,1,466,946,3152
2211238931,435951,-0.5718,-0.3052,0.6719,-254.4556,-773.9257,-99.8535,1,466,946,3152
2211243923,435952,-0.1567,0.0757,0.7622,-228.0884,-771.9116,-90.7593,1,466,952,3152
2211248922,435953,0.8164,-0.0396,1.0845,-218.2007,-733.8867,-84.7168,1,466,946,3152
2211253926,435954,2.5908,-0.8457,2.7407,-174.2554,-625.4272,-82.8857,1,466,945,3152
2211258939,435955,3.9907,-1.4526,5.1357,-101.7456,-426.0254,-88.0127,1,466,957,3152
2211263927,435956,3.3833,-1.5073,6.2900,-52.2461,-208.8013,-96.4966,1,466,954,3152
2211268929,435957,1.0269,-1.2173,5.6357,-15.0146,-64.5752,-92.3462,1,466,946,3152
2211273924,435958,-1.0991,-0.7925,4.2188,12.8784,-17.7612,-75.3784,1,470,940,3152
2211278923,435959,-1.6929,-0.4492,3.1504,28.7476,5.8594,-61.2183,1,512,969,3152
2211283925,435960,-1.3037,-0.2534,2.5894,49.5605,44.3115,-55.9692,1,474,820,3152
2211288922,435961,-0.9727,-0.0771,2.1777,68.4204,70.0073,-54.6265,1,507,840,3152
2211293930,435962,-1.0122,0.1353,1.7524,78.3081,76.7212,-58.9600,1,496,889,3152
2211298930,435963,-1.1768,0.3267,1.4009,80.7495,73.9746,-66.4062,1,490,894,3152
2211303923,435964,-1.2227,0.4438,1.2158,79.1016,71.3501,-75.7446,1,498,928,3152
2211308929,435965,-1.1392,0.4893,1.1885,73.5474,74.7070,-87.7075,1,491,875,3152
2211313931,435966,-1.0264,0.4854,1.2500,66.1011,82.7637,-100.3418,1,511,878,3152
2211318925,435967,-0.9380,0.4482,1.3379,57.9834,94.1772,-112.8540,1,466,923,3152
2211323925,435968,-0.8730,0.3857,1.4248,49.6216,110.3516,-124.5727,1,466,951,3152
2211328924,435969,-0.8169,0.2954,1.4946,43.5181,129.1504,-134.6436,1,466,956,3152
2211333928,435970,-0.7666,0.1777,1.5337,40.1001,149.3530,-142.6392,1,466,937,3152
2211338927,435971,-0.7319,0.0435,1.5386,40.2832,169.1894,-147.6440,1,466,927,3152
2211343929,435972,-0.7192,-0.0942,1.5181,43.6401,187.0117,-149.3530,1,466,942,3152
2211348924,435973,-0.7144,-0.2295,1.4917,49.1333,201.9043,-147.7661,1,466,944,3152
2211353925,435974,-0.6895,-0.3647,1.4761,56.0913,214.9658,-143.2495,1,466,942,3152
2211358924,435975,-0.6475,-0.5024,1.4692,64.5752,228.3935,-135.7422,1,466,949,3152
2211363923,435976,-0.6064,-0.6294,1.4531,74.3408,241.2720,-125.7324,1,465,944,3152
2211368925,435977,-0.5630,-0.7314,1.4146,83.8623,253.3569,-113.5864,1,465,951,3152
2211373924,435978,-0.5132,-0.8003,1.3569,92.1631,265.4419,-99.9756,1,466,958,3152
2211378928,435979,-0.4712,-0.8262,1.2856,99.1211,276.6113,-86.2427,1,473,932,3152
2211383924,435980,-0.4409,-0.8052,1.2061,102.7222,285.5835,-73.0591,1,513,938,3152
2211388928,435981,-0.4111,-0.7500,1.1201,101.8677,291.9922,-60.7910,1,480,810,3152
2211393922,435982,-0.3774,-0.6826,1.0361,96.9849,296.2646,-49.9878,1,503,823,3152
2211398923,435983,-0.3340,-0.6182,0.9692,88.2568,298.4009,-40.7104,1,491,970,3152
2211403924,435984,-0.2827,-0.5640,0.9243,76.8433,299.2554,-32.6538,1,491,895,3152
2211408928,435985,-0.2290,-0.5210,0.8989,63.4766,299.3164,-25.6958,1,478,856,3152
2211413929,435986,-0.1782,-0.4966,0.8955,48.7061,299.0112,-19.5312,1,477,893,3152
2211418923,435987,-0.1377,-0.4922,0.9165,33.5693,298.9502,-13.6108,1,511,936,3152
2211423923,435988,-0.1094,-0.5054,0.9619,19.4702,298.4009,-7.1411,1,466,931,3152
2211428926,435989,-0.0820,-0.5303,1.0308,6.4087,297.5464,0.4272,1,466,907,3152
2211433924,435990,-0.0498,-0.5591,1.1201,-4.5776,297.4243,8.7891,1,466,892,3152
2211438922,435991,-0.0156,-0.5806,1.2256,-13.4277,298.5229,17.7612,1,466,906,3152
2211443930,435992,0.0239,-0.5840,1.3457,-21.1792,301.2085,26.9775,1,466,936,3152
2211448927,435993,0.0771,-0.5684,1.4727,-27.7100,306.3354,36.3159,1,466,937,3152
2211453926,435994,0.1309,-0.5396,1.5903,-33.1421,313.9648,45.2881,1,466,933,3152
2211458930,435995,0.1636,-0.4932,1.6865,-37.4146,321.7163,53.3447,1,466,929,3152
2211463922,435996,0.1885,-0.4321,1.7637,-41.2598,329.0405,60.5469,1,466,941,3152
2211468930,435997,0.2256,-0.3735,1.8311,-45.1660,337.0971,66.8945,1,466,940,3152
2211473922,435998,0.2705,-0.3267,1.8872,-48.2178,346.5576,72.2046,1,466,942,3152
2211478923,435999,0.3027,-0.2778,1.9224,-49.4385,356.2011,76.7822,1,492,938,3152
2211483927,436000,0.3101,-0.2124,1.9336,-50.2930,364.1967,80.0171,1,474,943,3152
2211488925,436001,0.3037,-0.1323,1.9360,-51.4526,369.9951,81.6040,1,510,929,3152
2211493923,436002,0.3140,-0.0542,1.9487,-52.9785,373.7793,81.9702,1,476,889,3152
2211498923,436003,0.3545,0.0044,1.9707,-54.0771,378.2348,81.1768,1,504,835,3152
2211503926,436004,0.4014,0.0430,1.9854,-54.0771,383.3618,79.4067,1,506,948,3152
2211508924,436005,0.4302,0.0703,1.9854,-53.0395,387.6342,76.8433,1,507,894,3152
2211513930,436006,0.4399,0.0952,1.9849,-51.3306,390.1977,73.6694,1,476,904,3152
2211518926,436007,0.4458,0.1206,1.9966,-48.8281,391.2353,69.8853,1,509,910,3152
2211523930,436008,0.4668,0.1445,2.0181,-45.8374,391.1133,65.6738,1,510,899,3152
2211528927,436009,0.5049,0.1548,2.0420,-42.4194,390.7470,60.3027,1,466,893,3152
2211533925,436010,0.5503,0.1401,2.0620,-38.0249,390.0757,54.5044,1,466,939,3152
2211538923,436011,0.5962,0.0986,2.0776,-32.7148,388.9160,49.1943,1,466,931,3152
2211543926,436012,0.6362,0.0435,2.0874,-26.9775,387.8174,44.4946,1,466,943,3152
2211548926,436013,0.6641,-0.0073,2.0918,-21.5454,386.1694,40.4053,1,466,949,3152
2211553926,436014,0.6865,-0.0439,2.0952,-17.7002,382.9956,36.6821,1,466,938,3152
2211558927,436015,0.7197,-0.0684,2.1050,-16.1743,379.3945,33.2642,1,466,932,3152
2211563922,436016,0.7754,-0.0854,2.1274,-17.0288,376.0376,29.7241,1,466,935,3152
2211568926,436017,0.8394,-0.0977,2.1592,-19.8364,373.5351,26.1841,1,466,942,3152
2211573940,436018,0.8867,-0.1001,2.1880,-24.5972,370.9106,21.9116,1,466,936,3152
2211578927,436019,0.9243,-0.0869,2.2090,-31.9824,365.2343,17.8223,1,466,941,3152
2211583928,436020,0.9917,-0.0762,2.2285,-42.8467,359.1308,13.9160,1,509,942,3152
2211588925,436021,1.0991,-0.0850,2.2373,-54.3213,355.4077,10.5591,1,467,943,3152
2211593928,436022,1.2095,-0.1147,2.2104,-64.9414,353.0883,8.3618,1,511,941,3152
2211598930,436023,1.2900,-0.1533,2.1304,-73.9136,349.5483,7.3242,1,482,815,3152
2211603926,436024,1.3442,-0.1885,2.0000,-80.3833,343.5669,7.6294,1,506,822,3152
2211608929,436025,1.3921,-0.2144,1.8359,-84.4116,334.7168,9.2163,1,493,883,3152
2211613923,436026,1.4438,-0.2246,1.6572,-86.4258,323.0591,11.7798,1,493,893,3152
2211618930,436027,1.4941,-0.2095,1.4805,-86.8530,308.5327,14.8315,1,494,931,3152
2211623928,436028,1.6089,-0.1099,1.1792,-85.7544,272.5830,19.9585,1,492,911,3152
2211628923,436029,1.6938,-0.0386,1.0581,-84.8999,253.2348,20.9961,1,510,880,3152
2211633925,436030,1.7979,0.0298,0.9468,-83.3740,232.8491,20.3857,1,466,944,3152
2211638928,436031,1.9136,0.0957,0.8394,-80.1392,211.4868,17.3950,1,466,944,3152
2211643928,436032,2.0352,0.1680,0.7329,-76.4771,189.6973,11.8408,1,466,932,3152
2211648926,436033,2.1626,0.2466,0.6289,-72.0215,166.9922,3.9673,1,466,939,3152
2211653924,436034,2.2915,0.3188,0.5259,-68.0542,144.4092,-5.4932,1,466,921,3152
2211658926,436035,2.4009,0.3687,0.4268,-66.1011,121.6431,-15.3809,1,466,914,3152
2211663930,436036,2.4790,0.3745,0.3384,-65.6128,96.8628,-24.0478,1,466,927,3152
2211668929,436037,2.5366,0.3174,0.2710,-63.7817,70.8008,-30.3345,1,465,937,3152
2211673924,436038,2.5801,0.1890,0.2295,-58.2275,44.4946,-33.4473,1,466,929,3152
2211678928,436039,2.5884,0.0127,0.2090,-47.1191,18.1885,-33.0200,1,466,936,3152
2211683966,436040,2.5317,-0.1489,0.2041,-32.4707,-8.9722,-29.4189,1,466,923,3152
2211688925,436041,2.4258,-0.2554,0.2314,-19.4702,-37.8418,-23.1934,1,466,924,3152
2211693926,436042,2.3193,-0.3174,0.3184,-9.2773,-65.6738,-16.0522,1,510,930,3152
2211698922,436043,2.2266,-0.3682,0.4575,-0.1221,-90.2710,-9.7046,1,506,917,3152
2211703926,436044,2.2344,-0.3154,0.4307,6.6528,-123.4741,-5.1270,1,470,793,3152
2211708926,436045,1.9390,0.3604,-0.6646,15.9912,-258.6060,5.9814,1,491,811,3152
2211713926,436046,0.3213,0.8335,-1.6963,-49.1333,-343.8110,-21.4233,1,492,892,3152
2211718925,436047,-0.8916,0.1294,-0.6177,-138.0005,-373.4741,-33.4473,1,477,909,3152
2211723922,436048,-0.1001,-0.8687,1.2695,-104.5532,-365.8447,-8.1177,1,494,913,3152
2211728922,436049,0.2104,-1.5430,2.1318,-52.4902,-266.4185,-22.0337,1,505,854,3152
2211733926,436050,-0.9185,-2.0596,1.8022,-28.0151,-241.7602,-29.8462,1,505,895,3152
2211738926,436051,-1.8784,-2.0283,0.6934,68.8477,-328.1250,-7.2021,1,511,900,3152
2211743928,436052,-1.8003,-1.0977,-0.5195,108.9477,-421.7529,12.1460,1,466,928,3152
2211748927,436053,-0.7295,-0.0298,-1.1245,76.6602,-504.9438,16.3574,1,466,949,3152
2211753928,436054,0.5752,0.4639,-0.7002,41.7480,-547.2412,29.6020,1,466,932,3152
2211758924,436055,1.2441,0.4468,0.7603,4.8218,-534.9731,42.2363,1,466,935,3152
2211763928,436056,1.2314,0.3281,2.6567,-10.8032,-513.1226,48.8281,1,466,926,3152
2211768931,436057,1.1265,0.3989,4.0806,0.7324,-483.7036,48.8281,1,466,950,3152
2211773928,436058,1.3140,0.6958,4.5566,12.2070,-431.7627,37.7808,1,466,927,3152
2211778929,436059,1.5859,1.0317,4.2236,18.0664,-368.0420,19.2871,1,466,941,3152
2211783930,436060,1.5649,1.1338,3.5576,8.1787,-306.7627,-0.5493,1,465,939,3152
2211788945,436061,1.2051,0.8628,2.9785,0.1221,-263.3667,-16.4795,1,466,913,3152
2211793925,436062,0.7480,0.3223,2.6006,-1.2817,-235.4126,-23.9868,1,466,908,3152
2211798924,436063,0.3574,-0.3521,2.2993,-1.8921,-212.0361,-23.8647,1,510,928,3152
2211803931,436064,-0.2749,-1.3896,2.4336,0.8545,-169.0674,1.1597,1,489,931,3152
2211808923,436065,-0.1108,-2.2573,2.7241,40.2222,-223.1445,46.3867,1,511,900,3152
2211813925,436066,0.9312,-2.1899,2.4219,76.7822,-176.8799,63.7207,1,496,945,3152
2211818929,436067,0.9629,-1.3931,1.9741,92.8955,-100.6470,57.6172,1,498,867,3152
2211823926,436068,0.3271,-0.2280,1.8271,127.0142,-121.0327,62.2559,1,509,954,3152
2211828923,436069,0.1406,0.7056,1.8066,126.2817,-122.4365,53.6499,1,501,915,3152
2211833922,436070,0.1934,0.9355,1.7466,101.5015,-81.6040,32.7759,1,491,922,3152
2211838929,436071,0.1670,0.5527,1.6270,91.3696,-72.1436,27.6489,1,489,887,3152
2211843926,436072,0.1733,-0.0151,1.4609,87.4634,-70.0073,27.3437,1,510,893,3152
2211848930,436073,0.1899,-0.3359,1.3218,91.5527,-57.0068,25.4517,1,466,933,3152
2211853929,436074,0.1206,-0.2480,1.2339,99.4873,-48.7671,25.3296,1,466,943,3152
2211858926,436075,-0.0044,0.0913,1.1729,97.4731,-45.0439,21.7895,1,466,938,3152
2211863923,436076,-0.1201,0.3892,1.1777,85.6934,-43.8843,16.2354,1,466,938,3152
2211868926,436077,-0.1558,0.5581,1.2954,73.2422,-47.9736,12.2681,1,466,934,3152
2211873925,436078,-0.0620,0.7026,1.4741,57.6782,-50.1099,4.0283,1,466,939,3152
2211878926,436079,0.1221,0.6763,1.5063,29.2969,-47.1802,0.9766,1,466,923,3152
2211883926,436080,0.1567,0.3252,1.3120,12.8784,-28.6255,-0.6104,1,466,914,3152
2211888922,436081,-0.0020,-0.0620,1.0825,13.9160,-29.0527,0.3052,1,466,923,3152
2211893923,436082,-0.0923,-0.1421,1.0117,19.2871,-35.9497,1.7700,1,466,914,3152
2211898963,436083,-0.0244,0.0356,1.1064,15.4419,-34.0576,0.9155,1,466,907,3152
2211903926,436084,0.0703,0.1777,1.2021,6.1646,-26.7944,0.1221,1,466,916,3152
2211908927,436085,0.0630,0.1426,1.1807,1.3428,-21.3623,-0.1221,1,511,901,3152
2211913923,436086,-0.0249,0.0283,1.0791,0.7324,-21.6675,-0.7935,1,495,895,3152
2211918925,436087,-0.0903,-0.0566,1.0117,2.1973,-25.5127,-2.1362,1,511,892,3152
2211923930,436088,-0.0513,-0.0674,1.0469,3.8452,-28.1372,-2.5635,1,491,800,3152
2211928922,436089,0.0581,-0.0288,1.1245,4.2114,-23.9258,-2.5635,1,491,925,3152
2211933923,436090,0.1001,0.0029,1.1411,3.4790,-15.6860,-2.4414,1,502,872,3152
2211938926,436091,0.0488,0.0112,1.1021,2.3804,-13.3057,-1.9531,1,505,890,3152
2211943931,436092,0.0020,0.0063,1.0693,1.4648,-13.8550,-1.1597,1,504,868,3152
2211948930,436093,-0.0088,0.0024,1.0591,1.0986,-12.2070,-1.5259,1,501,848,3152
2211953930,436094,-0.0122,-0.0078,1.0518,0.8545,-11.3525,-2.1362,1,505,843,3152
2211958929,436095,-0.0229,-0.0229,1.0386,1.8921,-11.5967,-2.6855,1,510,856,3152
2211963928,436096,-0.0264,-0.0239,1.0303,2.8687,-12.5732,-3.0518,1,466,904,3152
2211968924,436097,-0.0176,-0.0176,1.0308,3.3569,-12.1460,-3.8452,1,466,900,3152
2211973924,436098,-0.0078,-0.0122,1.0342,4.1504,-11.3525,-4.3945,1,466,904,3152
2211978924,436099,0.0000,-0.0063,1.0381,4.4556,-10.5591,-4.6387,1,465,904,3152
2211983928,436100,0.0005,-0.0078,1.0376,4.6387,-9.1553,-5.1880,1,465,848,3152
2211988924,436101,-0.0088,-0.0161,1.0298,5.2490,-8.4229,-5.6763,1,466,871,3152
2211993931,436102,-0.0229,-0.0205,1.0215,6.2866,-8.1177,-6.5308,1,466,882,3152
2211998922,436103,-0.0322,-0.0195,1.0190,7.0190,-8.4229,-6.8970,1,466,885,3152
2212003925,436104,-0.0298,-0.0132,1.0210,7.7515,-8.3618,-7.1411,1,466,886,3152
2212008953,436105,-0.0166,-0.0083,1.0249,8.3008,-8.0566,-7.5073,1,466,885,3152
2212013927,436106,-0.0020,-0.0073,1.0283,8.6670,-7.2021,-7.3853,1,466,885,3152
2212018922,436107,-0.0122,0.0093,1.0244,9.4604,-5.7373,-7.9956,1,510,880,3152
2212023924,436108,-0.0483,0.0215,1.0083,9.0332,-7.0190,-9.4604,1,470,877,3152
2212028925,436109,-0.0688,0.0137,0.9956,8.0566,-10.0708,-9.2163,1,512,872,3152
2212033923,436110,-0.0430,0.0068,1.0059,7.8125,-11.7187,-8.7280,1,480,794,3152
2212038928,436111,0.0000,-0.0010,1.0254,6.7749,-10.0708,-8.4839,1,510,895,3152
2212043922,436112,0.0107,-0.0083,1.0317,6.1646,-8.0566,-8.2397,1,509,815,3152
2212048925,436113,-0.0039,-0.0132,1.0244,5.7373,-8.6060,-7.3242,1,494,869,3152
2212053928,436114,-0.0171,-0.0122,1.0181,5.0659,-8.7280,-5.6763,1,503,856,3152
2212058922,436115,-0.0210,0.0063,1.0225,4.6997,-8.7280,-4.8828,1,509,835,3152
2212063928,436116,-0.0063,0.0142,1.0303,3.7231,-8.8501,-5.1270,1,510,838,3152
2212068924,436117,0.0044,0.0010,1.0312,3.4790,-7.2632,-4.9438,1,465,830,3152
2212073925,436118,0.0054,-0.0078,1.0293,3.9673,-7.0801,-4.2114,1,466,901,3152
2212078922,436119,0.0010,-0.0073,1.0220,3.8452,-6.4697,-3.8452,1,466,872,3152
2212083928,436120,-0.0146,-0.0068,1.0098,4.3335,-6.3477,-4.0894,1,466,882,3152
2212088922,436121,-0.0215,-0.0122,1.0034,5.2490,-7.5073,-4.0283,1,466,879,3152
2212093924,436122,-0.0156,-0.0166,1.0024,6.2256,-7.5073,-4.0894,1,465,887,3152
2212098926,436123,-0.0127,-0.0176,1.0024,7.5684,-7.1411,-4.3335,1,465,884,3152
2212103927,436124,-0.0132,-0.0181,1.0015,8.4839,-7.4463,-4.2114,1,466,885,3152
2212108923,436125,-0.0176,-0.0127,0.9976,9.7046,-7.2021,-4.5776,1,466,881,3152
2212113930,436126,-0.0273,-0.0127,0.9907,10.9253,-7.7515,-5.2490,1,466,883,3152
2212118945,436127,-0.0352,-0.0269,0.9854,12.3291,-8.6060,-5.3711,1,466,899,3152
2212123924,436128,-0.0396,-0.0234,0.9863,14.4043,-9.9487,-5.7983,1,466,899,3152
2212128925,436129,-0.0298,-0.0088,0.9971,15.0757,-11.3525,-6.4087,1,510,904,3152
2212133929,436130,-0.0137,-0.0063,1.0098,15.8691,-11.7798,-6.8359,1,491,909,3152
2212138930,436131,-0.0044,-0.0093,1.0142,16.7236,-12.3291,-6.7139,1,511,907,3152
2212143925,436132,-0.0088,-0.0063,1.0127,17.4561,-12.7563,-6.7749,1,497,802,3152
2212148922,436133,-0.0166,0.0288,1.0254,17.3340,-13.9770,-6.9580,1,506,906,3152
2212153925,436134,0.0029,0.0654,1.0522,14.7705,-15.3198,-6.8970,1,510,878,3152
2212158924,436135,0.0317,0.0659,1.0664,12.5732,-13.3667,-7.1411,1,495,893,3152
2212163925,436136,0.0381,0.0591,1.0659,11.2305,-12.4512,-6.6528,1,504,899,3152
2212168928,436137,0.0259,0.0625,1.0576,9.0942,-12.2070,-5.8594,1,509,869,3152
2212173925,436138,0.0195,0.0659,1.0537,6.8970,-12.1460,-5.3711,1,510,853,3152
2212178923,436139,0.0293,0.0566,1.0571,4.6387,-11.6577,-4.4556,1,466,902,3152
2212183922,436140,0.0391,0.0459,1.0532,3.9062,-9.9487,-3.4790,1,466,904,3152
2212188922,436141,0.0342,0.0483,1.0420,2.6245,-9.2163,-2.3804,1,466,885,3152
2212193923,436142,0.0151,0.0542,1.0288,1.3428,-8.9722,-1.4038,1,466,885,3152
2212198930,436143,-0.0005,0.0557,1.0239,-0.0610,-9.9487,-0.7935,1,466,884,3152
2212203928,436144,-0.0073,0.0522,1.0254,-1.2207,-10.8032,-0.3662,1,465,876,3152
2212208923,436145,-0.0190,0.0474,1.0229,-1.9531,-12.0239,-0.4272,1,466,899,3152
2212213924,436146,-0.0293,0.0425,1.0205,-2.8687,-14.4043,-0.4883,1,466,905,3152
2212218926,436147,-0.0273,0.0352,1.0220,-3.4180,-16.7236,-0.7324,1,466,896,3152
2212223928,436148,-0.0205,0.0308,1.0234,-3.3569,-18.2495,-1.0376,1,466,896,3152
2212228938,436149,-0.0146,0.0278,1.0244,-3.7231,-19.8975,-1.4038,1,465,896,3152
2212233923,436150,-0.0098,0.0210,1.0278,-3.4790,-21.4233,-2.0752,1,466,902,3152
2212238925,436151,-0.0156,0.0181,1.0293,-2.9297,-23.1323,-2.7466,1,510,896,3152
2212243927,436152,-0.0283,0.0220,1.0254,-3.0518,-25.5737,-3.2959,1,479,899,3152
2212248930,436153,-0.0337,0.0283,1.0225,-3.2349,-28.3813,-3.4790,1,512,901,3152
2212253923,436154,-0.0259,0.0264,1.0244,-3.4790,-30.9448,-3.3569,1,478,792,3152
2212258922,436155,-0.0093,0.0229,1.0283,-3.4790,-32.9590,-3.1128,1,493,902,3152
2212263924,436156,0.0083,0.0254,1.0312,-3.5400,-34.3628,-3.0518,1,499,856,3152
2212268929,436157,0.0195,0.0269,1.0332,-3.8452,-35.3394,-3.2959,1,506,879,3152
2212273925,436158,0.0254,0.0244,1.0361,-4.0283,-36.4990,-3.6621,1,507,870,3152
2212278925,436159,0.0259,0.0215,1.0371,-3.9673,-37.0483,-3.6621,1,496,853,3152
2212283923,436160,0.0215,0.0220,1.0366,-4.3335,-38.3301,-3.5400,1,511,851,3152
2212288927,436161,0.0181,0.0190,1.0386,-4.9438,-40.2222,-3.4180,1,511,842,3152
2212293923,436162,0.0122,0.0239,1.0386,-5.2490,-41.8701,-2.9297,1,466,897,3152
2212298926,436163,0.0117,0.0361,1.0366,-6.2256,-43.9453,-2.5635,1,466,904,3152
2212303929,436164,0.0225,0.0479,1.0391,-7.8735,-45.5322,-2.8076,1,465,907,3152
2212308927,436165,0.0381,0.0464,1.0444,-9.7656,-47.3633,-3.0518,1,466,901,3152
2212313923,436166,0.0366,0.0469,1.0513,-10.9253,-48.2178,-3.4790,1,466,900,3152
2212318928,436167,0.0142,0.0669,1.0605,-13.9160,-55.7861,-4.3335,1,466,915,3152
2212323925,436168,-0.0195,0.0791,1.0635,-18.0054,-66.8945,-6.5918,1,465,922,3152
2212328925,436169,-0.0835,0.0786,1.0508,-22.0947,-77.8809,-9.7656,1,466,904,3152
2212333925,436170,-0.1709,0.0732,1.0278,-25.2075,-91.4307,-11.3525,1,466,911,3152
2212338952,436171,-0.2583,0.0679,1.0127,-29.2969,-109.1919,-12.3291,1,466,940,3152
2212343927,436172,-0.4072,0.0811,1.0088,-33.9355,-126.4038,-13.9770,1,466,944,3152
2212348924,436173,-0.6143,0.1348,1.0049,-39.0015,-154.4800,-12.6953,1,510,934,3152
2212353929,436174,-0.8530,0.2368,1.0107,-44.6777,-186.2793,-12.2070,1,481,928,3152
2212358923,436175,-1.1694,0.3584,1.0620,-57.2510,-222.5952,-12.8174,1,500,949,3152
2212363927,436176,-1.0757,0.2871,1.1821,-73.1812,-288.9404,-7.8125,1,469,888,3152
2212368924,436177,-0.4863,0.0732,1.2842,-73.9136,-335.8764,-6.7139,1,491,859,3152
2212373926,436178,-0.7036,0.0220,1.4614,-85.0830,-330.2612,-14.4043,1,497,897,3152
2212378926,436179,-1.3110,0.0894,1.7998,-91.3086,-419.9829,-4.2114,1,503,903,3152
2212383930,436180,-0.5962,0.3320,1.9380,-85.5713,-507.1411,4.3945,1,505,900,3152
2212388923,436181,0.3911,0.6802,1.7832,-133.0566,-476.4404,-11.1694,1,504,917,3152
2212393931,436182,-0.0986,0.6006,1.8740,-192.3828,-450.9277,-26.5503,1,493,900,3152
2212398925,436183,-1.2612,0.0767,2.0762,-180.9082,-535.8276,-16.7236,1,510,897,3152
2212403922,436184,-1.6167,-0.4111,1.7817,-157.4707,-622.2534,-20.3247,1,466,936,3152
2212408924,436185,-1.1484,-0.5596,1.2583,-152.8931,-666.6259,-35.2783,1,466,945,3152
2212413930,436186,-0.1846,-0.0210,1.1685,-121.7651,-623.5352,-28.3813,1,466,948,3152
2212418928,436187,0.7065,-0.4507,2.4170,-107.5439,-546.3867,-33.3862,1,466,946,3152
