t_us, seq, ax, ay, az, gx, gy, gz, valid, t_imu_us, t_serial_us, missed
52481303,10,-0.0234,-0.0503,1.0190,0.4883,-0.5493,-0.4272,1,495,818,0
52486310,11,-0.0229,-0.0503,1.0181,0.4883,-0.5493,-0.4272,1,483,851,0
52491308,12,-0.0210,-0.0483,1.0195,0.5493,-0.4883,-0.4272,1,466,872,0
52496310,13,-0.0210,-0.0464,1.0200,0.6104,-0.4272,-0.4272,1,466,876,0
52501302,14,-0.0220,-0.0459,1.0200,0.7324,-0.6714,-0.3052,1,466,866,0
52506303,15,-0.0220,-0.0459,1.0205,0.7324,-0.7324,-0.4272,1,466,866,0
52511307,16,-0.0220,-0.0454,1.0210,0.6104,-0.6104,-0.4883,1,466,875,0
52516308,17,-0.0205,-0.0449,1.0215,0.6714,-0.7324,-0.3662,1,466,866,0
52521302,18,-0.0186,-0.0435,1.0234,0.5493,-0.5493,-0.3052,1,466,875,0
52526303,19,-0.0176,-0.0425,1.0249,0.5493,-0.5493,-0.2441,1,466,872,0
52531311,20,-0.0181,-0.0425,1.0254,0.3662,-0.4883,-0.2441,1,466,907,0
52536309,21,-0.0186,-0.0439,1.0249,0.1831,-0.3662,-0.3052,1,466,870,0
52541302,22,-0.0176,-0.0454,1.0239,0.3052,-0.1831,-0.2441,1,492,874,0
52546304,23,-0.0171,-0.0469,1.0225,0.1831,-0.1221,-0.1831,1,486,863,0
52551308,24,-0.0186,-0.0488,1.0205,0.1831,-0.1831,-0.2441,1,512,780,0
52556307,25,-0.0205,-0.0498,1.0200,0.1831,-0.1221,-0.2441,1,483,821,0
52561309,26,-0.0200,-0.0488,1.0210,0.3052,-0.0610,-0.2441,1,509,903,0
52566303,27,-0.0190,-0.0469,1.0220,0.4272,-0.1221,-0.2441,1,491,858,0
52571301,28,-0.0190,-0.0454,1.0220,0.3662,0.0000,-0.2441,1,489,839,0
52576309,29,-0.0195,-0.0439,1.0210,0.4883,0.0000,-0.2441,1,481,784,0
52581306,30,-0.0195,-0.0430,1.0195,0.4883,-0.0610,-0.3052,1,501,780,0
52586307,31,-0.0181,-0.0449,1.0210,0.4883,0.0610,-0.2441,1,483,821,0
52591304,32,-0.0181,-0.0474,1.0225,0.4883,0.0000,-0.2441,1,466,865,0
52596308,33,-0.0205,-0.0464,1.0225,0.5493,0.0610,-0.2441,1,465,822,0
52601306,34,-0.0220,-0.0444,1.0210,0.4883,0.0610,-0.1831,1,466,872,0
52606306,35,-0.0225,-0.0444,1.0186,0.4883,0.0000,-0.2441,1,466,871,0
52611301,36,-0.0220,-0.0449,1.0166,0.4272,-0.0610,-0.2441,1,466,827,0
52616306,37,-0.0215,-0.0444,1.0176,0.4883,-0.0610,-0.2441,1,466,875,0
52621303,38,-0.0210,-0.0435,1.0210,0.4272,-0.2441,-0.2441,1,466,872,0
52626302,39,-0.0190,-0.0435,1.0234,0.3052,-0.1831,-0.1831,1,466,872,0
52631301,40,-0.0166,-0.0444,1.0254,0.1831,-0.0610,-0.1221,1,466,873,0
52636309,41,-0.0151,-0.0435,1.0273,0.0610,0.1221,-0.0610,1,466,872,0
52641302,42,-0.0166,-0.0430,1.0273,-0.0610,0.1831,-0.1831,1,466,866,0
52646304,43,-0.0200,-0.0444,1.0249,0.0610,0.0000,-0.1221,1,483,875,0
52651303,44,-0.0215,-0.0454,1.0229,0.0610,0.1221,-0.1221,1,497,753,0
52656303,45,-0.0205,-0.0454,1.0225,0.0000,0.1221,-0.1221,1,482,798,0
52661303,46,-0.0190,-0.0454,1.0225,0.0000,0.1221,-0.1831,1,491,782,0
52666304,47,-0.0190,-0.0459,1.0200,0.0000,0.2441,-0.1221,1,494,788,0
52671302,48,-0.0195,-0.0469,1.0186,0.1221,0.3662,-0.1831,1,481,774,0
52676305,49,-0.0215,-0.0469,1.0181,0.1831,0.1831,-0.2441,1,494,822,0
52681308,50,-0.0225,-0.0469,1.0190,0.1221,0.1221,-0.1831,1,500,822,0
52686302,51,-0.0220,-0.0479,1.0205,0.3052,0.0610,-0.1831,1,505,816,0
52691308,52,-0.0210,-0.0479,1.0220,0.3052,0.0610,-0.3662,1,466,848,0
52696308,53,-0.0210,-0.0464,1.0239,0.4272,0.0610,-0.4272,1,466,865,0
52701308,54,-0.0210,-0.0449,1.0249,0.4272,-0.1221,-0.3662,1,466,872,0
52706303,55,-0.0200,-0.0439,1.0254,0.6104,-0.1221,-0.3662,1,466,874,0
52711303,56,-0.0181,-0.0435,1.0254,0.3662,-0.1831,-0.3052,1,466,867,0
52716305,57,-0.0166,-0.0430,1.0254,0.2441,-0.1221,-0.3052,1,466,867,0
52721309,58,-0.0156,-0.0425,1.0249,0.1831,0.0000,-0.3662,1,466,869,0
52726306,59,-0.0161,-0.0430,1.0259,0.0000,-0.0610,-0.3052,1,466,831,0
52731301,60,-0.0186,-0.0444,1.0254,-0.1831,0.0000,-0.3052,1,466,822,0
52736307,61,-0.0205,-0.0449,1.0229,-0.1221,-0.0610,-0.4272,1,466,825,0
52741324,62,-0.0215,-0.0469,1.0205,0.0610,-0.0610,-0.3052,1,466,872,0
52746301,63,-0.0210,-0.0464,1.0195,0.1221,-0.1831,-0.2441,1,466,859,0
52751304,64,-0.0195,-0.0449,1.0190,0.0610,-0.2441,-0.2441,1,480,859,0
52756302,65,-0.0186,-0.0444,1.0190,0.0000,-0.2441,-0.3052,1,511,819,0
52761307,66,-0.0181,-0.0444,1.0205,-0.1221,-0.0610,-0.2441,1,489,786,0
52766302,67,-0.0176,-0.0449,1.0210,-0.1831,0.0000,-0.3052,1,491,830,0
52771305,68,-0.0186,-0.0459,1.0210,-0.0610,-0.1221,-0.2441,1,502,748,0
52776305,69,-0.0200,-0.0469,1.0210,0.0000,-0.1221,-0.1831,1,490,835,0
52781301,70,-0.0195,-0.0474,1.0195,0.1221,-0.0610,-0.2441,1,479,771,0
52786304,71,-0.0176,-0.0474,1.0195,0.1831,0.0000,-0.2441,1,497,824,0
52791309,72,-0.0181,-0.0464,1.0210,0.1831,0.1221,-0.2441,1,483,810,0
52796307,73,-0.0200,-0.0464,1.0215,0.1831,0.1221,-0.3662,1,466,869,0
52801301,74,-0.0215,-0.0469,1.0215,0.3052,0.0610,-0.3052,1,466,868,0
52806306,75,-0.0210,-0.0469,1.0205,0.3052,-0.1221,-0.3662,1,466,858,0
52811303,76,-0.0195,-0.0454,1.0205,0.3052,-0.0610,-0.3662,1,466,862,0
52816303,77,-0.0200,-0.0439,1.0220,0.3052,-0.1221,-0.3052,1,466,871,0
52821303,78,-0.0200,-0.0430,1.0229,0.2441,-0.1831,-0.4272,1,466,863,0
52826305,79,-0.0186,-0.0435,1.0234,0.1831,-0.2441,-0.3662,1,466,876,0
52831308,80,-0.0171,-0.0435,1.0244,0.2441,-0.1831,-0.3662,1,466,877,0
52836321,81,-0.0171,-0.0435,1.0259,0.1831,-0.0610,-0.3662,1,466,875,0
52841302,82,-0.0186,-0.0435,1.0254,0.1221,0.0000,-0.3052,1,466,869,0
52846308,83,-0.0190,-0.0444,1.0239,0.0610,0.0000,-0.3052,1,509,816,0
52851302,84,-0.0176,-0.0454,1.0229,0.0000,0.0610,-0.3052,1,488,738,0
52856302,85,-0.0176,-0.0459,1.0220,0.0610,0.0610,-0.2441,1,482,834,0
52861309,86,-0.0205,-0.0464,1.0205,0.1221,0.0000,-0.3052,1,497,875,0
52866304,87,-0.0205,-0.0469,1.0195,0.0610,0.0000,-0.2441,1,502,809,0
52871309,88,-0.0186,-0.0474,1.0205,0.0610,0.0000,-0.2441,1,494,794,0
52876309,89,-0.0181,-0.0474,1.0210,0.1221,0.1221,0.0000,1,477,777,0
52881308,90,-0.0195,-0.0464,1.0200,0.1831,0.0000,0.0000,1,489,766,0
52886301,91,-0.0210,-0.0454,1.0195,0.2441,0.0610,-0.0610,1,505,732,0
52891307,92,-0.0210,-0.0464,1.0215,0.2441,-0.0610,-0.1831,1,466,852,0
52896304,93,-0.0190,-0.0488,1.0225,0.2441,-0.1221,-0.2441,1,465,868,0
52901305,94,-0.0171,-0.0488,1.0229,0.3662,-0.1221,-0.3052,1,466,873,0
52906309,95,-0.0171,-0.0464,1.0239,0.4272,-0.1221,-0.3052,1,466,868,0
52911309,96,-0.0181,-0.0444,1.0239,0.4272,-0.0610,-0.4272,1,466,865,0
52916303,97,-0.0176,-0.0444,1.0229,0.4272,-0.1831,-0.3052,1,466,874,0
52921307,98,-0.0166,-0.0444,1.0234,0.4883,-0.1221,-0.3052,1,466,876,0
52926307,99,-0.0166,-0.0439,1.0244,0.4883,-0.0610,-0.3052,1,466,871,0
52931304,100,-0.0171,-0.0444,1.0234,0.4272,0.0000,-0.3662,1,466,872,0
52936336,101,-0.0171,-0.0444,1.0210,0.4272,0.0610,-0.3052,1,466,830,0
52941301,102,-0.0176,-0.0439,1.0210,0.3662,0.0610,-0.2441,1,466,864,0
52946308,103,-0.0181,-0.0444,1.0225,0.4883,-0.0610,-0.2441,1,510,873,0
52951301,104,-0.0186,-0.0454,1.0249,0.3662,0.1221,-0.3052,1,495,789,0
52956309,105,-0.0190,-0.0459,1.0249,0.3662,0.1221,-0.3052,1,477,850,0
52961301,106,-0.0171,-0.0454,1.0229,0.4883,0.1831,-0.2441,1,505,877,0
52966303,107,-0.0161,-0.0435,1.0220,0.3662,0.3052,-0.3052,1,499,838,0
52971301,108,-0.0176,-0.0420,1.0220,0.2441,0.4272,-0.2441,1,504,829,0
52976304,109,-0.0190,-0.0435,1.0215,0.1831,0.2441,-0.1831,1,491,828,0
52981301,110,-0.0210,-0.0444,1.0200,0.2441,0.3052,-0.2441,1,472,828,0
52986307,111,-0.0205,-0.0439,1.0205,0.3662,0.1221,-0.2441,1,511,824,0
52991305,112,-0.0190,-0.0439,1.0229,0.2441,0.1831,-0.1831,1,466,855,0
52996304,113,-0.0176,-0.0444,1.0244,0.2441,0.2441,-0.1831,1,466,880,0
53001303,114,-0.0156,-0.0439,1.0244,0.1831,0.0610,-0.0610,1,466,880,0
53006307,115,-0.0161,-0.0435,1.0229,0.0610,0.2441,-0.1831,1,466,876,0
53011302,116,-0.0186,-0.0439,1.0210,0.0610,0.3052,-0.1831,1,466,877,0
53016304,117,-0.0190,-0.0435,1.0220,0.1831,0.1221,-0.1831,1,466,868,0
53021303,118,-0.0181,-0.0435,1.0229,0.1831,0.1831,-0.1221,1,466,872,0
53026309,119,-0.0166,-0.0435,1.0229,0.0610,0.3052,-0.1221,1,466,872,0
53031301,120,-0.0171,-0.0430,1.0229,0.0610,0.3052,-0.1831,1,466,868,0
53036322,121,-0.0181,-0.0430,1.0229,0.0000,0.2441,-0.1831,1,466,868,0
53041306,122,-0.0176,-0.0435,1.0244,0.0610,0.3052,-0.1831,1,466,827,0
53046307,123,-0.0176,-0.0439,1.0249,0.1221,0.2441,-0.1831,1,509,868,0
53051304,124,-0.0186,-0.0435,1.0239,0.0610,0.3662,-0.1831,1,479,864,0
53056303,125,-0.0190,-0.0439,1.0225,0.0610,0.3662,-0.1221,1,511,789,0
53061307,126,-0.0190,-0.0454,1.0229,0.0610,0.3662,-0.1831,1,487,879,0
53066305,127,-0.0186,-0.0459,1.0229,0.0610,0.6104,-0.1831,1,497,839,0
53071305,128,-0.0181,-0.0459,1.0215,0.0610,0.4272,-0.2441,1,499,839,0
53076303,129,-0.0176,-0.0454,1.0210,0.0610,0.3052,-0.1221,1,506,794,0
53081306,130,-0.0181,-0.0430,1.0229,0.0610,0.5493,-0.2441,1,473,816,0
53086309,131,-0.0186,-0.0415,1.0239,0.0610,0.6104,-0.1831,1,493,826,0
53091303,132,-0.0195,-0.0420,1.0229,0.0000,0.6104,-0.1221,1,511,824,0
53096307,133,-0.0210,-0.0439,1.0205,-0.0610,0.6714,-0.1221,1,465,823,0
53101308,134,-0.0220,-0.0449,1.0190,-0.1221,0.6104,-0.3052,1,466,867,0
53106307,135,-0.0220,-0.0449,1.0200,-0.2441,0.4883,-0.1831,1,466,864,0
53111302,136,-0.0210,-0.0444,1.0225,-0.1831,0.3662,-0.1831,1,466,876,0
53116303,137,-0.0200,-0.0439,1.0244,-0.1831,0.4272,-0.2441,1,466,876,0
53121303,138,-0.0186,-0.0444,1.0249,-0.1221,0.3662,-0.1831,1,466,880,0
53126301,139,-0.0181,-0.0444,1.0229,-0.1221,0.3052,-0.2441,1,466,876,0
53131308,140,-0.0186,-0.0449,1.0205,-0.1221,0.4883,-0.1831,1,466,870,0
53136316,141,-0.0181,-0.0454,1.0205,-0.1831,0.4272,-0.1831,1,466,870,0
53141305,142,-0.0181,-0.0459,1.0215,0.0000,0.3052,-0.1831,1,466,877,0
53146308,143,-0.0186,-0.0464,1.0225,0.0000,0.3052,-0.1831,1,510,820,0
53151305,144,-0.0176,-0.0459,1.0239,0.0610,0.2441,-0.3052,1,476,748,0
53156305,145,-0.0181,-0.0459,1.0244,0.0000,0.2441,-0.3052,1,512,786,0
53161301,146,-0.0210,-0.0454,1.0239,-0.0610,0.2441,-0.1831,1,483,783,0
53166308,147,-0.0215,-0.0454,1.0225,0.0000,0.3052,-0.1221,1,497,838,0
53171310,148,-0.0195,-0.0444,1.0220,0.0610,0.4272,-0.2441,1,505,745,0
53176309,149,-0.0181,-0.0439,1.0215,0.0610,0.3662,-0.1831,1,508,873,0
53181301,150,-0.0190,-0.0444,1.0220,0.0610,0.4272,-0.2441,1,496,825,0
53186301,151,-0.0205,-0.0444,1.0229,-0.0610,0.4272,-0.1221,1,504,827,0
53191306,152,-0.0205,-0.0435,1.0229,-0.1221,0.5493,-0.1221,1,483,826,0
53196306,153,-0.0186,-0.0435,1.0225,-0.1221,0.5493,-0.1221,1,466,868,0
53201306,154,-0.0171,-0.0439,1.0225,-0.1221,0.5493,-0.0610,1,466,866,0
53206309,155,-0.0176,-0.0439,1.0215,-0.2441,0.4883,-0.1221,1,466,869,0
53211308,156,-0.0176,-0.0449,1.0200,-0.1831,0.4883,-0.1831,1,466,871,0
53216308,157,-0.0171,-0.0454,1.0200,-0.2441,0.4272,-0.1221,1,466,875,0
53221304,158,-0.0186,-0.0449,1.0215,-0.3662,0.4883,-0.0610,1,466,871,0
53226301,159,-0.0205,-0.0444,1.0225,-0.2441,0.5493,-0.0610,1,466,871,0
53231304,160,-0.0215,-0.0454,1.0210,-0.1831,0.5493,-0.1831,1,466,875,0
53236305,161,-0.0229,-0.0469,1.0186,-0.2441,0.4883,-0.0610,1,466,877,0
53241345,162,-0.0229,-0.0464,1.0176,-0.1221,0.2441,-0.1221,1,466,869,0
53246303,163,-0.0225,-0.0444,1.0181,0.0000,0.3052,-0.1221,1,466,868,0
53251305,164,-0.0215,-0.0439,1.0205,-0.1221,0.2441,-0.3052,1,466,743,0
53256304,165,-0.0190,-0.0449,1.0234,-0.0610,0.2441,-0.1221,1,504,858,0
53261304,166,-0.0176,-0.0454,1.0244,0.0610,0.4272,-0.1221,1,476,815,0
53266303,167,-0.0181,-0.0444,1.0234,0.0000,0.3052,-0.1831,1,486,832,0
53271305,168,-0.0186,-0.0425,1.0220,0.0610,0.2441,-0.2441,1,496,786,0
53276306,169,-0.0181,-0.0420,1.0225,0.0000,0.2441,-0.2441,1,498,833,0
53281309,170,-0.0176,-0.0425,1.0239,0.0000,0.3662,-0.1221,1,499,779,0
53286305,171,-0.0186,-0.0435,1.0244,-0.0610,0.4272,-0.0610,1,501,778,0
53291302,172,-0.0190,-0.0444,1.0239,-0.1221,0.5493,-0.2441,1,503,823,0
53296303,173,-0.0186,-0.0454,1.0234,-0.1221,0.4883,-0.2441,1,483,831,0
53301304,174,-0.0181,-0.0454,1.0229,-0.1831,0.5493,-0.1831,1,466,874,0
53306303,175,-0.0176,-0.0454,1.0229,-0.1221,0.6714,-0.0610,1,466,879,0
53311307,176,-0.0176,-0.0459,1.0229,-0.1831,0.7324,-0.1831,1,466,870,0
53316307,177,-0.0190,-0.0459,1.0239,-0.3052,0.6104,-0.1831,1,465,878,0
53321302,178,-0.0200,-0.0459,1.0239,-0.1831,0.7935,-0.2441,1,466,869,0
53326302,179,-0.0210,-0.0464,1.0229,-0.1831,0.7324,-0.2441,1,466,874,0
53331301,180,-0.0220,-0.0459,1.0215,-0.1221,0.6714,-0.1831,1,466,877,0
53336304,181,-0.0215,-0.0444,1.0220,-0.1221,0.6104,-0.1221,1,466,870,0
53341302,182,-0.0205,-0.0435,1.0239,-0.1221,0.5493,-0.1831,1,466,864,0
53346339,183,-0.0190,-0.0430,1.0239,-0.1831,0.6104,-0.2441,1,466,875,0
53351305,184,-0.0176,-0.0439,1.0220,-0.1831,0.6104,-0.1221,1,466,874,0
53356303,185,-0.0186,-0.0454,1.0205,-0.1221,0.6714,0.0000,1,510,870,0
53361305,186,-0.0195,-0.0454,1.0210,-0.1831,0.5493,-0.1221,1,493,710,0
53366307,187,-0.0195,-0.0439,1.0225,-0.2441,0.4883,-0.1831,1,511,782,0
53371310,188,-0.0195,-0.0435,1.0249,-0.2441,0.6104,-0.1831,1,493,827,0
53376307,189,-0.0190,-0.0439,1.0249,-0.1831,0.7935,-0.1831,1,494,836,0
53381309,190,-0.0181,-0.0449,1.0234,-0.1831,0.6714,-0.1221,1,499,848,0
53386307,191,-0.0190,-0.0459,1.0220,-0.2441,0.6714,-0.1831,1,503,869,0
53391301,192,-0.0210,-0.0464,1.0215,-0.2441,0.8545,-0.2441,1,489,828,0
53396302,193,-0.0225,-0.0459,1.0215,-0.1831,0.7935,-0.3052,1,492,825,0
53401302,194,-0.0210,-0.0454,1.0220,-0.1831,0.6104,-0.2441,1,511,820,0
53406307,195,-0.0190,-0.0435,1.0215,-0.2441,0.6714,-0.0610,1,466,871,0
53411309,196,-0.0195,-0.0430,1.0200,-0.1831,0.6714,-0.0610,1,466,872,0
53416301,197,-0.0210,-0.0444,1.0200,-0.1831,0.7324,-0.1831,1,466,873,0
53421304,198,-0.0215,-0.0459,1.0205,-0.1221,0.7324,-0.1831,1,466,876,0
53426307,199,-0.0215,-0.0459,1.0215,-0.0610,0.6714,-0.1831,1,466,871,0
53431303,200,-0.0195,-0.0449,1.0225,-0.0610,0.7324,-0.2441,1,465,869,0
53436303,201,-0.0190,-0.0444,1.0215,0.0000,0.6714,-0.1831,1,466,876,0
53441303,202,-0.0205,-0.0430,1.0195,-0.0610,0.6104,-0.1831,1,466,829,0
53446302,203,-0.0225,-0.0430,1.0190,0.0000,0.5493,-0.2441,1,465,871,0
53451318,204,-0.0225,-0.0444,1.0205,-0.1221,0.4883,-0.2441,1,466,825,0
53456307,205,-0.0210,-0.0469,1.0225,-0.1831,0.5493,-0.1831,1,466,871,0
53461303,206,-0.0190,-0.0479,1.0234,-0.1221,0.6104,-0.1831,1,510,871,0
53466302,207,-0.0190,-0.0469,1.0225,-0.0610,0.5493,-0.1831,1,484,857,0
53471301,208,-0.0205,-0.0459,1.0210,-0.0610,0.5493,-0.1831,1,511,806,0
53476303,209,-0.0215,-0.0449,1.0205,-0.0610,0.4272,-0.2441,1,487,878,0
53481308,210,-0.0210,-0.0449,1.0200,0.0000,0.4272,-0.3662,1,491,834,0
53486301,211,-0.0200,-0.0459,1.0200,-0.0610,0.4272,-0.2441,1,509,788,0
53491307,212,-0.0200,-0.0469,1.0200,-0.0610,0.3662,-0.3052,1,504,795,0
53496301,213,-0.0210,-0.0464,1.0210,-0.0610,0.4883,-0.2441,1,491,816,0
53501305,214,-0.0205,-0.0464,1.0229,0.0000,0.4272,-0.2441,1,488,820,0
53506304,215,-0.0195,-0.0474,1.0239,-0.0610,0.4272,-0.3052,1,510,783,0
53511308,216,-0.0195,-0.0469,1.0234,-0.0610,0.4272,-0.2441,1,466,870,0
53516306,217,-0.0200,-0.0449,1.0234,-0.0610,0.4272,-0.2441,1,466,875,0
53521309,218,-0.0195,-0.0439,1.0234,0.0610,0.3662,-0.2441,1,466,875,0
53526305,219,-0.0190,-0.0449,1.0234,0.0610,0.3662,-0.3052,1,465,880,0
53531303,220,-0.0200,-0.0454,1.0225,0.0610,0.4883,-0.1221,1,466,873,0
53536305,221,-0.0215,-0.0454,1.0220,0.0000,0.4883,-0.1831,1,466,866,0
53541305,222,-0.0215,-0.0459,1.0215,0.1221,0.4272,-0.3052,1,465,828,0
53546305,223,-0.0215,-0.0464,1.0205,-0.0610,0.5493,-0.3052,1,466,863,0
53551306,224,-0.0210,-0.0464,1.0229,0.0000,0.4272,-0.3052,1,466,867,0
53556305,225,-0.0200,-0.0479,1.0244,0.0610,0.4883,-0.3052,1,466,822,0
53561302,226,-0.0195,-0.0479,1.0244,0.1221,0.4883,-0.1831,1,466,863,0
53566306,227,-0.0205,-0.0464,1.0234,0.1221,0.4883,-0.3052,1,473,860,0
53571308,228,-0.0220,-0.0454,1.0220,0.0000,0.4272,-0.1831,1,511,854,0
53576303,229,-0.0220,-0.0444,1.0225,0.1221,0.4883,-0.1831,1,477,791,0
53581304,230,-0.0210,-0.0454,1.0215,0.1831,0.4883,-0.2441,1,509,831,0
53586308,231,-0.0220,-0.0469,1.0205,0.1221,0.4883,-0.1831,1,495,843,0
53591303,232,-0.0229,-0.0464,1.0205,0.2441,0.3052,-0.1221,1,494,792,0
53596306,233,-0.0225,-0.0449,1.0220,0.1831,0.3662,-0.1831,1,486,821,0
53601309,234,-0.0229,-0.0439,1.0234,0.0610,0.3662,-0.2441,1,487,829,0
53606302,235,-0.0229,-0.0439,1.0239,0.1221,0.3662,-0.1221,1,510,831,0
53611307,236,-0.0220,-0.0439,1.0239,0.1831,0.2441,-0.1831,1,466,871,0
53616303,237,-0.0215,-0.0454,1.0239,0.1221,0.2441,-0.2441,1,466,908,0
53621307,238,-0.0210,-0.0464,1.0239,0.0610,0.2441,-0.2441,1,466,876,0
53626308,239,-0.0200,-0.0459,1.0239,0.1221,0.3052,-0.2441,1,466,873,0
53631303,240,-0.0186,-0.0449,1.0220,0.1221,0.4272,-0.1831,1,466,867,0
53636309,241,-0.0181,-0.0449,1.0200,0.1221,0.4272,-0.1831,1,466,872,0
53641302,242,-0.0190,-0.0449,1.0200,-0.0610,0.3662,-0.2441,1,466,869,0
53646305,243,-0.0205,-0.0454,1.0225,0.1221,0.3662,-0.1831,1,466,876,0
53651304,244,-0.0205,-0.0464,1.0239,0.1831,0.4272,-0.2441,1,466,874,0
53656319,245,-0.0200,-0.0464,1.0229,0.2441,0.6104,-0.3052,1,466,877,0
53661307,246,-0.0200,-0.0454,1.0225,0.0610,0.5493,-0.2441,1,466,867,0
53666306,247,-0.0205,-0.0449,1.0225,0.1831,0.6714,-0.1831,1,509,871,0
53671306,248,-0.0200,-0.0444,1.0234,0.2441,0.7324,-0.1831,1,483,863,0
53676309,249,-0.0200,-0.0444,1.0259,0.1221,0.7324,-0.1831,1,511,868,0
53681307,250,-0.0200,-0.0454,1.0254,0.1221,0.8545,-0.1831,1,488,868,0
53686306,251,-0.0200,-0.0464,1.0234,0.1221,0.7324,-0.2441,1,497,830,0
53691305,252,-0.0205,-0.0454,1.0225,0.1831,0.6714,-0.2441,1,504,842,0
53696303,253,-0.0205,-0.0439,1.0229,0.0610,0.9155,-0.1831,1,489,873,0
53701307,254,-0.0205,-0.0444,1.0239,-0.0610,0.9766,-0.2441,1,475,829,0
53706305,255,-0.0205,-0.0459,1.0244,0.0610,0.9766,-0.2441,1,510,828,0
53711307,256,-0.0210,-0.0459,1.0244,0.0610,0.9766,-0.1221,1,510,824,0
53716305,257,-0.0220,-0.0459,1.0239,0.1221,1.0986,-0.1831,1,466,863,0
53721301,258,-0.0225,-0.0464,1.0239,0.0610,1.0376,-0.3052,1,466,871,0
53726309,259,-0.0215,-0.0469,1.0225,-0.0610,1.0986,-0.1831,1,466,864,0
53731303,260,-0.0220,-0.0469,1.0205,-0.0610,1.0376,-0.2441,1,466,869,0
53736308,261,-0.0229,-0.0474,1.0210,0.1831,0.9766,-0.1831,1,466,868,0
53741303,262,-0.0229,-0.0459,1.0215,0.3662,0.9766,-0.0610,1,466,871,0
53746308,263,-0.0220,-0.0430,1.0220,0.1831,1.0376,-0.1831,1,466,870,0
53751307,264,-0.0215,-0.0420,1.0234,0.0610,1.2817,-0.2441,1,466,872,0
53756308,265,-0.0225,-0.0435,1.0239,0.0000,1.2817,-0.1221,1,466,876,0
53761344,266,-0.0234,-0.0459,1.0234,0.1221,1.0376,-0.1831,1,466,825,0
53766305,267,-0.0229,-0.0464,1.0225,0.1221,1.1597,-0.1831,1,466,870,0
53771309,268,-0.0225,-0.0454,1.0220,0.0610,1.0376,-0.2441,1,510,870,0
53776309,269,-0.0234,-0.0444,1.0200,0.1831,1.0986,-0.1831,1,489,859,0
53781302,270,-0.0254,-0.0444,1.0181,0.2441,0.9155,-0.2441,1,511,783,0
53786304,271,-0.0264,-0.0449,1.0200,0.2441,0.7935,-0.4272,1,509,872,0
53791302,272,-0.0244,-0.0454,1.0220,0.1831,0.6104,-0.3662,1,491,835,0
53796309,273,-0.0215,-0.0459,1.0234,0.1221,0.5493,-0.2441,1,499,858,0
53801302,274,-0.0220,-0.0449,1.0254,0.0610,0.6714,-0.3662,1,481,825,0
53806302,275,-0.0229,-0.0439,1.0254,0.1221,0.6104,-0.3662,1,508,824,0
53811307,276,-0.0244,-0.0449,1.0215,0.1831,0.4883,-0.2441,1,511,824,0
53816306,277,-0.0249,-0.0459,1.0190,0.2441,0.4883,-0.2441,1,466,830,0
53821307,278,-0.0234,-0.0459,1.0210,0.1831,0.4272,-0.2441,1,466,874,0
53826305,279,-0.0215,-0.0449,1.0239,0.0610,0.4272,-0.3662,1,466,873,0
53831304,280,-0.0210,-0.0444,1.0254,0.1221,0.3662,-0.3052,1,466,875,0
53836305,281,-0.0220,-0.0449,1.0244,0.1831,0.4883,-0.1831,1,466,866,0
53841304,282,-0.0234,-0.0449,1.0234,0.0610,0.4272,-0.2441,1,466,876,0
53846303,283,-0.0239,-0.0449,1.0225,0.0610,0.4272,-0.3052,1,466,875,0
53851306,284,-0.0244,-0.0454,1.0215,0.1221,0.4272,-0.2441,1,466,870,0
53856307,285,-0.0234,-0.0464,1.0205,0.1221,0.4272,-0.2441,1,466,876,0
53861331,286,-0.0229,-0.0459,1.0190,0.1221,0.2441,-0.2441,1,466,871,0
53866306,287,-0.0234,-0.0464,1.0190,0.1831,0.1831,-0.3052,1,466,873,0
53871304,288,-0.0225,-0.0464,1.0210,0.1831,0.2441,-0.2441,1,510,869,0
53876309,289,-0.0220,-0.0449,1.0220,0.2441,0.2441,-0.2441,1,489,861,0
53881304,290,-0.0225,-0.0439,1.0215,0.1831,0.2441,-0.3052,1,511,783,0
53886309,291,-0.0229,-0.0444,1.0215,0.1831,0.1831,-0.3662,1,509,880,0
53891309,292,-0.0229,-0.0449,1.0210,0.0610,0.1221,-0.4272,1,489,841,0
53896309,293,-0.0229,-0.0464,1.0210,0.1831,0.0000,-0.3052,1,496,831,0
53901310,294,-0.0234,-0.0469,1.0205,0.3052,0.0000,-0.2441,1,501,776,0
53906309,295,-0.0229,-0.0449,1.0205,0.3052,0.0000,-0.3052,1,497,775,0
53911306,296,-0.0220,-0.0430,1.0220,0.0610,0.0610,-0.4272,1,503,775,0
53916306,297,-0.0215,-0.0430,1.0234,0.1221,0.0000,-0.3052,1,465,820,0
53921307,298,-0.0220,-0.0435,1.0244,0.0610,0.1831,-0.3052,1,466,819,0
53926302,299,-0.0220,-0.0435,1.0249,0.0610,0.1831,-0.4272,1,465,870,0
53931302,300,-0.0220,-0.0439,1.0239,0.0610,0.1221,-0.3662,1,465,875,0
53936302,301,-0.0225,-0.0449,1.0220,-0.0610,0.1221,-0.3052,1,466,872,0
53941301,302,-0.0234,-0.0449,1.0210,-0.0610,0.1831,-0.3662,1,466,864,0
53946308,303,-0.0239,-0.0454,1.0205,0.0000,0.1831,-0.3662,1,465,873,0
53951301,304,-0.0239,-0.0459,1.0210,0.0610,0.0000,-0.3052,1,466,832,0
53956303,305,-0.0229,-0.0444,1.0215,0.1831,0.0610,-0.2441,1,465,819,0
53961309,306,-0.0220,-0.0435,1.0215,0.1221,0.1831,-0.3052,1,465,877,0
53966345,307,-0.0234,-0.0444,1.0210,0.1221,0.1831,-0.3052,1,466,866,0
53971303,308,-0.0249,-0.0454,1.0210,0.1221,0.1221,-0.2441,1,466,867,0
53976307,309,-0.0234,-0.0449,1.0225,0.1831,0.1831,-0.2441,1,510,870,0
53981303,310,-0.0215,-0.0444,1.0244,0.1221,0.1221,-0.1831,1,494,866,0
53986305,311,-0.0210,-0.0444,1.0249,0.0610,0.2441,-0.1831,1,466,866,0
53991302,312,-0.0210,-0.0449,1.0239,0.0610,0.3052,-0.3052,1,509,827,0
53996310,313,-0.0229,-0.0454,1.0229,0.0000,0.2441,-0.2441,1,494,824,0
54001303,314,-0.0244,-0.0454,1.0220,0.0000,0.2441,-0.3052,1,509,832,0
54006306,315,-0.0229,-0.0449,1.0229,0.0610,0.1831,-0.1831,1,509,780,0
54011304,316,-0.0210,-0.0439,1.0244,-0.0610,0.2441,-0.1831,1,509,832,0
54016302,317,-0.0205,-0.0430,1.0249,0.0000,0.3052,-0.2441,1,491,829,0
54021302,318,-0.0220,-0.0430,1.0244,-0.0610,0.3052,-0.2441,1,510,778,0
54026307,319,-0.0229,-0.0439,1.0244,-0.0610,0.4272,-0.2441,1,466,868,0
54031301,320,-0.0234,-0.0454,1.0244,0.1221,0.3662,-0.2441,1,466,878,0
54036306,321,-0.0234,-0.0459,1.0229,0.0000,0.3052,-0.1831,1,466,878,0
54041302,322,-0.0229,-0.0459,1.0215,0.1221,0.3052,-0.2441,1,466,825,0
54046305,323,-0.0244,-0.0444,1.0210,0.1221,0.3662,-0.3052,1,466,867,0
54051306,324,-0.0254,-0.0444,1.0205,0.0000,0.3052,-0.2441,1,466,868,0
54056304,325,-0.0234,-0.0464,1.0215,0.0610,0.3052,-0.2441,1,465,826,0
54061304,326,-0.0225,-0.0464,1.0220,0.0610,0.3052,-0.1831,1,466,866,0
54066307,327,-0.0225,-0.0454,1.0220,0.2441,0.2441,-0.1831,1,466,867,0
54071301,328,-0.0234,-0.0449,1.0215,0.0610,0.3052,-0.3052,1,466,878,0
54076352,329,-0.0244,-0.0444,1.0210,0.0000,0.3052,-0.3662,1,466,862,0
54081307,330,-0.0259,-0.0444,1.0210,0.0000,0.1221,-0.3052,1,466,825,0
54086301,331,-0.0259,-0.0449,1.0225,0.2441,0.1221,-0.1831,1,466,744,0
54091309,332,-0.0244,-0.0454,1.0229,0.2441,0.1831,-0.2441,1,511,860,0
54096307,333,-0.0234,-0.0449,1.0225,0.2441,0.0610,-0.2441,1,467,825,0
54101302,334,-0.0234,-0.0444,1.0229,0.2441,0.1221,-0.3052,1,494,895,0
54106305,335,-0.0234,-0.0444,1.0234,0.1221,0.1831,-0.2441,1,501,832,0
54111310,336,-0.0215,-0.0449,1.0229,0.3052,0.1221,-0.1831,1,494,865,0
54116306,337,-0.0210,-0.0454,1.0239,0.0610,0.1831,-0.3052,1,497,822,0
54121305,338,-0.0220,-0.0454,1.0254,0.0610,0.0610,-0.2441,1,508,823,0
54126305,339,-0.0215,-0.0454,1.0239,0.1221,0.1221,-0.2441,1,509,824,0
54131302,340,-0.0210,-0.0454,1.0215,0.0610,0.2441,-0.2441,1,466,824,0
54136308,341,-0.0225,-0.0444,1.0205,0.1831,0.3052,-0.2441,1,465,872,0
54141305,342,-0.0225,-0.0444,1.0210,0.1831,0.3662,-0.1831,1,466,872,0
54146308,343,-0.0229,-0.0454,1.0210,0.1221,0.3052,-0.3052,1,466,876,0
54151309,344,-0.0239,-0.0474,1.0205,0.1831,0.1831,-0.1831,1,466,864,0
54156304,345,-0.0239,-0.0479,1.0210,0.1221,0.3052,-0.2441,1,466,878,0
54161307,346,-0.0239,-0.0469,1.0215,0.1831,0.2441,-0.2441,1,466,866,0
54166306,347,-0.0234,-0.0449,1.0215,0.1221,0.1831,-0.3052,1,466,876,0
54171308,348,-0.0225,-0.0444,1.0205,0.0000,0.2441,-0.1831,1,466,868,0
54176303,349,-0.0220,-0.0454,1.0220,0.1831,0.2441,-0.1221,1,465,830,0
54181351,350,-0.0215,-0.0459,1.0239,0.1221,0.3052,-0.2441,1,466,874,0
54186306,351,-0.0220,-0.0454,1.0239,0.0610,0.3052,-0.3052,1,466,865,0
54191302,352,-0.0239,-0.0449,1.0229,0.1221,0.3052,-0.2441,1,467,855,0
54196307,353,-0.0244,-0.0454,1.0215,0.2441,0.2441,-0.1831,1,512,860,0
54201306,354,-0.0234,-0.0444,1.0205,0.3052,0.3662,-0.1221,1,466,822,0
54206308,355,-0.0220,-0.0435,1.0220,0.0610,0.2441,-0.3052,1,493,838,0
54211301,356,-0.0215,-0.0444,1.0220,0.1221,0.2441,-0.2441,1,504,827,0
54216309,357,-0.0220,-0.0454,1.0220,0.2441,0.2441,-0.2441,1,498,862,0
54221301,358,-0.0215,-0.0449,1.0229,0.1831,0.1831,-0.3662,1,499,849,0
54226303,359,-0.0215,-0.0444,1.0234,0.1221,0.1831,-0.3052,1,492,832,0
54231302,360,-0.0229,-0.0449,1.0234,0.1221,0.2441,-0.1831,1,509,822,0
54236304,361,-0.0239,-0.0454,1.0229,0.0000,0.1221,-0.2441,1,466,830,0
54241304,362,-0.0239,-0.0449,1.0229,0.0610,0.2441,-0.1831,1,465,830,0
54246301,363,-0.0244,-0.0449,1.0225,0.0610,0.3052,-0.2441,1,466,879,0
54251305,364,-0.0239,-0.0454,1.0225,-0.0610,0.3052,-0.2441,1,466,870,0
54256301,365,-0.0229,-0.0449,1.0225,0.0610,0.2441,-0.3662,1,465,872,0
54261305,366,-0.0225,-0.0435,1.0225,0.0610,0.1831,-0.2441,1,466,876,0
54266310,367,-0.0220,-0.0435,1.0225,0.0000,0.4272,-0.1221,1,466,871,0
54271302,368,-0.0225,-0.0444,1.0229,0.0000,0.3662,-0.1831,1,466,821,0
54276307,369,-0.0229,-0.0444,1.0229,0.0610,0.1831,-0.2441,1,466,832,0
54281301,370,-0.0239,-0.0449,1.0225,0.0000,0.3662,-0.1831,1,466,879,0
54286338,371,-0.0254,-0.0459,1.0220,0.0610,0.2441,-0.1831,1,466,830,0
54291301,372,-0.0259,-0.0454,1.0210,0.0610,0.1831,-0.2441,1,465,870,0
54296302,373,-0.0244,-0.0449,1.0210,0.2441,0.1221,-0.1831,1,511,873,0
54301305,374,-0.0229,-0.0444,1.0215,0.1221,0.1831,-0.1831,1,506,861,0
54306304,375,-0.0234,-0.0449,1.0215,0.1221,0.1831,-0.2441,1,465,872,0
54311307,376,-0.0244,-0.0454,1.0215,0.2441,0.0610,-0.1221,1,497,882,0
54316301,377,-0.0249,-0.0459,1.0225,0.1831,0.0610,-0.3052,1,506,834,0
54321302,378,-0.0229,-0.0464,1.0229,0.1221,0.0610,-0.2441,1,499,830,0
54326305,379,-0.0215,-0.0459,1.0220,0.1831,0.0610,-0.2441,1,506,841,0
54331309,380,-0.0210,-0.0449,1.0205,0.1221,0.0000,-0.3052,1,510,824,0
54336307,381,-0.0220,-0.0444,1.0210,0.2441,0.0000,-0.3052,1,506,772,0
54341309,382,-0.0215,-0.0435,1.0220,0.1831,0.1221,-0.3662,1,511,776,0
54346303,383,-0.0210,-0.0435,1.0225,0.1221,0.0610,-0.3052,1,466,869,0
54351309,384,-0.0210,-0.0435,1.0220,0.1221,0.0610,-0.1831,1,466,861,0
54356308,385,-0.0234,-0.0439,1.0205,0.1831,0.1221,-0.2441,1,466,866,0
54361307,386,-0.0249,-0.0449,1.0210,0.1831,0.0610,-0.2441,1,465,874,0
54366306,387,-0.0244,-0.0449,1.0210,0.0000,0.1221,-0.2441,1,466,875,0
54371303,388,-0.0225,-0.0444,1.0205,0.0000,0.0610,-0.3052,1,466,826,0
54376307,389,-0.0195,-0.0439,1.0220,0.1831,0.0610,-0.2441,1,466,822,0
54381302,390,-0.0195,-0.0435,1.0229,0.1831,0.0610,-0.1831,1,465,877,0
54386302,391,-0.0215,-0.0439,1.0229,0.0000,0.0000,-0.1221,1,466,875,0
54391308,392,-0.0229,-0.0439,1.0225,0.0000,0.0000,-0.2441,1,466,767,0
54396309,393,-0.0220,-0.0449,1.0225,0.0000,0.0610,-0.2441,1,466,772,0
54401304,394,-0.0210,-0.0459,1.0234,0.0000,0.1831,-0.3052,1,466,716,0
54406306,395,-0.0225,-0.0444,1.0234,0.0000,0.1831,-0.2441,1,512,736,0
54411306,396,-0.0225,-0.0454,1.0220,0.0610,0.1831,-0.2441,1,511,828,0
54416310,397,-0.0220,-0.0444,1.0205,-0.0610,0.1221,-0.1221,1,507,882,0
54421304,398,-0.0210,-0.0449,1.0195,0.0000,0.2441,-0.1831,1,488,836,0
54426303,399,-0.0225,-0.0464,1.0200,0.0610,0.4272,-0.1831,1,503,800,0
54431302,400,-0.0244,-0.0464,1.0215,0.1221,0.1831,-0.1831,1,509,840,0
54436304,401,-0.0244,-0.0454,1.0220,0.0610,0.1221,-0.3052,1,491,825,0
54441308,402,-0.0234,-0.0449,1.0234,0.0610,0.1831,-0.2441,1,508,819,0
54446306,403,-0.0225,-0.0454,1.0239,0.1221,0.1831,-0.3052,1,510,830,0
54451301,404,-0.0225,-0.0449,1.0234,0.0610,0.1221,-0.2441,1,466,869,0
54456306,405,-0.0225,-0.0439,1.0225,0.0610,0.0610,-0.1831,1,465,871,0
54461304,406,-0.0215,-0.0439,1.0220,0.1221,0.0610,-0.1831,1,466,871,0
54466306,407,-0.0220,-0.0454,1.0220,0.1221,0.1831,-0.1831,1,466,869,0
54471308,408,-0.0234,-0.0469,1.0215,0.0610,0.1831,-0.3052,1,465,875,0
54476309,409,-0.0249,-0.0464,1.0210,0.0610,0.0610,-0.1831,1,466,865,0
54481303,410,-0.0229,-0.0454,1.0220,0.0000,0.0000,-0.1831,1,466,869,0
54486304,411,-0.0205,-0.0449,1.0244,-0.0610,0.0610,-0.2441,1,466,783,0
54491303,412,-0.0210,-0.0459,1.0244,0.0610,0.2441,-0.2441,1,466,875,0
54496347,413,-0.0225,-0.0464,1.0229,0.0610,0.0000,-0.1831,1,466,873,0
54501301,414,-0.0220,-0.0444,1.0229,0.0610,-0.0610,-0.3052,1,466,825,0
54506304,415,-0.0205,-0.0435,1.0244,-0.0610,0.0000,-0.3052,1,511,867,0
54511309,416,-0.0195,-0.0425,1.0249,0.0000,0.1831,-0.2441,1,477,754,0
54516301,417,-0.0200,-0.0420,1.0239,-0.1221,0.1221,-0.3052,1,511,763,0
54521303,418,-0.0205,-0.0435,1.0229,-0.1831,0.0000,-0.3052,1,501,884,0
54526302,419,-0.0220,-0.0435,1.0225,-0.0610,0.1831,-0.2441,1,508,817,0
54531305,420,-0.0234,-0.0444,1.0229,-0.1221,0.2441,-0.2441,1,496,861,0
54536305,421,-0.0239,-0.0459,1.0234,-0.0610,0.1831,-0.1831,1,496,868,0
54541303,422,-0.0244,-0.0454,1.0220,-0.0610,0.0610,-0.1831,1,501,829,0
54546307,423,-0.0239,-0.0459,1.0200,0.0000,0.1221,-0.1221,1,508,827,0
54551304,424,-0.0239,-0.0464,1.0190,0.0000,-0.0610,-0.1221,1,510,772,0
54556305,425,-0.0234,-0.0449,1.0205,-0.1221,0.0000,-0.1221,1,465,821,0
54561306,426,-0.0234,-0.0444,1.0220,-0.1221,0.0000,-0.1221,1,466,821,0
54566310,427,-0.0239,-0.0449,1.0225,0.0000,-0.0610,-0.2441,1,466,821,0
54571310,428,-0.0249,-0.0444,1.0220,0.0610,0.0000,-0.2441,1,466,829,0
54576309,429,-0.0244,-0.0439,1.0225,0.0000,-0.1831,-0.1831,1,466,828,0
54581306,430,-0.0229,-0.0439,1.0239,-0.0610,-0.1221,-0.1831,1,466,832,0
54586306,431,-0.0215,-0.0444,1.0239,0.0000,-0.0610,-0.1831,1,466,876,0
54591309,432,-0.0215,-0.0444,1.0229,0.1221,-0.1221,-0.2441,1,466,829,0
54596307,433,-0.0220,-0.0444,1.0225,0.1221,-0.2441,-0.1831,1,466,872,0
54601333,434,-0.0205,-0.0459,1.0234,0.1221,0.0000,-0.1831,1,466,872,0
54606306,435,-0.0205,-0.0464,1.0234,0.1221,-0.1831,-0.1221,1,466,824,0
54611309,436,-0.0215,-0.0459,1.0234,0.0000,-0.0610,-0.3052,1,510,869,0
54616307,437,-0.0210,-0.0449,1.0229,0.0000,0.1221,-0.2441,1,472,753,0
54621308,438,-0.0215,-0.0435,1.0229,0.1221,0.1221,-0.1221,1,511,768,0
54626305,439,-0.0225,-0.0430,1.0229,0.0610,0.0000,-0.2441,1,494,884,0
54631306,440,-0.0234,-0.0435,1.0239,0.0610,0.2441,-0.1831,1,508,795,0
54636308,441,-0.0225,-0.0444,1.0254,0.1221,0.1221,-0.1831,1,492,836,0
54641304,442,-0.0215,-0.0454,1.0239,0.0000,0.1831,-0.2441,1,495,865,0
54646302,443,-0.0205,-0.0454,1.0225,0.0000,0.3052,-0.2441,1,505,786,0
54651306,444,-0.0205,-0.0449,1.0225,0.0610,0.2441,-0.1831,1,490,778,0
54656302,445,-0.0210,-0.0439,1.0220,0.0000,0.2441,-0.1831,1,510,828,0
54661308,446,-0.0225,-0.0435,1.0210,-0.0610,0.1831,-0.2441,1,466,829,0
54666307,447,-0.0225,-0.0449,1.0210,0.0000,0.2441,-0.1831,1,466,869,0
54671304,448,-0.0220,-0.0464,1.0220,0.0610,0.3052,-0.1831,1,466,827,0
54676306,449,-0.0225,-0.0459,1.0234,0.0610,0.1831,-0.2441,1,465,868,0
54681301,450,-0.0239,-0.0449,1.0225,0.0000,0.1831,-0.2441,1,466,873,0
54686303,451,-0.0244,-0.0449,1.0215,0.0000,0.0610,-0.1831,1,465,831,0
54691304,452,-0.0244,-0.0454,1.0210,0.0000,0.0000,-0.1831,1,466,828,0
54696304,453,-0.0239,-0.0449,1.0205,0.0000,-0.0610,-0.1831,1,466,783,0
54701307,454,-0.0225,-0.0444,1.0215,0.0610,0.0610,-0.1831,1,466,830,0
54706349,455,-0.0205,-0.0454,1.0229,0.0000,0.1831,-0.1831,1,466,869,0
54711302,456,-0.0200,-0.0449,1.0229,-0.0610,0.1221,-0.2441,1,466,833,0
54716306,457,-0.0200,-0.0444,1.0225,-0.0610,0.1831,-0.1221,1,510,871,0
54721304,458,-0.0200,-0.0449,1.0229,0.0000,0.3052,-0.1221,1,488,858,0
54726307,459,-0.0210,-0.0454,1.0229,-0.0610,0.1831,-0.1831,1,510,829,0
54731307,460,-0.0220,-0.0459,1.0229,0.0610,0.0610,-0.1831,1,509,867,0
54736305,461,-0.0215,-0.0454,1.0229,0.1831,0.0610,-0.1221,1,496,832,0
54741307,462,-0.0205,-0.0454,1.0234,0.1831,0.0610,-0.2441,1,504,833,0
54746308,463,-0.0205,-0.0459,1.0239,0.0000,0.2441,-0.2441,1,505,869,0
54751302,464,-0.0210,-0.0459,1.0239,-0.1221,0.3052,-0.3052,1,494,783,0
54756304,465,-0.0225,-0.0454,1.0239,0.0000,0.1221,-0.2441,1,502,814,0
54761301,466,-0.0229,-0.0454,1.0225,0.0610,0.2441,-0.1221,1,511,781,0
54766305,467,-0.0229,-0.0444,1.0200,0.1831,0.3052,-0.3052,1,466,870,0
54771307,468,-0.0229,-0.0435,1.0195,0.0610,0.1831,-0.2441,1,466,868,0
54776308,469,-0.0220,-0.0439,1.0210,0.1221,0.0610,-0.2441,1,466,876,0
54781304,470,-0.0200,-0.0444,1.0210,0.1221,0.1221,-0.2441,1,466,870,0
54786305,471,-0.0200,-0.0439,1.0205,0.1221,0.1831,-0.2441,1,466,867,0
54791301,472,-0.0229,-0.0444,1.0200,0.1221,0.2441,-0.1831,1,466,872,0
54796309,473,-0.0254,-0.0444,1.0200,0.0610,0.2441,-0.2441,1,465,874,0
54801305,474,-0.0254,-0.0444,1.0210,0.1221,-0.0610,-0.1221,1,466,872,0
54806305,475,-0.0234,-0.0459,1.0215,0.0610,0.0000,-0.1831,1,466,864,0
54811320,476,-0.0215,-0.0459,1.0215,0.0000,0.0000,-0.1221,1,465,823,0
54816302,477,-0.0200,-0.0449,1.0229,0.0610,0.0610,-0.2441,1,466,762,0
54821306,478,-0.0195,-0.0444,1.0229,0.1221,0.0000,-0.2441,1,509,870,0
54826306,479,-0.0205,-0.0449,1.0225,0.0610,0.1221,-0.1221,1,477,725,0
54831302,480,-0.0215,-0.0449,1.0229,0.0000,0.1221,-0.1831,1,511,743,0
54836308,481,-0.0215,-0.0449,1.0225,0.1221,0.2441,-0.2441,1,501,788,0
54841302,482,-0.0215,-0.0444,1.0205,0.1831,0.0610,-0.1221,1,504,843,0
54846308,483,-0.0215,-0.0439,1.0215,0.1831,0.0000,-0.0610,1,509,840,0
54851305,484,-0.0220,-0.0449,1.0239,0.1221,0.1221,-0.1221,1,494,779,0
54856308,485,-0.0229,-0.0459,1.0249,0.1221,0.2441,-0.1831,1,504,819,0
54861306,486,-0.0229,-0.0454,1.0244,0.0610,0.1831,-0.2441,1,509,829,0
54866303,487,-0.0220,-0.0439,1.0239,0.1831,0.1831,-0.1831,1,511,832,0
54871309,488,-0.0215,-0.0439,1.0225,0.2441,0.1221,-0.1221,1,466,882,0
54876308,489,-0.0229,-0.0444,1.0210,0.1831,0.1221,-0.1831,1,466,867,0
54881306,490,-0.0234,-0.0444,1.0205,0.1831,0.1221,-0.2441,1,466,873,0
54886307,491,-0.0215,-0.0444,1.0215,0.2441,0.0610,-0.3052,1,466,874,0
54891308,492,-0.0210,-0.0454,1.0225,0.2441,0.0610,-0.2441,1,466,868,0
54896308,493,-0.0210,-0.0435,1.0225,0.3052,0.0000,-0.3052,1,466,873,0
54901303,494,-0.0215,-0.0420,1.0234,0.3052,0.0610,-0.2441,1,466,815,0
54906305,495,-0.0215,-0.0420,1.0239,0.1221,0.0610,-0.2441,1,466,869,0
54911302,496,-0.0210,-0.0435,1.0244,0.2441,0.1831,-0.2441,1,466,869,0
54916305,497,-0.0190,-0.0435,1.0239,0.0610,0.1831,-0.2441,1,466,876,0
54921342,498,-0.0190,-0.0449,1.0239,0.0610,0.1831,-0.2441,1,466,876,0
54926308,499,-0.0205,-0.0459,1.0234,0.0000,0.1831,-0.0610,1,466,876,0
54931304,500,-0.0225,-0.0449,1.0225,0.1831,0.2441,-0.3052,1,511,815,0
54936302,501,-0.0225,-0.0444,1.0220,0.1831,0.0610,-0.1221,1,505,861,0
54941302,502,-0.0215,-0.0449,1.0220,0.1221,0.2441,-0.1221,1,473,866,0
54946310,503,-0.0205,-0.0449,1.0220,0.0000,0.3052,-0.1831,1,502,890,0
54951308,504,-0.0205,-0.0444,1.0225,0.0000,0.2441,-0.1831,1,499,808,0
54956307,505,-0.0215,-0.0449,1.0225,-0.0610,0.4883,-0.3052,1,492,784,0
54961306,506,-0.0210,-0.0459,1.0225,0.0000,0.6104,-0.2441,1,502,819,0
54966305,507,-0.0205,-0.0459,1.0220,0.0000,0.4272,-0.1831,1,492,775,0
54971303,508,-0.0205,-0.0444,1.0234,0.0000,0.5493,-0.2441,1,509,780,0
54976304,509,-0.0210,-0.0439,1.0249,0.1221,0.4272,-0.1221,1,466,830,0
54981309,510,-0.0215,-0.0444,1.0229,0.1831,0.3662,-0.1831,1,466,868,0
54986304,511,-0.0225,-0.0449,1.0210,0.1221,0.4883,-0.2441,1,466,880,0
54991303,512,-0.0225,-0.0439,1.0215,0.1221,0.2441,-0.2441,1,466,868,0
54996309,513,-0.0210,-0.0425,1.0220,0.0000,0.3052,-0.1221,1,466,872,0
55001304,514,-0.0205,-0.0425,1.0234,-0.0610,0.3052,-0.1831,1,466,815,0
55006307,515,-0.0205,-0.0435,1.0244,-0.1831,0.3662,-0.2441,1,466,871,0
55011302,516,-0.0210,-0.0449,1.0249,-0.1221,0.2441,-0.2441,1,466,879,0
55016302,517,-0.0234,-0.0454,1.0234,-0.0610,0.2441,-0.1221,1,466,875,0
55021308,518,-0.0244,-0.0449,1.0225,-0.0610,0.2441,-0.1831,1,466,873,0
55026301,519,-0.0220,-0.0444,1.0229,-0.1221,0.1831,-0.1831,1,466,875,0
55031310,520,-0.0200,-0.0439,1.0234,-0.1221,0.3052,-0.2441,1,509,876,0
55036302,521,-0.0205,-0.0435,1.0234,-0.0610,0.1831,-0.3052,1,470,858,0
55041307,522,-0.0205,-0.0430,1.0229,-0.0610,0.1831,-0.0610,1,511,859,0
55046307,523,-0.0205,-0.0425,1.0239,-0.1831,0.4272,-0.0610,1,491,867,0
55051308,524,-0.0205,-0.0435,1.0234,-0.1221,0.4883,-0.2441,1,490,836,0
55056302,525,-0.0205,-0.0444,1.0229,-0.1831,0.3662,-0.1221,1,501,841,0
55061309,526,-0.0210,-0.0454,1.0229,-0.1221,0.3662,-0.1831,1,494,868,0
55066309,527,-0.0205,-0.0454,1.0225,-0.0610,0.4272,-0.1831,1,499,828,0
55071301,528,-0.0200,-0.0449,1.0225,-0.0610,0.5493,-0.2441,1,506,828,0
55076306,529,-0.0229,-0.0449,1.0220,-0.1221,0.4883,-0.1221,1,510,827,0
55081304,530,-0.0259,-0.0444,1.0205,-0.2441,0.4272,-0.1831,1,510,821,0
55086308,531,-0.0254,-0.0439,1.0195,-0.2441,0.3662,-0.1831,1,466,877,0
55091302,532,-0.0229,-0.0444,1.0190,-0.3052,0.2441,-0.3052,1,466,879,0
55096306,533,-0.0215,-0.0454,1.0210,-0.0610,0.1831,-0.1221,1,466,870,0
55101307,534,-0.0200,-0.0449,1.0234,-0.0610,0.1831,-0.1221,1,466,868,0
55106302,535,-0.0181,-0.0425,1.0254,-0.3052,0.2441,-0.1831,1,466,871,0
55111304,536,-0.0176,-0.0420,1.0249,-0.3052,0.4272,-0.1221,1,466,869,0
55116305,537,-0.0210,-0.0435,1.0234,-0.2441,0.3662,-0.1221,1,465,868,0
55121305,538,-0.0234,-0.0449,1.0220,-0.3662,0.3662,-0.1831,1,465,873,0
55126319,539,-0.0225,-0.0444,1.0205,-0.3052,0.3052,-0.1221,1,466,878,0
55131307,540,-0.0205,-0.0435,1.0215,-0.3662,0.4272,-0.0610,1,466,861,0
55136304,541,-0.0210,-0.0444,1.0229,-0.3052,0.4883,-0.1221,1,509,871,0
55141307,542,-0.0220,-0.0454,1.0225,-0.3662,0.5493,-0.1831,1,485,854,0
55146302,543,-0.0215,-0.0449,1.0220,-0.2441,0.4272,-0.0610,1,511,866,0
55151306,544,-0.0215,-0.0425,1.0234,-0.3662,0.6104,-0.1221,1,480,844,0
55156306,545,-0.0220,-0.0430,1.0249,-0.3662,0.6714,-0.1831,1,510,829,0
55161309,546,-0.0215,-0.0449,1.0244,-0.1831,0.4272,-0.0610,1,499,836,0
55166303,547,-0.0210,-0.0454,1.0244,-0.3662,0.5493,-0.1831,1,507,801,0
55171303,548,-0.0210,-0.0449,1.0234,-0.4272,0.6104,-0.0610,1,499,833,0
55176306,549,-0.0215,-0.0449,1.0225,-0.3052,0.6714,0.0000,1,504,823,0
55181308,550,-0.0225,-0.0444,1.0220,-0.3052,0.6104,0.0000,1,509,775,0
55186308,551,-0.0225,-0.0449,1.0220,-0.4883,0.4883,0.0000,1,466,818,0
55191302,552,-0.0225,-0.0459,1.0210,-0.2441,0.4883,-0.0610,1,466,823,0
55196305,553,-0.0220,-0.0469,1.0210,-0.2441,0.4272,-0.1221,1,466,867,0
55201306,554,-0.0215,-0.0474,1.0220,-0.3662,0.5493,-0.0610,1,466,868,0
55206309,555,-0.0229,-0.0469,1.0229,-0.3662,0.4272,-0.1831,1,466,872,0
55211304,556,-0.0225,-0.0464,1.0234,-0.2441,0.3662,-0.1221,1,466,878,0
55216302,557,-0.0225,-0.0454,1.0229,-0.2441,0.4883,-0.0610,1,466,873,0
55221309,558,-0.0229,-0.0449,1.0225,-0.1831,0.5493,-0.0610,1,466,874,0
55226301,559,-0.0229,-0.0459,1.0215,-0.1221,0.5493,-0.0610,1,466,877,0
55231351,560,-0.0234,-0.0474,1.0210,-0.1831,0.4272,-0.1221,1,466,867,0
55236309,561,-0.0225,-0.0444,1.0225,0.0610,0.3662,-0.0610,1,466,868,0
55241303,562,-0.0205,-0.0410,1.0244,-0.1221,0.5493,-0.0610,1,511,869,0
55246307,563,-0.0200,-0.0439,1.0234,-0.2441,0.4883,-0.1831,1,511,859,0
55251309,564,-0.0254,-0.0464,1.0200,0.0000,0.3052,0.0610,1,511,797,0
55256309,565,-0.0249,-0.0444,1.0210,-0.1221,0.3662,-0.0610,1,502,785,0
55261305,566,-0.0215,-0.0449,1.0225,-0.0610,0.3662,0.0610,1,492,840,0
55266301,567,-0.0190,-0.0454,1.0225,-0.0610,0.4883,0.1221,1,510,838,0
55271309,568,-0.0210,-0.0464,1.0225,-0.1831,0.4272,0.0610,1,502,821,0
55276304,569,-0.0244,-0.0459,1.0215,-0.1831,0.3052,0.0000,1,505,823,0
55281307,570,-0.0259,-0.0454,1.0210,-0.1831,0.1831,-0.0610,1,504,778,0
55286302,571,-0.0254,-0.0449,1.0215,-0.0610,0.0610,-0.0610,1,466,826,0
55291306,572,-0.0244,-0.0444,1.0225,-0.0610,0.0610,-0.1221,1,466,864,0
55296305,573,-0.0229,-0.0454,1.0220,-0.0610,0.0000,-0.1221,1,466,868,0
55301307,574,-0.0225,-0.0459,1.0225,-0.0610,0.1221,-0.0610,1,466,825,0
55306302,575,-0.0225,-0.0454,1.0244,-0.0610,0.0610,0.0000,1,466,864,0
55311307,576,-0.0225,-0.0454,1.0249,-0.0610,0.0610,-0.0610,1,466,825,0
55316301,577,-0.0229,-0.0454,1.0249,-0.1221,0.2441,-0.0610,1,466,870,0
55321309,578,-0.0225,-0.0449,1.0249,-0.0610,0.2441,0.0000,1,466,875,0
55326302,579,-0.0215,-0.0454,1.0249,-0.1221,0.3052,-0.0610,1,466,829,0
55331337,580,-0.0210,-0.0464,1.0234,-0.2441,0.4272,-0.1221,1,466,867,0
55336307,581,-0.0210,-0.0454,1.0210,-0.3052,0.4272,-0.1831,1,466,870,0
55341301,582,-0.0239,-0.0449,1.0190,-0.1221,0.5493,-0.1221,1,510,869,0
55346307,583,-0.0259,-0.0454,1.0186,-0.1221,0.1831,-0.1831,1,506,858,0
55351306,584,-0.0249,-0.0464,1.0200,-0.1221,0.0610,-0.1831,1,511,807,0
55356304,585,-0.0234,-0.0459,1.0210,-0.1221,0.2441,-0.2441,1,493,839,0
55361308,586,-0.0225,-0.0449,1.0215,-0.1831,0.3052,-0.2441,1,504,832,0
55366303,587,-0.0229,-0.0449,1.0220,-0.1221,0.2441,-0.1221,1,509,833,0
55371304,588,-0.0234,-0.0449,1.0229,0.0610,0.1221,-0.1221,1,499,824,0
55376302,589,-0.0229,-0.0449,1.0229,-0.0610,0.1831,-0.1831,1,507,820,0
55381304,590,-0.0215,-0.0454,1.0239,-0.1221,0.1221,-0.1831,1,510,832,0
55386310,591,-0.0205,-0.0464,1.0234,0.0610,0.0610,-0.1831,1,511,824,0
55391303,592,-0.0220,-0.0464,1.0210,-0.1831,0.0610,-0.1221,1,466,868,0
55396308,593,-0.0239,-0.0459,1.0190,-0.1221,0.0610,-0.1221,1,466,865,0
55401301,594,-0.0234,-0.0454,1.0190,-0.0610,-0.1221,-0.1831,1,466,866,0
55406303,595,-0.0220,-0.0459,1.0205,-0.0610,-0.2441,-0.2441,1,466,871,0
55411308,596,-0.0215,-0.0459,1.0220,-0.0610,-0.3052,-0.1831,1,466,875,0
55416302,597,-0.0210,-0.0459,1.0220,0.0610,-0.1831,-0.1221,1,465,868,0
55421302,598,-0.0220,-0.0469,1.0210,0.0610,-0.1221,-0.1831,1,466,866,0
55426302,599,-0.0229,-0.0474,1.0210,0.0000,-0.1831,-0.1221,1,466,864,0
55431302,600,-0.0225,-0.0469,1.0215,-0.1221,-0.1221,-0.1221,1,466,823,0
55436333,601,-0.0210,-0.0469,1.0229,-0.0610,-0.3052,-0.1831,1,465,861,0
55441307,602,-0.0200,-0.0459,1.0234,-0.0610,-0.1831,-0.2441,1,466,865,0
55446305,603,-0.0195,-0.0439,1.0244,-0.0610,-0.1221,-0.1831,1,510,873,0
55451307,604,-0.0190,-0.0435,1.0244,-0.1831,-0.0610,-0.0610,1,496,874,0
55456306,605,-0.0195,-0.0449,1.0234,-0.1831,0.0610,-0.1221,1,511,861,0
55461309,606,-0.0210,-0.0459,1.0220,-0.1831,0.0000,-0.1831,1,483,843,0
55466306,607,-0.0225,-0.0454,1.0210,-0.1831,-0.1221,-0.1221,1,509,795,0
55471304,608,-0.0249,-0.0449,1.0195,-0.1831,-0.0610,-0.1221,1,499,851,0
55476304,609,-0.0249,-0.0459,1.0181,-0.1831,-0.1221,-0.1221,1,489,866,0
55481308,610,-0.0225,-0.0459,1.0190,-0.0610,-0.1831,-0.1221,1,501,819,0
55486307,611,-0.0215,-0.0464,1.0215,0.0000,-0.1831,-0.1831,1,478,822,0
55491308,612,-0.0234,-0.0483,1.0239,-0.0610,-0.1831,-0.1831,1,510,780,0
55496307,613,-0.0234,-0.0488,1.0239,0.0000,-0.1831,-0.1221,1,466,877,0
55501304,614,-0.0225,-0.0454,1.0234,0.0610,-0.1831,-0.1221,1,466,829,0
55506309,615,-0.0215,-0.0430,1.0234,0.0000,-0.0610,-0.3052,1,466,872,0
55511308,616,-0.0205,-0.0435,1.0239,0.0000,-0.0610,-0.1221,1,466,822,0
55516304,617,-0.0190,-0.0444,1.0244,-0.0610,0.0610,-0.1831,1,466,823,0
55521302,618,-0.0190,-0.0449,1.0229,-0.0610,0.1831,-0.1831,1,466,874,0
55526302,619,-0.0205,-0.0449,1.0210,-0.0610,0.1221,-0.2441,1,466,878,0
55531305,620,-0.0215,-0.0444,1.0210,0.0000,0.2441,-0.3052,1,466,869,0
55536308,621,-0.0220,-0.0449,1.0225,-0.1221,0.3662,-0.1831,1,466,822,0
55541349,622,-0.0210,-0.0449,1.0244,-0.1221,0.3052,-0.1221,1,466,873,0
55546304,623,-0.0210,-0.0459,1.0244,-0.1221,0.4272,-0.1221,1,466,864,0
55551304,624,-0.0225,-0.0469,1.0225,-0.1221,0.5493,-0.2441,1,466,855,0
55556308,625,-0.0225,-0.0479,1.0210,-0.2441,0.4883,-0.3052,1,489,856,0
55561304,626,-0.0215,-0.0474,1.0215,-0.0610,0.3052,-0.1831,1,511,799,0
55566302,627,-0.0205,-0.0449,1.0225,-0.1221,0.2441,-0.2441,1,491,827,0
55571301,628,-0.0195,-0.0449,1.0239,-0.1831,0.3052,-0.2441,1,502,843,0
55576304,629,-0.0195,-0.0454,1.0239,-0.1831,0.4272,-0.1221,1,492,847,0
55581302,630,-0.0210,-0.0459,1.0225,-0.1831,0.4883,-0.1831,1,503,830,0
55586301,631,-0.0234,-0.0469,1.0195,-0.2441,0.4883,-0.3052,1,495,824,0
55591307,632,-0.0249,-0.0479,1.0181,-0.1221,0.3662,-0.3052,1,510,821,0
55596302,633,-0.0244,-0.0479,1.0205,-0.1221,0.2441,-0.1221,1,466,864,0
55601302,634,-0.0225,-0.0464,1.0229,-0.1221,0.1831,-0.1221,1,466,869,0
55606301,635,-0.0225,-0.0459,1.0220,-0.1221,0.2441,-0.1831,1,466,868,0
55611307,636,-0.0239,-0.0469,1.0190,-0.1831,0.1221,-0.1831,1,466,870,0
55616301,637,-0.0249,-0.0474,1.0181,0.0000,0.1221,-0.0610,1,466,873,0
55621304,638,-0.0225,-0.0464,1.0190,0.0000,0.0610,-0.1831,1,466,820,0
55626306,639,-0.0190,-0.0459,1.0215,0.0000,0.0000,-0.1831,1,466,823,0
55631309,640,-0.0161,-0.0459,1.0244,-0.0610,0.1221,-0.2441,1,466,779,0
55636304,641,-0.0161,-0.0454,1.0259,0.1221,0.2441,-0.3052,1,466,874,0
55641306,642,-0.0190,-0.0459,1.0244,0.0000,0.1831,-0.3662,1,466,871,0
55646307,643,-0.0229,-0.0474,1.0220,0.0000,0.0610,-0.3662,1,466,830,0
55651303,644,-0.0229,-0.0479,1.0225,0.0610,0.1221,-0.1831,1,470,768,0
55656301,645,-0.0210,-0.0469,1.0234,0.1221,0.1221,-0.1831,1,502,857,0
55661302,646,-0.0200,-0.0464,1.0244,0.1221,0.2441,-0.2441,1,481,826,0
55666303,647,-0.0205,-0.0469,1.0244,-0.0610,0.3052,-0.1221,1,510,833,0
55671302,648,-0.0225,-0.0469,1.0244,-0.1221,0.4272,-0.1831,1,498,846,0
55676306,649,-0.0244,-0.0469,1.0234,-0.0610,0.3662,-0.2441,1,490,824,0
55681307,650,-0.0244,-0.0449,1.0229,0.0000,0.1221,-0.3052,1,501,827,0
55686305,651,-0.0229,-0.0444,1.0220,0.1831,0.2441,-0.1831,1,491,777,0
55691310,652,-0.0205,-0.0459,1.0220,0.1221,0.2441,-0.2441,1,510,833,0
55696305,653,-0.0195,-0.0474,1.0220,0.0000,0.1831,-0.3052,1,466,870,0
55701301,654,-0.0215,-0.0479,1.0210,0.0000,0.4272,-0.1831,1,466,825,0
55706303,655,-0.0239,-0.0464,1.0190,0.1831,0.2441,-0.0610,1,466,825,0
55711308,656,-0.0244,-0.0454,1.0195,0.0610,0.0610,-0.1831,1,466,874,0
55716305,657,-0.0229,-0.0454,1.0210,0.0610,0.3052,-0.2441,1,466,875,0
55721309,658,-0.0210,-0.0464,1.0220,0.3052,0.1831,-0.1831,1,466,869,0
55726302,659,-0.0205,-0.0474,1.0225,0.1831,0.2441,-0.1831,1,466,868,0
55731305,660,-0.0220,-0.0479,1.0200,0.1221,0.1831,-0.1221,1,466,876,0
55736310,661,-0.0239,-0.0474,1.0190,0.1221,0.0610,-0.1831,1,466,865,0
55741309,662,-0.0244,-0.0464,1.0210,0.1221,-0.0610,-0.1221,1,466,868,0
55746304,663,-0.0220,-0.0449,1.0239,0.1831,0.0000,-0.1831,1,466,861,0
55751302,664,-0.0186,-0.0439,1.0264,0.1221,0.1831,-0.3052,1,483,765,0
55756305,665,-0.0176,-0.0444,1.0254,0.0000,0.3052,-0.2441,1,512,801,0
55761304,666,-0.0210,-0.0454,1.0220,0.0610,0.3052,-0.1831,1,469,795,0
55766304,667,-0.0229,-0.0469,1.0205,0.0610,0.1831,-0.3052,1,477,838,0
55771302,668,-0.0210,-0.0474,1.0225,0.0610,0.1221,-0.2441,1,508,849,0
55776302,669,-0.0195,-0.0474,1.0234,0.0000,0.1831,-0.2441,1,501,818,0
55781308,670,-0.0215,-0.0464,1.0229,0.0610,0.1221,-0.3662,1,490,784,0
55786307,671,-0.0249,-0.0454,1.0210,0.0610,0.1831,-0.3662,1,486,822,0
55791304,672,-0.0259,-0.0459,1.0205,0.0000,0.2441,-0.2441,1,510,828,0
55796304,673,-0.0244,-0.0464,1.0205,0.0000,0.1221,-0.1831,1,466,826,0
55801305,674,-0.0220,-0.0469,1.0210,0.0000,0.1221,-0.3052,1,466,825,0
55806308,675,-0.0210,-0.0464,1.0215,0.0000,0.1831,-0.3052,1,466,814,0
55811304,676,-0.0215,-0.0464,1.0210,0.1221,0.0610,-0.1831,1,465,821,0
55816308,677,-0.0220,-0.0469,1.0210,0.0610,0.1831,-0.2441,1,466,863,0
55821304,678,-0.0225,-0.0469,1.0205,0.0000,0.1831,-0.3052,1,466,869,0
55826310,679,-0.0225,-0.0479,1.0215,0.0610,0.0000,-0.3662,1,466,821,0
55831301,680,-0.0220,-0.0479,1.0225,0.1831,0.0000,-0.4272,1,466,822,0
55836338,681,-0.0229,-0.0464,1.0229,0.1831,0.0000,-0.4883,1,466,825,0
55841307,682,-0.0239,-0.0459,1.0225,0.2441,-0.1221,-0.3052,1,466,828,0
55846303,683,-0.0234,-0.0469,1.0220,0.2441,-0.1831,-0.3052,1,511,867,0
55851303,684,-0.0225,-0.0459,1.0220,0.1831,-0.1831,-0.3662,1,511,857,0
55856301,685,-0.0220,-0.0439,1.0229,0.2441,-0.3052,-0.3052,1,493,871,0
55861301,686,-0.0215,-0.0439,1.0234,0.3662,-0.3662,-0.3662,1,481,832,0
55866305,687,-0.0205,-0.0444,1.0244,0.2441,-0.2441,-0.3662,1,485,841,0
55871306,688,-0.0200,-0.0449,1.0259,0.0610,-0.1221,-0.3052,1,508,864,0
55876302,689,-0.0205,-0.0449,1.0259,0.0610,-0.2441,-0.3052,1,496,816,0
55881302,690,-0.0210,-0.0449,1.0249,0.0000,-0.2441,-0.2441,1,487,823,0
55886301,691,-0.0225,-0.0449,1.0234,0.0000,-0.2441,-0.2441,1,511,784,0
55891306,692,-0.0234,-0.0449,1.0225,0.0000,-0.3052,-0.3052,1,465,831,0
55896308,693,-0.0229,-0.0454,1.0225,0.0610,-0.1831,-0.2441,1,466,819,0
55901303,694,-0.0220,-0.0459,1.0215,0.0000,-0.1831,-0.1831,1,466,878,0
55906307,695,-0.0205,-0.0464,1.0210,-0.0610,-0.1831,-0.3052,1,466,829,0
55911301,696,-0.0200,-0.0469,1.0220,0.0000,-0.3052,-0.2441,1,466,866,0
55916305,697,-0.0205,-0.0474,1.0229,0.1221,-0.2441,-0.1831,1,466,819,0
55921303,698,-0.0205,-0.0464,1.0225,0.1221,-0.1221,-0.1831,1,466,875,0
55926302,699,-0.0205,-0.0459,1.0210,0.0000,-0.2441,-0.3662,1,466,868,0
55931301,700,-0.0205,-0.0464,1.0200,0.0000,-0.3052,-0.3052,1,466,827,0
55936348,701,-0.0220,-0.0469,1.0200,0.0610,-0.2441,-0.3052,1,466,816,0
55941301,702,-0.0220,-0.0469,1.0210,0.0000,-0.2441,-0.3662,1,466,863,0
55946304,703,-0.0200,-0.0474,1.0234,0.0610,0.0000,-0.3662,1,466,757,0
55951306,704,-0.0181,-0.0474,1.0264,0.1831,-0.1221,-0.3662,1,511,813,0
55956301,705,-0.0186,-0.0454,1.0264,0.0610,0.0000,-0.2441,1,487,895,0
55961308,706,-0.0205,-0.0449,1.0239,0.1221,0.1831,-0.2441,1,491,788,0
55966301,707,-0.0220,-0.0459,1.0215,-0.0610,0.1221,-0.1831,1,489,838,0
55971304,708,-0.0225,-0.0464,1.0215,0.0000,-0.1221,-0.1831,1,486,820,0
55976304,709,-0.0229,-0.0464,1.0225,0.1221,-0.0610,-0.2441,1,493,776,0
55981303,710,-0.0244,-0.0469,1.0229,0.1221,0.0000,-0.3052,1,502,822,0
55986301,711,-0.0239,-0.0464,1.0229,0.1221,-0.1221,-0.3662,1,466,773,0
55991302,712,-0.0215,-0.0459,1.0239,0.1221,-0.1831,-0.3662,1,466,870,0
55996303,713,-0.0205,-0.0454,1.0249,0.0000,-0.1221,-0.3662,1,466,874,0
56001302,714,-0.0190,-0.0449,1.0259,0.0000,-0.0610,-0.3052,1,466,829,0
56006302,715,-0.0181,-0.0454,1.0249,0.1221,0.0000,-0.2441,1,466,823,0
56011304,716,-0.0181,-0.0454,1.0225,-0.0610,0.0610,-0.2441,1,466,827,0
56016301,717,-0.0200,-0.0459,1.0205,-0.1831,-0.1221,-0.3052,1,466,869,0
56021308,718,-0.0210,-0.0469,1.0210,0.0000,-0.1221,-0.1831,1,466,866,0
56026305,719,-0.0200,-0.0469,1.0234,0.0610,-0.0610,-0.2441,1,466,819,0
56031324,720,-0.0190,-0.0454,1.0259,0.0000,0.1221,-0.3662,1,466,869,0
56036302,721,-0.0195,-0.0435,1.0259,-0.1221,0.0000,-0.1831,1,466,825,0
56041308,722,-0.0205,-0.0435,1.0234,-0.2441,0.2441,-0.3662,1,509,822,0
56046307,723,-0.0215,-0.0449,1.0220,-0.1221,0.1221,-0.3052,1,486,867,0
56051308,724,-0.0220,-0.0464,1.0225,-0.1221,0.0610,-0.1831,1,511,795,0
56056302,725,-0.0195,-0.0464,1.0244,-0.1221,0.2441,-0.2441,1,494,837,0
56061308,726,-0.0166,-0.0459,1.0254,-0.2441,0.1831,-0.1831,1,498,845,0
56066304,727,-0.0171,-0.0469,1.0239,-0.1831,0.3662,-0.3052,1,479,848,0
56071310,728,-0.0200,-0.0474,1.0234,-0.2441,0.4272,-0.2441,1,493,822,0
56076303,729,-0.0205,-0.0464,1.0234,-0.2441,0.4883,-0.2441,1,476,830,0
56081301,730,-0.0186,-0.0459,1.0234,-0.1831,0.4883,-0.3052,1,510,829,0
56086308,731,-0.0186,-0.0454,1.0225,-0.1221,0.4883,-0.3052,1,466,868,0
56091304,732,-0.0210,-0.0459,1.0215,-0.2441,0.6104,-0.3052,1,466,865,0
56096304,733,-0.0229,-0.0464,1.0205,-0.1831,0.4883,-0.1831,1,466,864,0
56101305,734,-0.0239,-0.0459,1.0205,-0.1221,0.4272,-0.3662,1,466,877,0
56106308,735,-0.0229,-0.0449,1.0220,-0.2441,0.3662,-0.3052,1,466,873,0
56111304,736,-0.0220,-0.0454,1.0234,-0.1831,0.4272,-0.3052,1,466,876,0
56116306,737,-0.0205,-0.0454,1.0234,-0.2441,0.4883,-0.3052,1,466,876,0
56121303,738,-0.0200,-0.0464,1.0220,-0.3052,0.5493,-0.2441,1,466,875,0
56126302,739,-0.0195,-0.0474,1.0225,-0.3662,0.6104,-0.1831,1,466,871,0
56131325,740,-0.0195,-0.0479,1.0229,-0.3662,0.6104,-0.1221,1,466,873,0
56136308,741,-0.0195,-0.0469,1.0234,-0.2441,0.6714,-0.1831,1,483,869,0
56141305,742,-0.0200,-0.0459,1.0244,-0.2441,0.7324,-0.1831,1,468,864,0
56146304,743,-0.0220,-0.0464,1.0249,-0.2441,0.6104,-0.0610,1,512,866,0
56151310,744,-0.0225,-0.0479,1.0239,-0.2441,0.4883,-0.1221,1,491,784,0
56156309,745,-0.0200,-0.0469,1.0225,-0.2441,0.6104,-0.1831,1,499,841,0
56161302,746,-0.0190,-0.0449,1.0234,-0.2441,0.6714,-0.0610,1,501,829,0
56166307,747,-0.0195,-0.0444,1.0234,-0.2441,0.7324,-0.0610,1,493,872,0
56171302,748,-0.0210,-0.0454,1.0225,-0.3052,0.6714,-0.2441,1,494,832,0
56176306,749,-0.0229,-0.0483,1.0215,-0.2441,0.6714,-0.1831,1,497,822,0
56181304,750,-0.0229,-0.0479,1.0229,-0.2441,0.5493,-0.2441,1,510,831,0
56186304,751,-0.0215,-0.0474,1.0234,-0.1831,0.5493,-0.1831,1,466,881,0
56191301,752,-0.0205,-0.0469,1.0225,-0.0610,0.5493,-0.0610,1,466,878,0
56196309,753,-0.0205,-0.0474,1.0210,-0.0610,0.6104,-0.1831,1,466,868,0
56201304,754,-0.0210,-0.0483,1.0205,0.0610,0.6714,-0.2441,1,466,867,0
56206308,755,-0.0210,-0.0483,1.0215,-0.1221,0.7324,-0.2441,1,466,872,0
56211301,756,-0.0210,-0.0469,1.0239,0.0000,0.7324,-0.3052,1,466,873,0
56216304,757,-0.0215,-0.0459,1.0239,0.0610,0.7935,-0.3052,1,466,822,0
56221309,758,-0.0229,-0.0464,1.0225,0.0000,0.7935,-0.2441,1,465,868,0
56226323,759,-0.0234,-0.0464,1.0210,0.0000,0.6104,-0.2441,1,466,827,0
56231303,760,-0.0229,-0.0459,1.0200,0.0610,0.6104,-0.2441,1,465,821,0
56236302,761,-0.0229,-0.0464,1.0205,0.1221,0.6104,-0.1831,1,483,868,0
56241306,762,-0.0225,-0.0469,1.0220,0.0000,0.6714,-0.2441,1,483,857,0
56246303,763,-0.0225,-0.0479,1.0225,0.0000,0.5493,-0.3052,1,512,820,0
56251301,764,-0.0225,-0.0488,1.0225,0.1221,0.4272,-0.2441,1,499,791,0
56256309,765,-0.0225,-0.0488,1.0220,0.0610,0.3052,-0.1831,1,492,841,0
56261305,766,-0.0220,-0.0479,1.0215,0.0000,0.3662,-0.3052,1,492,852,0
56266305,767,-0.0220,-0.0469,1.0215,-0.1831,0.4883,-0.3052,1,501,775,0
56271305,768,-0.0229,-0.0459,1.0215,-0.0610,0.3662,-0.2441,1,486,819,0
56276302,769,-0.0225,-0.0454,1.0225,-0.1221,0.3052,-0.1831,1,504,828,0
56281304,770,-0.0205,-0.0454,1.0249,-0.1831,0.3662,-0.1831,1,466,822,0
56286309,771,-0.0200,-0.0459,1.0249,-0.1831,0.4272,-0.2441,1,466,880,0
56291304,772,-0.0215,-0.0474,1.0220,-0.3052,0.4883,-0.2441,1,466,877,0
56296306,773,-0.0215,-0.0474,1.0195,-0.3052,0.5493,-0.3662,1,466,869,0
56301308,774,-0.0205,-0.0469,1.0210,-0.3052,0.6714,-0.1831,1,466,871,0
56306309,775,-0.0205,-0.0459,1.0229,-0.3052,0.6714,-0.2441,1,466,866,0
56311301,776,-0.0195,-0.0459,1.0234,-0.1831,0.6714,-0.2441,1,466,872,0
56316305,777,-0.0190,-0.0464,1.0234,-0.1831,0.8545,-0.3052,1,466,878,0
56321302,778,-0.0205,-0.0474,1.0229,-0.3052,0.9155,-0.1831,1,466,871,0
56326326,779,-0.0220,-0.0483,1.0225,-0.1831,0.9155,-0.1831,1,466,874,0
56331334,780,-0.0220,-0.0483,1.0234,-0.3662,0.9766,-0.2441,1,466,879,0
56336304,781,-0.0215,-0.0479,1.0225,-0.3052,0.9155,-0.1831,1,484,877,0
56341304,782,-0.0220,-0.0464,1.0210,-0.1831,0.8545,-0.1831,1,484,858,0
56346305,783,-0.0225,-0.0464,1.0210,-0.4272,0.7935,-0.1831,1,511,791,0
56351305,784,-0.0225,-0.0469,1.0215,-0.3052,0.6714,-0.1221,1,481,831,0
56356304,785,-0.0220,-0.0474,1.0225,-0.3052,0.7324,-0.1221,1,509,830,0
56361310,786,-0.0215,-0.0488,1.0234,-0.4272,0.7324,-0.1831,1,492,836,0
56366301,787,-0.0220,-0.0493,1.0220,-0.4272,0.7935,-0.1831,1,493,871,0
56371305,788,-0.0239,-0.0488,1.0195,-0.4883,0.8545,-0.1221,1,484,828,0
56376303,789,-0.0254,-0.0488,1.0190,-0.4883,0.7324,-0.1221,1,495,825,0
56381302,790,-0.0239,-0.0483,1.0205,-0.4272,0.6714,-0.1831,1,511,822,0
56386306,791,-0.0225,-0.0464,1.0234,-0.4883,0.6714,-0.0610,1,466,879,0
56391301,792,-0.0220,-0.0459,1.0254,-0.4883,0.6714,-0.2441,1,466,869,0
56396302,793,-0.0229,-0.0474,1.0244,-0.3662,0.7935,-0.1221,1,466,871,0
56401304,794,-0.0249,-0.0479,1.0229,-0.3052,0.7324,-0.0610,1,466,875,0
56406310,795,-0.0254,-0.0483,1.0229,-0.4272,0.6714,-0.1221,1,466,873,0
56411305,796,-0.0239,-0.0488,1.0229,-0.3662,0.5493,-0.1831,1,466,872,0
56416306,797,-0.0234,-0.0474,1.0220,-0.2441,0.5493,-0.1221,1,466,883,0
56421304,798,-0.0229,-0.0459,1.0215,-0.3052,0.5493,-0.0610,1,466,872,0
56426312,799,-0.0225,-0.0469,1.0220,-0.3662,0.6714,-0.3052,1,466,870,0
56431317,800,-0.0215,-0.0483,1.0210,-0.3052,0.7935,-0.3052,1,466,866,0
56436309,801,-0.0210,-0.0483,1.0195,-0.0610,0.7935,-0.1221,1,483,863,0
56441306,802,-0.0220,-0.0483,1.0195,-0.2441,0.7935,-0.2441,1,492,868,0
56446304,803,-0.0239,-0.0488,1.0205,-0.2441,0.7324,-0.2441,1,500,867,0
56451304,804,-0.0239,-0.0469,1.0205,-0.2441,0.6714,-0.1221,1,477,908,0
56456306,805,-0.0229,-0.0459,1.0210,-0.3052,0.7324,-0.1831,1,503,852,0
56461302,806,-0.0220,-0.0483,1.0225,-0.2441,0.7324,-0.1221,1,509,841,0
56466303,807,-0.0215,-0.0498,1.0220,-0.1221,0.6714,-0.1831,1,476,866,0
56471304,808,-0.0215,-0.0488,1.0210,-0.2441,0.6714,-0.1831,1,501,825,0
56476304,809,-0.0215,-0.0474,1.0220,-0.3052,0.8545,-0.1221,1,477,826,0
56481301,810,-0.0220,-0.0493,1.0229,-0.1831,0.9766,-0.0610,1,510,815,0
56486303,811,-0.0229,-0.0513,1.0215,-0.0610,0.9155,-0.0610,1,466,873,0
56491306,812,-0.0259,-0.0503,1.0195,-0.1221,0.9766,-0.0610,1,466,870,0
56496308,813,-0.0288,-0.0498,1.0171,0.0000,0.9766,-0.0610,1,466,865,0
56501302,814,-0.0293,-0.0513,1.0156,0.0610,0.6714,0.0000,1,466,824,0
56506302,815,-0.0283,-0.0513,1.0161,0.1831,0.6104,-0.1831,1,465,824,0
56511308,816,-0.0269,-0.0508,1.0195,0.2441,0.3662,-0.3662,1,465,876,0
56516304,817,-0.0254,-0.0493,1.0234,0.4272,0.3662,-0.3052,1,466,876,0
56521307,818,-0.0244,-0.0483,1.0234,0.3662,0.4272,-0.2441,1,466,875,0
56526307,819,-0.0244,-0.0488,1.0220,0.3052,0.4272,-0.3662,1,466,884,0
56531302,820,-0.0249,-0.0474,1.0225,0.3052,0.1831,-0.3052,1,466,874,0
56536306,821,-0.0229,-0.0469,1.0234,0.3052,0.1221,-0.3662,1,483,868,0
56541308,822,-0.0220,-0.0469,1.0244,0.2441,0.3052,-0.3662,1,509,868,0
56546305,823,-0.0215,-0.0483,1.0249,0.1831,0.3052,-0.3052,1,484,859,0
56551302,824,-0.0220,-0.0483,1.0244,0.2441,0.3052,-0.2441,1,511,796,0
56556301,825,-0.0229,-0.0469,1.0234,0.2441,0.3052,-0.1221,1,491,799,0
56561307,826,-0.0229,-0.0464,1.0229,0.0610,0.3052,-0.3052,1,499,839,0
56566309,827,-0.0220,-0.0474,1.0220,0.0000,0.3662,-0.1831,1,481,818,0
56571305,828,-0.0215,-0.0483,1.0225,0.1221,0.4272,-0.2441,1,503,780,0
56576305,829,-0.0210,-0.0479,1.0229,0.2441,0.4883,-0.2441,1,489,825,0
56581307,830,-0.0215,-0.0483,1.0225,0.1221,0.5493,-0.2441,1,504,826,0
56586310,831,-0.0234,-0.0493,1.0205,-0.0610,0.6104,-0.1221,1,493,826,0
56591302,832,-0.0244,-0.0498,1.0200,0.0000,0.6104,-0.1831,1,466,864,0
56596303,833,-0.0244,-0.0493,1.0205,0.0610,0.6714,-0.1831,1,466,826,0
56601308,834,-0.0239,-0.0479,1.0205,0.0610,0.6714,-0.1831,1,466,874,0
56606307,835,-0.0239,-0.0474,1.0205,0.0610,0.6104,-0.1221,1,466,871,0
56611308,836,-0.0244,-0.0469,1.0205,0.2441,0.5493,-0.0610,1,466,865,0
56616301,837,-0.0244,-0.0479,1.0205,0.2441,0.5493,-0.3052,1,466,872,0
56621301,838,-0.0229,-0.0483,1.0220,0.1221,0.5493,-0.3052,1,466,874,0
56626308,839,-0.0229,-0.0483,1.0234,0.2441,0.4883,-0.1831,1,466,872,0
56631315,840,-0.0239,-0.0488,1.0225,0.1831,0.4272,-0.2441,1,466,881,0
56636325,841,-0.0244,-0.0483,1.0210,0.2441,0.4883,-0.1831,1,466,880,0
56641303,842,-0.0249,-0.0479,1.0195,0.1221,0.3052,-0.2441,1,484,875,0
56646310,843,-0.0244,-0.0479,1.0195,0.1221,0.4272,-0.1831,1,492,869,0
56651304,844,-0.0239,-0.0479,1.0210,0.1221,0.6104,-0.2441,1,499,861,0
56656301,845,-0.0234,-0.0474,1.0229,0.0610,0.7324,-0.2441,1,481,781,0
56661304,846,-0.0239,-0.0464,1.0254,-0.0610,0.6714,-0.1831,1,491,845,0
56666305,847,-0.0234,-0.0479,1.0264,0.1221,0.6714,-0.1831,1,494,833,0
56671307,848,-0.0234,-0.0488,1.0259,0.0610,0.7324,-0.1221,1,479,865,0
56676308,849,-0.0244,-0.0483,1.0239,0.1831,0.7324,-0.1221,1,501,821,0
56681308,850,-0.0249,-0.0474,1.0220,0.1221,0.6104,-0.1221,1,479,831,0
56686306,851,-0.0254,-0.0464,1.0215,0.0610,0.5493,-0.2441,1,510,816,0
56691305,852,-0.0249,-0.0469,1.0220,0.0000,0.6714,-0.1831,1,465,870,0
56696305,853,-0.0229,-0.0483,1.0239,0.0000,0.7324,-0.0610,1,466,825,0
56701302,854,-0.0225,-0.0488,1.0244,0.0610,0.9766,-0.1831,1,466,832,0
56706303,855,-0.0244,-0.0474,1.0215,0.1831,0.8545,-0.0610,1,466,874,0
56711301,856,-0.0269,-0.0479,1.0181,0.1221,0.7935,-0.0610,1,466,871,0
56716301,857,-0.0278,-0.0498,1.0176,0.1831,0.5493,-0.2441,1,466,861,0
56721310,858,-0.0273,-0.0498,1.0186,0.3052,0.5493,-0.2441,1,465,882,0
56726302,859,-0.0273,-0.0488,1.0176,0.3662,0.6104,-0.1221,1,466,876,0
56731307,860,-0.0264,-0.0488,1.0186,0.3662,0.4272,-0.2441,1,466,870,0
56736302,861,-0.0254,-0.0488,1.0200,0.4272,0.2441,-0.2441,1,465,877,0
56741308,862,-0.0244,-0.0479,1.0215,0.4272,0.3052,-0.2441,1,483,876,0
56746301,863,-0.0225,-0.0479,1.0234,0.4883,0.3662,-0.1221,1,510,871,0
56751306,864,-0.0225,-0.0479,1.0239,0.1831,0.3662,-0.2441,1,485,858,0
56756303,865,-0.0234,-0.0469,1.0249,0.3052,0.4272,-0.1831,1,511,812,0
56761306,866,-0.0249,-0.0449,1.0254,0.3662,0.4883,-0.1831,1,488,803,0
56766304,867,-0.0249,-0.0444,1.0249,0.2441,0.4883,-0.1831,1,487,846,0
56771309,868,-0.0234,-0.0459,1.0234,0.0610,0.3662,-0.2441,1,495,850,0
56776308,869,-0.0229,-0.0474,1.0220,0.1221,0.4883,-0.3052,1,493,871,0
56781309,870,-0.0234,-0.0483,1.0225,0.2441,0.6714,-0.3052,1,501,817,0
56786302,871,-0.0244,-0.0474,1.0234,0.1221,0.6104,-0.3052,1,488,824,0
56791303,872,-0.0244,-0.0454,1.0234,0.1221,0.5493,-0.2441,1,510,818,0
56796301,873,-0.0239,-0.0454,1.0229,0.2441,0.7324,-0.1831,1,466,879,0
56801306,874,-0.0234,-0.0464,1.0220,0.2441,0.6104,-0.2441,1,466,882,0
56806305,875,-0.0244,-0.0479,1.0210,0.1831,0.5493,-0.1831,1,466,872,0
56811309,876,-0.0254,-0.0488,1.0220,0.1221,0.6104,-0.1831,1,466,877,0
56816304,877,-0.0254,-0.0488,1.0239,0.1221,0.6104,-0.1831,1,466,868,0
56821303,878,-0.0244,-0.0474,1.0244,0.1221,0.7324,-0.2441,1,466,870,0
56826306,879,-0.0244,-0.0464,1.0234,0.1221,0.7935,-0.3052,1,465,877,0
56831301,880,-0.0249,-0.0464,1.0215,0.0000,0.7935,-0.3052,1,465,869,0
56836303,881,-0.0259,-0.0469,1.0195,0.1831,0.7324,-0.2441,1,465,823,0
56841305,882,-0.0273,-0.0474,1.0195,0.1831,0.5493,-0.2441,1,466,875,0
56846304,883,-0.0283,-0.0483,1.0210,0.1831,0.4883,-0.3052,1,483,879,0
56851309,884,-0.0278,-0.0498,1.0210,0.2441,0.4883,-0.3662,1,511,870,0
56856306,885,-0.0264,-0.0508,1.0200,0.2441,0.5493,-0.3052,1,486,865,0
56861305,886,-0.0249,-0.0488,1.0205,0.2441,0.4272,-0.3052,1,493,882,0
56866308,887,-0.0244,-0.0469,1.0229,0.1221,0.4883,-0.5493,1,469,845,0
56871310,888,-0.0239,-0.0464,1.0249,0.1831,0.5493,-0.3662,1,488,840,0
56876306,889,-0.0234,-0.0464,1.0244,0.2441,0.6104,-0.2441,1,493,850,0
56881309,890,-0.0234,-0.0469,1.0234,0.0610,0.6714,-0.2441,1,498,870,0
56886307,891,-0.0244,-0.0469,1.0239,0.0000,0.6104,-0.2441,1,500,823,0
56891302,892,-0.0249,-0.0464,1.0254,0.1221,0.5493,-0.1831,1,488,778,0
56896302,893,-0.0249,-0.0464,1.0259,0.0000,0.6104,-0.0610,1,510,826,0
56901305,894,-0.0244,-0.0469,1.0249,-0.1221,0.7324,-0.1831,1,466,819,0
56906306,895,-0.0239,-0.0474,1.0225,-0.1831,0.8545,-0.2441,1,466,873,0
56911310,896,-0.0249,-0.0483,1.0205,-0.1221,0.7935,-0.2441,1,466,876,0
56916304,897,-0.0269,-0.0488,1.0181,-0.3052,0.7324,-0.1831,1,466,876,0
56921303,898,-0.0288,-0.0483,1.0171,-0.2441,0.7935,-0.3052,1,466,872,0
56926301,899,-0.0278,-0.0493,1.0181,-0.2441,0.6104,-0.1831,1,466,871,0
56931302,900,-0.0264,-0.0508,1.0190,0.0000,0.4883,-0.2441,1,466,875,0
56936307,901,-0.0264,-0.0498,1.0200,0.0610,0.3662,-0.3052,1,466,824,0
56941302,902,-0.0273,-0.0483,1.0215,0.0000,0.3052,-0.3052,1,466,869,0
56946316,903,-0.0298,-0.0474,1.0200,0.0610,0.2441,-0.3052,1,466,822,0
56951306,904,-0.0293,-0.0479,1.0186,0.0610,0.0610,-0.3052,1,483,864,0
56956302,905,-0.0269,-0.0479,1.0205,0.1831,-0.0610,-0.3052,1,493,860,0
56961301,906,-0.0244,-0.0469,1.0229,0.2441,-0.1221,-0.4272,1,501,855,0
56966307,907,-0.0249,-0.0464,1.0234,0.1831,-0.0610,-0.4272,1,471,898,0
56971301,908,-0.0264,-0.0464,1.0225,0.2441,-0.2441,-0.4272,1,467,847,0
56976304,909,-0.0264,-0.0464,1.0210,0.2441,-0.1221,-0.3052,1,474,837,0
56981304,910,-0.0254,-0.0479,1.0200,0.2441,-0.0610,-0.3662,1,475,817,0
56986307,911,-0.0244,-0.0488,1.0205,0.3052,-0.0610,-0.4272,1,494,823,0
56991303,912,-0.0244,-0.0479,1.0215,0.2441,0.0610,-0.3662,1,496,824,0
56996304,913,-0.0254,-0.0464,1.0220,0.1221,0.1221,-0.3662,1,492,827,0
57001302,914,-0.0264,-0.0464,1.0215,0.3052,0.0000,-0.3662,1,509,817,0
57006304,915,-0.0254,-0.0469,1.0215,0.2441,0.0610,-0.3052,1,466,796,0
57011304,916,-0.0229,-0.0469,1.0225,0.1831,0.1221,-0.3052,1,466,863,0
57016308,917,-0.0229,-0.0474,1.0225,0.2441,0.1831,-0.3052,1,465,867,0
57021309,918,-0.0259,-0.0479,1.0220,0.2441,0.0610,-0.1831,1,466,873,0
57026309,919,-0.0273,-0.0493,1.0205,0.2441,0.0000,-0.3052,1,466,872,0
57031301,920,-0.0269,-0.0498,1.0200,0.3052,0.0610,-0.2441,1,466,828,0
57036307,921,-0.0264,-0.0488,1.0215,0.3052,0.0610,-0.2441,1,466,871,0
57041306,922,-0.0273,-0.0483,1.0215,0.4883,0.0000,-0.3662,1,465,870,0
57046309,923,-0.0298,-0.0488,1.0195,0.5493,-0.0610,-0.4883,1,466,830,0
57051302,924,-0.0293,-0.0479,1.0176,0.5493,-0.3052,-0.3052,1,466,875,0
57056302,925,-0.0269,-0.0474,1.0200,0.6714,-0.3662,-0.4272,1,483,864,0
57061310,926,-0.0254,-0.0479,1.0229,0.6714,-0.2441,-0.5493,1,510,870,0
57066302,927,-0.0259,-0.0469,1.0239,0.8545,-0.2441,-0.4272,1,485,864,0
57071306,928,-0.0269,-0.0464,1.0229,0.6714,-0.4883,-0.3052,1,493,860,0
57076307,929,-0.0269,-0.0459,1.0229,0.6714,-0.6714,-0.3662,1,466,828,0
57081301,930,-0.0254,-0.0454,1.0234,0.7324,-0.6104,-0.4272,1,490,843,0
57086309,931,-0.0225,-0.0464,1.0234,0.6104,-0.4883,-0.4883,1,501,800,0
57091309,932,-0.0210,-0.0459,1.0239,0.6714,-0.3662,-0.4272,1,496,820,0
57096307,933,-0.0215,-0.0454,1.0249,0.6104,-0.4883,-0.3662,1,479,828,0
57101310,934,-0.0234,-0.0454,1.0264,0.4883,-0.4272,-0.3662,1,495,826,0
57106302,935,-0.0239,-0.0454,1.0259,0.5493,-0.6714,-0.1831,1,510,828,0
57111301,936,-0.0229,-0.0454,1.0249,0.6104,-0.4272,-0.3052,1,466,877,0
57116306,937,-0.0234,-0.0459,1.0244,0.4883,-0.3662,-0.4272,1,466,874,0
57121303,938,-0.0249,-0.0469,1.0234,0.4272,-0.3662,-0.3662,1,466,875,0
57126308,939,-0.0259,-0.0474,1.0215,0.4272,-0.3052,-0.3052,1,466,878,0
57131309,940,-0.0269,-0.0474,1.0210,0.3052,-0.4272,-0.3662,1,466,865,0
57136306,941,-0.0259,-0.0464,1.0220,0.3662,-0.4883,-0.3052,1,466,870,0
57141305,942,-0.0244,-0.0454,1.0220,0.4272,-0.4272,-0.2441,1,465,870,0
57146303,943,-0.0259,-0.0464,1.0200,0.4272,-0.4272,-0.3052,1,466,882,0
57151319,944,-0.0288,-0.0483,1.0186,0.4883,-0.6714,-0.3052,1,466,869,0
57156335,945,-0.0283,-0.0493,1.0190,0.5493,-0.9155,-0.3052,1,466,871,0
57161301,946,-0.0254,-0.0479,1.0220,0.6104,-0.9155,-0.3662,1,484,876,0
57166304,947,-0.0229,-0.0454,1.0244,0.7324,-0.9155,-0.3052,1,484,858,0
57171305,948,-0.0225,-0.0449,1.0259,0.4883,-0.7935,-0.4272,1,472,820,0
57176301,949,-0.0234,-0.0449,1.0254,0.3052,-0.8545,-0.4272,1,493,898,0
57181302,950,-0.0234,-0.0449,1.0244,0.3662,-0.7324,-0.3052,1,479,840,0
57186307,951,-0.0225,-0.0449,1.0249,0.3662,-0.6104,-0.3052,1,486,845,0
57191302,952,-0.0210,-0.0444,1.0249,0.3662,-0.5493,-0.3052,1,506,839,0
57196302,953,-0.0205,-0.0454,1.0244,0.4272,-0.4883,-0.3052,1,490,828,0
57201309,954,-0.0200,-0.0469,1.0244,0.3662,-0.2441,-0.3052,1,487,826,0
57206301,955,-0.0195,-0.0474,1.0249,0.3052,-0.2441,-0.2441,1,494,823,0
57211303,956,-0.0195,-0.0469,1.0244,0.2441,-0.1831,-0.2441,1,494,846,0
57216310,957,-0.0200,-0.0464,1.0225,0.3662,0.0000,-0.2441,1,466,878,0
57221301,958,-0.0215,-0.0439,1.0225,0.3052,0.1831,-0.3052,1,466,827,0
57226306,959,-0.0220,-0.0425,1.0229,0.1831,0.3052,-0.3052,1,465,868,0
57231302,960,-0.0210,-0.0420,1.0239,-0.0610,0.4272,-0.2441,1,466,868,0
57236301,961,-0.0205,-0.0435,1.0249,-0.0610,0.6714,-0.1831,1,466,873,0
57241301,962,-0.0225,-0.0449,1.0229,-0.0610,0.6104,-0.2441,1,466,873,0
57246303,963,-0.0254,-0.0464,1.0205,-0.0610,0.5493,-0.2441,1,466,873,0
57251305,964,-0.0273,-0.0459,1.0205,-0.0610,0.4883,-0.2441,1,465,874,0
57256322,965,-0.0254,-0.0449,1.0215,-0.1831,0.4272,-0.2441,1,466,871,0
57261335,966,-0.0229,-0.0454,1.0210,-0.2441,0.7324,-0.1221,1,466,877,0
57266308,967,-0.0229,-0.0454,1.0195,-0.1221,0.6714,-0.1831,1,466,875,0
57271309,968,-0.0229,-0.0459,1.0190,-0.1221,0.4883,-0.2441,1,491,875,0
57276308,969,-0.0229,-0.0459,1.0210,-0.1221,0.5493,-0.3052,1,484,813,0
57281307,970,-0.0229,-0.0454,1.0239,-0.1831,0.4883,-0.2441,1,493,780,0
57286303,971,-0.0225,-0.0444,1.0254,-0.3052,0.6104,-0.1831,1,492,851,0
57291301,972,-0.0229,-0.0454,1.0234,-0.2441,0.6714,-0.1221,1,504,829,0
57296302,973,-0.0244,-0.0459,1.0210,-0.2441,0.6104,-0.1221,1,489,829,0
57301302,974,-0.0249,-0.0469,1.0195,-0.2441,0.4272,-0.1221,1,494,820,0
57306308,975,-0.0239,-0.0479,1.0210,-0.2441,0.3052,-0.1221,1,495,826,0
57311304,976,-0.0215,-0.0483,1.0234,-0.1831,0.4272,-0.1831,1,506,818,0
57316304,977,-0.0205,-0.0464,1.0234,0.0000,0.4883,-0.1831,1,466,853,0
57321306,978,-0.0229,-0.0449,1.0210,-0.1221,0.7324,-0.1831,1,466,827,0
57326309,979,-0.0249,-0.0454,1.0195,0.0000,0.4272,-0.1221,1,466,873,0
57331305,980,-0.0239,-0.0469,1.0195,0.1221,0.3662,-0.1831,1,466,831,0
57336306,981,-0.0210,-0.0483,1.0220,-0.0610,0.4272,-0.1831,1,466,874,0
57341309,982,-0.0200,-0.0483,1.0244,0.0000,0.5493,-0.2441,1,466,874,0
57346305,983,-0.0215,-0.0464,1.0239,0.0000,0.6714,-0.1831,1,465,832,0
57351306,984,-0.0239,-0.0449,1.0215,-0.0610,0.7935,-0.1831,1,466,828,0
57356306,985,-0.0269,-0.0449,1.0195,0.0610,0.7324,-0.1221,1,466,874,0
57361313,986,-0.0269,-0.0459,1.0195,-0.0610,0.6104,-0.1221,1,466,871,0
57366304,987,-0.0254,-0.0474,1.0220,0.0000,0.6104,-0.1831,1,483,865,0
57371307,988,-0.0249,-0.0479,1.0244,0.0610,0.4272,-0.0610,1,484,811,0
57376306,989,-0.0254,-0.0474,1.0234,0.1221,0.4272,-0.1221,1,484,807,0
57381305,990,-0.0259,-0.0469,1.0215,0.1221,0.4883,-0.1831,1,493,863,0
57386306,991,-0.0254,-0.0469,1.0210,0.1221,0.4272,-0.0610,1,475,827,0
57391302,992,-0.0234,-0.0474,1.0225,0.1831,0.4272,0.0000,1,481,832,0
57396303,993,-0.0229,-0.0469,1.0229,0.2441,0.4883,-0.0610,1,488,801,0
57401304,994,-0.0249,-0.0449,1.0225,0.2441,0.4883,-0.0610,1,494,851,0
57406301,995,-0.0264,-0.0449,1.0229,0.1831,0.4883,-0.1221,1,497,827,0
57411301,996,-0.0254,-0.0469,1.0239,0.1831,0.4272,-0.2441,1,490,825,0
57416302,997,-0.0234,-0.0454,1.0229,0.3052,0.4883,-0.1831,1,493,846,0
57421306,998,-0.0220,-0.0430,1.0225,0.1831,0.4883,-0.1221,1,466,873,0
57426302,999,-0.0229,-0.0430,1.0239,0.1221,0.4272,-0.0610,1,466,868,0
57431301,1000,-0.0244,-0.0430,1.0249,0.1831,0.5493,-0.0610,1,466,872,0
57436307,1001,-0.0254,-0.0464,1.0244,0.0000,0.5493,-0.1831,1,466,879,0
57441302,1002,-0.0244,-0.0488,1.0215,0.1221,0.5493,-0.1831,1,466,830,0
57446304,1003,-0.0239,-0.0469,1.0200,0.3662,0.4883,-0.1831,1,466,875,0
57451303,1004,-0.0234,-0.0464,1.0220,0.3052,0.5493,-0.2441,1,466,873,0
57456304,1005,-0.0225,-0.0474,1.0244,0.3662,0.6714,-0.2441,1,466,872,0
57461324,1006,-0.0220,-0.0469,1.0239,0.4272,0.8545,-0.1831,1,466,875,0
57466336,1007,-0.0220,-0.0469,1.0225,0.3052,0.8545,-0.1831,1,466,873,0
57471301,1008,-0.0225,-0.0469,1.0215,0.3662,0.9155,-0.1831,1,484,865,0
57476308,1009,-0.0254,-0.0444,1.0205,0.4883,0.9155,-0.0610,1,492,863,0
57481307,1010,-0.0278,-0.0439,1.0205,0.4272,0.8545,-0.1831,1,493,813,0
57486309,1011,-0.0269,-0.0459,1.0220,0.2441,0.6104,-0.3662,1,492,793,0
57491303,1012,-0.0254,-0.0454,1.0234,0.4272,0.5493,-0.3052,1,493,831,0
57496308,1013,-0.0239,-0.0439,1.0234,0.3052,0.6104,-0.1221,1,501,837,0
57501303,1014,-0.0244,-0.0439,1.0229,0.3662,0.6104,-0.0610,1,500,822,0
57506305,1015,-0.0264,-0.0454,1.0220,0.3052,0.3662,-0.1221,1,489,828,0
57511305,1016,-0.0269,-0.0449,1.0210,0.3662,0.4272,-0.2441,1,487,823,0
57516307,1017,-0.0249,-0.0430,1.0215,0.2441,0.4883,-0.2441,1,500,830,0
57521309,1018,-0.0229,-0.0435,1.0229,0.2441,0.6104,-0.2441,1,493,847,0
57526304,1019,-0.0234,-0.0444,1.0239,0.2441,0.5493,-0.2441,1,466,876,0
57531307,1020,-0.0249,-0.0439,1.0234,0.2441,0.3052,-0.1221,1,466,881,0
57536310,1021,-0.0259,-0.0439,1.0225,0.1831,0.3662,-0.1831,1,466,875,0
57541306,1022,-0.0254,-0.0449,1.0220,0.1831,0.3662,-0.1831,1,466,878,0
57546301,1023,-0.0239,-0.0449,1.0229,0.0610,0.4272,-0.1831,1,466,877,0
57551306,1024,-0.0239,-0.0454,1.0249,0.0000,0.4272,-0.1831,1,466,878,0
57556308,1025,-0.0239,-0.0459,1.0244,0.0610,0.5493,-0.1831,1,466,836,0
57561302,1026,-0.0244,-0.0454,1.0225,0.1831,0.6714,-0.1221,1,466,878,0
57566303,1027,-0.0244,-0.0444,1.0210,0.0610,0.5493,-0.1221,1,466,875,0
57571319,1028,-0.0239,-0.0449,1.0225,0.0000,0.6104,-0.1831,1,466,871,0
57576309,1029,-0.0249,-0.0449,1.0229,0.1831,0.7324,-0.2441,1,484,817,0
57581302,1030,-0.0249,-0.0444,1.0229,0.1221,0.6104,-0.2441,1,493,883,0
57586305,1031,-0.0244,-0.0439,1.0229,0.1221,0.7324,-0.2441,1,506,863,0
57591305,1032,-0.0244,-0.0435,1.0244,0.0000,0.7324,-0.3662,1,477,811,0
57596308,1033,-0.0249,-0.0444,1.0254,0.0000,0.7324,-0.2441,1,485,803,0
57601305,1034,-0.0244,-0.0454,1.0244,0.0000,0.7935,-0.1831,1,506,803,0
57606303,1035,-0.0244,-0.0449,1.0229,0.1221,0.9155,-0.3052,1,474,786,0
57611306,1036,-0.0259,-0.0430,1.0220,0.1221,0.9155,-0.2441,1,503,825,0
57616303,1037,-0.0254,-0.0415,1.0234,-0.0610,0.9155,-0.3052,1,492,824,0
57621304,1038,-0.0225,-0.0425,1.0254,0.0000,1.0376,-0.2441,1,510,824,0
57626301,1039,-0.0210,-0.0444,1.0259,-0.1221,1.1597,-0.1831,1,466,823,0
57631302,1040,-0.0220,-0.0454,1.0249,-0.0610,1.3428,-0.0610,1,465,873,0
57636304,1041,-0.0234,-0.0444,1.0244,-0.1221,1.2817,0.0000,1,466,875,0
57641301,1042,-0.0244,-0.0439,1.0249,-0.1831,1.4038,-0.1221,1,466,833,0
57646307,1043,-0.0249,-0.0444,1.0259,-0.4272,1.5259,-0.0610,1,465,879,0
57651309,1044,-0.0239,-0.0444,1.0264,-0.4883,1.5259,-0.0610,1,466,876,0
57656308,1045,-0.0244,-0.0439,1.0249,-0.3662,1.6479,0.0610,1,466,874,0
57661306,1046,-0.0264,-0.0435,1.0229,-0.6104,1.7700,0.0610,1,466,881,0
57666311,1047,-0.0288,-0.0444,1.0200,-0.5493,1.7090,0.0000,1,465,870,0
57671304,1048,-0.0312,-0.0464,1.0176,-0.3662,1.5259,0.1221,1,466,830,0
57676308,1049,-0.0322,-0.0488,1.0156,-0.4272,1.3428,-0.0610,1,483,942,0
57681306,1050,-0.0322,-0.0503,1.0146,-0.2441,1.2817,0.0610,1,466,878,0
57686308,1051,-0.0278,-0.0498,1.0176,-0.1831,1.0986,0.0610,1,484,866,0
57691302,1052,-0.0239,-0.0479,1.0215,-0.2441,1.2207,-0.0610,1,493,869,0
57696309,1053,-0.0259,-0.0459,1.0215,-0.1221,1.3428,-0.0610,1,483,845,0
57701303,1054,-0.0269,-0.0469,1.0225,-0.1221,1.2207,-0.1221,1,483,829,0
57706305,1055,-0.0264,-0.0479,1.0244,-0.1221,1.2207,-0.1831,1,491,818,0
57711308,1056,-0.0264,-0.0479,1.0244,-0.1831,1.2817,-0.1221,1,494,854,0
57716304,1057,-0.0264,-0.0464,1.0229,-0.1221,1.2817,-0.0610,1,496,829,0
57721303,1058,-0.0269,-0.0444,1.0225,-0.1831,1.3428,0.0000,1,490,825,0
57726306,1059,-0.0273,-0.0454,1.0225,-0.1831,1.2207,0.0610,1,493,800,0
57731309,1060,-0.0264,-0.0469,1.0220,-0.1831,1.3428,0.1831,1,466,875,0
57736308,1061,-0.0273,-0.0459,1.0200,-0.2441,1.2817,0.0610,1,466,872,0
57741302,1062,-0.0293,-0.0444,1.0181,-0.1221,1.2817,0.0000,1,466,876,0
57746302,1063,-0.0293,-0.0444,1.0181,-0.1831,1.2817,-0.0610,1,466,826,0
57751303,1064,-0.0278,-0.0474,1.0205,-0.0610,1.0986,0.0000,1,466,874,0
57756304,1065,-0.0264,-0.0493,1.0225,0.0000,1.2207,0.0000,1,466,828,0
57761305,1066,-0.0288,-0.0479,1.0210,0.1221,1.1597,0.0000,1,466,783,0
57766310,1067,-0.0322,-0.0454,1.0181,0.0610,0.9766,-0.0610,1,465,823,0
57771313,1068,-0.0308,-0.0444,1.0181,0.0000,0.5493,-0.0610,1,466,868,0
57776308,1069,-0.0278,-0.0459,1.0195,0.1831,0.8545,-0.1831,1,466,822,0
57781304,1070,-0.0259,-0.0474,1.0225,0.1221,0.8545,-0.0610,1,484,878,0
57786302,1071,-0.0239,-0.0464,1.0254,0.1831,0.9766,-0.1221,1,492,864,0
57791306,1072,-0.0259,-0.0454,1.0254,0.0610,1.0376,-0.1831,1,483,811,0
57796301,1073,-0.0278,-0.0444,1.0239,0.1221,1.0376,-0.0610,1,493,870,0
57801306,1074,-0.0288,-0.0444,1.0229,0.3052,1.1597,-0.0610,1,501,786,0
57806307,1075,-0.0298,-0.0454,1.0220,0.0000,1.0986,0.0000,1,479,836,0
57811304,1076,-0.0293,-0.0464,1.0215,0.0000,1.0986,0.0000,1,501,736,0
57816306,1077,-0.0283,-0.0469,1.0225,0.0610,0.9766,0.0000,1,486,732,0
57821308,1078,-0.0283,-0.0483,1.0239,0.0610,0.9766,0.0000,1,488,773,0
57826309,1079,-0.0288,-0.0488,1.0249,0.1221,0.9155,-0.0610,1,502,781,0
57831309,1080,-0.0288,-0.0479,1.0239,0.2441,0.9766,-0.1831,1,510,826,0
57836307,1081,-0.0269,-0.0469,1.0244,0.2441,1.0986,0.0000,1,466,876,0
57841309,1082,-0.0249,-0.0469,1.0254,0.1221,1.2817,0.0000,1,466,829,0
57846310,1083,-0.0244,-0.0474,1.0254,0.1831,1.3428,0.0610,1,466,826,0
57851310,1084,-0.0273,-0.0474,1.0244,0.3052,1.4038,-0.0610,1,466,873,0
57856308,1085,-0.0298,-0.0469,1.0234,0.2441,1.0376,0.0610,1,466,872,0
57861308,1086,-0.0269,-0.0479,1.0244,0.1831,1.0376,0.1831,1,465,870,0
57866302,1087,-0.0254,-0.0483,1.0249,0.3052,1.4038,0.1831,1,466,877,0
57871304,1088,-0.0264,-0.0469,1.0229,0.1831,1.4648,0.1831,1,466,876,0
57876307,1089,-0.0264,-0.0449,1.0220,0.2441,1.5259,0.1221,1,466,877,0
57881306,1090,-0.0298,-0.0435,1.0205,0.3052,1.5869,0.2441,1,466,872,0
57886305,1091,-0.0298,-0.0439,1.0210,0.0610,1.2817,0.2441,1,483,872,0
57891304,1092,-0.0293,-0.0459,1.0215,0.2441,1.6479,0.1831,1,484,874,0
57896304,1093,-0.0332,-0.0483,1.0181,0.4272,1.5869,0.0610,1,484,864,0
57901302,1094,-0.0356,-0.0479,1.0176,0.3052,1.2817,0.1831,1,494,872,0
57906301,1095,-0.0312,-0.0464,1.0220,0.1221,1.0986,0.2441,1,494,787,0
57911304,1096,-0.0269,-0.0449,1.0269,0.3662,1.4038,0.2441,1,477,875,0
57916302,1097,-0.0342,-0.0430,1.0234,0.0000,1.3428,0.1831,1,499,847,0
57921302,1098,-0.0342,-0.0459,1.0210,0.0000,0.8545,0.3052,1,505,782,0
57926306,1099,-0.0308,-0.0479,1.0220,0.2441,1.0986,0.3052,1,486,771,0
57931302,1100,-0.0293,-0.0449,1.0259,0.1221,1.1597,0.3052,1,501,820,0
57936302,1101,-0.0278,-0.0415,1.0283,0.1221,0.9766,0.3052,1,510,819,0
57941301,1102,-0.0303,-0.0430,1.0249,-0.1831,1.2207,0.3052,1,494,840,0
57946309,1103,-0.0347,-0.0493,1.0176,-0.1831,1.2207,0.3662,1,466,871,0
57951305,1104,-0.0381,-0.0513,1.0103,0.2441,0.9766,0.3052,1,466,878,0
57956308,1105,-0.0459,-0.0449,1.0020,0.4272,0.7324,0.1831,1,466,864,0
57961302,1106,-0.0542,-0.0464,0.9971,0.3052,-0.2441,0.0610,1,466,876,0
57966302,1107,-0.0527,-0.0537,0.9980,0.7935,-1.0376,-0.1831,1,466,864,0
57971309,1108,-0.0454,-0.0601,0.9990,1.4038,-1.1597,-0.3052,1,466,878,0
57976304,1109,-0.0400,-0.0615,1.0020,1.9531,-0.5493,-0.6104,1,466,870,0
57981303,1110,-0.0376,-0.0581,1.0063,2.3804,0.0610,-0.6714,1,466,874,0
57986304,1111,-0.0396,-0.0586,1.0093,2.8076,0.7935,-0.9155,1,466,871,0
57991303,1112,-0.0454,-0.0576,1.0146,3.4180,0.4883,-1.1597,1,483,872,0
57996301,1113,-0.0469,-0.0537,1.0205,3.6011,-0.5493,-1.0986,1,484,878,0
58001302,1114,-0.0435,-0.0508,1.0225,3.7231,-0.6104,-1.3428,1,484,862,0
58006305,1115,-0.0430,-0.0464,1.0220,3.7231,-0.5493,-1.7090,1,494,867,0
58011302,1116,-0.0483,-0.0425,1.0151,3.7231,-1.0986,-1.7700,1,509,790,0
58016305,1117,-0.0527,-0.0425,1.0068,3.7231,-1.5259,-1.9531,1,477,844,0
58021304,1118,-0.0547,-0.0454,1.0034,3.9673,-1.7090,-2.1973,1,501,852,0
58026308,1119,-0.0596,-0.0464,1.0000,3.9062,-2.1973,-2.4414,1,484,856,0
58031301,1120,-0.0669,-0.0479,0.9966,4.1504,-2.9297,-2.8076,1,485,828,0
58036301,1121,-0.0698,-0.0566,0.9951,4.6997,-4.2114,-3.2349,1,489,827,0
58041305,1122,-0.0737,-0.0723,0.9878,5.5542,-3.7842,-3.9062,1,493,858,0
58046301,1123,-0.0845,-0.0752,0.9756,7.0190,-3.2349,-4.6387,1,466,849,0
58051310,1124,-0.1216,-0.0684,0.9600,8.0566,-2.5635,-6.3477,1,466,872,0
58056309,1125,-0.2314,-0.0591,0.9248,8.6670,-4.2725,-7.6904,1,466,882,0
58061307,1126,-0.3687,-0.0220,0.8901,8.9111,-18.8599,-7.9956,1,466,886,0
58066302,1127,-0.3867,0.0259,0.8950,7.5684,-41.4429,-9.1553,1,466,897,0
58071301,1128,-0.3003,0.0308,0.9219,5.3711,-53.2837,-11.5356,1,466,900,0
58076308,1129,-0.2539,0.0127,0.9341,4.4556,-60.9741,-14.5874,1,466,908,0
58081305,1130,-0.3042,0.0083,0.9248,3.6011,-73.9746,-17.3950,1,466,918,0
58086321,1131,-0.4048,0.0093,0.9131,2.1362,-92.9565,-20.2637,1,466,900,0
58091309,1132,-0.4990,0.0068,0.9287,0.4272,-113.6475,-23.3765,1,466,908,0
58096303,1133,-0.5659,0.0088,0.9727,-0.1831,-137.3901,-26.9165,1,483,921,0
58101305,1134,-0.5864,-0.0034,1.0371,-1.5869,-164.4287,-30.7007,1,493,913,0
58106303,1135,-0.5181,-0.0674,1.1226,-1.4648,-190.7348,-32.8369,1,495,907,0
58111309,1136,-0.3462,-0.1450,1.1938,0.9766,-212.0361,-32.7148,1,494,860,0
58116304,1137,-0.1753,-0.1597,1.2266,2.1973,-224.7925,-33.6914,1,465,833,0
58121302,1138,-0.1431,-0.0874,1.2490,-0.4272,-235.5957,-37.6587,1,496,888,0
58126303,1139,-0.2739,0.0093,1.2729,-5.4932,-248.1079,-43.2739,1,508,876,0
58131304,1140,-0.4697,0.0669,1.2861,-10.4980,-262.6953,-48.7671,1,489,876,0
58136305,1141,-0.5620,0.0981,1.3193,-13.1226,-279.7241,-52.0019,1,489,910,0
58141304,1142,-0.4189,0.1108,1.4102,-16.2354,-289.0625,-51.8799,1,508,891,0
58146301,1143,-0.2705,0.0635,1.5161,-16.2354,-264.5874,-52.9785,1,493,895,0
58151304,1144,-0.2832,0.0020,1.7202,-15.1367,-234.9243,-55.2368,1,466,932,0
58156301,1145,-0.2192,-0.0420,2.0767,-16.7236,-211.3037,-55.2368,1,465,946,0
58161309,1146,-0.2046,-0.0645,2.4019,-16.8457,-151.9165,-58.7158,1,466,937,0
58166309,1147,-0.4263,-0.0337,2.5234,-18.0664,-100.0976,-60.9741,1,466,929,0
58171303,1148,-0.7197,0.0010,2.4067,-18.0664,-61.8896,-62.7441,1,466,933,0
58176303,1149,-0.9512,0.0083,2.1382,-17.3950,-27.8320,-64.8804,1,466,929,0
58181301,1150,-1.0947,0.0137,1.8130,-14.7095,0.3052,-65.3687,1,466,919,0
58186304,1151,-1.1802,0.0400,1.4937,-12.1460,20.6299,-65.1245,1,466,905,0
58191308,1152,-1.2334,0.0786,1.2256,-10.6812,34.0576,-65.3076,1,466,925,0
58196330,1153,-1.2646,0.1104,1.0327,-8.7280,41.9311,-65.5518,1,466,923,0
58201309,1154,-1.2715,0.1221,0.9224,-8.1787,46.6309,-65.7349,1,483,918,0
58206307,1155,-1.2539,0.1133,0.8940,-8.7891,50.7202,-65.3076,1,493,909,0
58211308,1156,-1.2163,0.0928,0.9385,-10.0098,55.8472,-63.9038,1,465,845,0
58216306,1157,-1.1660,0.0581,1.0327,-11.9629,63.4766,-61.7676,1,493,863,0
58221305,1158,-1.1108,0.0059,1.1426,-13.3667,73.6694,-58.4717,1,478,852,0
58226301,1159,-1.0576,-0.0557,1.2314,-13.4888,86.2427,-53.5278,1,503,908,0
58231304,1160,-1.0098,-0.1094,1.2783,-12.7563,100.2808,-47.2412,1,489,902,0
58236307,1161,-0.9688,-0.1421,1.2778,-11.1084,113.9526,-40.1001,1,491,908,0
58241304,1162,-0.9351,-0.1519,1.2393,-9.4604,126.5259,-32.5317,1,488,910,0
58246308,1163,-0.9033,-0.1436,1.1812,-8.2397,136.9629,-25.2075,1,509,870,0
58251307,1164,-0.8643,-0.1226,1.1221,-7.6904,145.5688,-18.2495,1,492,891,0
58256310,1165,-0.8169,-0.0972,1.0771,-8.3008,152.7710,-11.6577,1,466,912,0
58261310,1166,-0.7646,-0.0801,1.0527,-9.7656,158.2031,-5.4321,1,466,910,0
58266309,1167,-0.7090,-0.0781,1.0532,-11.0474,162.5366,0.6104,1,466,899,0
58271307,1168,-0.6514,-0.0884,1.0776,-11.7798,166.5649,6.5308,1,466,918,0
58276308,1169,-0.5908,-0.1060,1.1177,-11.5967,170.0439,12.5122,1,466,921,0
58281301,1170,-0.5278,-0.1230,1.1631,-10.6812,173.7060,18.7988,1,466,941,0
58286303,1171,-0.4614,-0.1357,1.2080,-9.4604,177.4292,24.9023,1,466,932,0
58291309,1172,-0.3945,-0.1436,1.2476,-7.6294,181.8237,30.7617,1,466,928,0
58296323,1173,-0.3325,-0.1450,1.2754,-5.6152,186.4014,36.0107,1,466,928,0
58301310,1174,-0.2808,-0.1401,1.2861,-3.3569,190.5517,40.7104,1,466,917,0
58306333,1175,-0.2378,-0.1304,1.2812,-1.7090,193.8476,44.7388,1,483,925,0
58311303,1176,-0.1943,-0.1177,1.2681,-0.6104,196.1670,48.0347,1,466,951,0
58316307,1177,-0.1509,-0.1060,1.2529,-0.0610,197.8149,50.5981,1,484,905,0
58321304,1178,-0.1108,-0.1001,1.2412,0.3662,198.4863,52.2461,1,493,909,0
58326308,1179,-0.0762,-0.0986,1.2397,0.4272,198.3642,53.4058,1,483,833,0
58331310,1180,-0.0439,-0.1001,1.2539,0.1831,197.5098,53.9551,1,506,835,0
58336306,1181,-0.0088,-0.1060,1.2822,-0.0610,197.0825,54.2603,1,485,875,0
58341303,1182,0.0269,-0.1133,1.3130,-0.6104,197.3877,54.1382,1,496,865,0
58346303,1183,0.0576,-0.1191,1.3359,-1.4038,198.3642,53.7720,1,477,867,0
58351305,1184,0.0830,-0.1235,1.3447,-2.4414,199.6460,53.1006,1,500,882,0
58356304,1185,0.1060,-0.1284,1.3379,-3.6011,200.6836,52.1851,1,493,893,0
58361307,1186,0.1250,-0.1279,1.3208,-4.6997,201.3550,50.9644,1,466,912,0
58366304,1187,0.1406,-0.1196,1.3003,-6.1646,201.2939,49.4995,1,466,923,0
58371309,1188,0.1587,-0.1104,1.2778,-7.9956,200.8667,47.9126,1,465,925,0
58376309,1189,0.1763,-0.1040,1.2520,-9.8267,200.1343,46.1426,1,466,921,0
58381306,1190,0.1890,-0.1016,1.2231,-10.9863,198.5473,44.1284,1,466,917,0
58386303,1191,0.2026,-0.1040,1.1958,-11.2915,195.9839,41.8701,1,465,945,0
58391309,1192,0.2251,-0.1099,1.1709,-11.2305,192.7490,39.4897,1,466,943,0
58396308,1193,0.2510,-0.1157,1.1475,-11.4136,189.2700,37.1094,1,466,930,0
58401309,1194,0.2729,-0.1147,1.1235,-12.2070,185.6689,35.0342,1,466,930,0
58406301,1195,0.2915,-0.1050,1.1045,-13.6108,181.0303,32.8369,1,466,940,0
58411302,1196,0.3130,-0.0938,1.0996,-16.1133,176.0254,30.5176,1,484,931,0
58416306,1197,0.3433,-0.0918,1.1108,-19.2871,171.2646,28.1372,1,504,950,0
58421309,1198,0.3823,-0.1030,1.1284,-22.3389,166.9311,26.2451,1,478,926,0
58426302,1199,0.4263,-0.1230,1.1416,-24.7803,162.8418,24.5972,1,509,936,0
58431305,1200,0.4736,-0.1475,1.1470,-26.7944,159.2407,23.2544,1,500,853,0
58436301,1201,0.5225,-0.1714,1.1367,-28.0151,156.3721,22.8271,1,503,852,0
58441305,1202,0.5688,-0.1870,1.1045,-28.8086,153.6255,22.7051,1,491,859,0
58446303,1203,0.6069,-0.1890,1.0479,-29.1138,150.2686,22.8271,1,492,880,0
58451306,1204,0.6367,-0.1763,0.9702,-28.8086,144.8975,22.7661,1,491,883,0
58456308,1205,0.6650,-0.1519,0.8853,-29.1748,137.8174,22.4609,1,492,903,0
58461302,1206,0.6948,-0.1230,0.8091,-30.0903,129.3335,21.8506,1,466,932,0
58466307,1207,0.7285,-0.0942,0.7524,-31.4331,119.5068,20.6909,1,466,925,0
58471304,1208,0.7686,-0.0664,0.7148,-32.7148,109.0088,18.9819,1,466,944,0
58476301,1209,0.8159,-0.0415,0.6890,-34.1797,98.7549,16.9067,1,466,926,0
58481305,1210,0.8604,-0.0244,0.6641,-35.5225,89.2334,14.6484,1,466,921,0
58486301,1211,0.8916,-0.0205,0.6362,-35.9497,79.4678,12.2681,1,465,925,0
58491305,1212,0.9155,-0.0249,0.6055,-35.2173,69.4580,10.0098,1,466,925,0
58496305,1213,0.9414,-0.0298,0.5747,-33.0200,58.9600,7.9346,1,466,909,0
58501305,1214,0.9722,-0.0337,0.5449,-30.1514,48.2788,5.9814,1,466,911,0
58506303,1215,1.0049,-0.0342,0.5137,-26.8555,37.4146,3.9062,1,466,918,0
58511324,1216,1.0361,-0.0298,0.4814,-23.5596,26.3062,1.8921,1,484,904,0
58516307,1217,1.0625,-0.0264,0.4531,-20.8740,14.9536,0.1221,1,466,912,0
58521307,1218,1.0859,-0.0327,0.4355,-18.7378,3.0518,-1.4648,1,512,911,0
58526306,1219,1.1528,-0.0435,0.3892,-16.1743,-10.8032,-2.6855,1,491,884,0
58531304,1220,1.3237,0.0068,0.0146,-12.5122,-47.3022,-4.5166,1,483,827,0
58536309,1221,1.4985,0.1558,-0.7378,-17.4561,-129.3335,-6.2256,1,489,892,0
58541304,1222,1.6118,0.2153,-1.2148,-35.8887,-210.0830,-11.6577,1,489,879,0
58546303,1223,1.3281,0.0464,-1.0054,-41.8701,-223.2056,-26.4282,1,501,864,0
58551305,1224,0.5615,-0.1992,-0.2734,-43.1519,-199.2798,-31.1279,1,481,911,0
58556307,1225,-0.1206,-0.3345,0.5869,-41.7480,-212.5244,-18.1885,1,503,901,0
58561302,1226,-0.5845,-0.4917,1.3091,-51.9409,-229.0649,-14.9536,1,493,905,0
58566305,1227,-0.9478,-0.8145,1.8364,-55.5420,-221.3745,-13.0615,1,466,940,0
58571301,1228,-1.0386,-1.0562,1.9131,-31.3721,-212.2192,-2.6855,1,466,943,0
58576305,1229,-0.7993,-1.0205,1.4331,-10.3760,-211.2427,0.4272,1,465,924,0
58581306,1230,-0.4263,-0.7656,0.7441,3.2349,-229.4311,1.8921,1,466,926,0
58586303,1231,-0.0835,-0.4336,0.3027,2.8687,-252.5024,6.8970,1,466,909,0
58591303,1232,0.1533,-0.1836,0.3745,-11.6577,-264.6484,13.4277,1,466,903,0
58596308,1233,0.3154,-0.0942,0.9199,-21.8506,-268.0664,20.6299,1,465,944,0
58601308,1234,0.4448,-0.1108,1.6689,-23.6206,-257.8125,23.4375,1,466,931,0
58606305,1235,0.5312,-0.1250,2.3018,-18.4326,-236.1450,23.9868,1,465,939,0
58611303,1236,0.5640,-0.0596,2.5942,-9.4604,-208.3740,22.9492,1,466,967,0
58616309,1237,0.5264,0.0835,2.5098,-1.2817,-179.8096,18.8599,1,466,925,0
58621305,1238,0.4170,0.2476,2.1768,5.9814,-157.2266,12.0850,1,492,908,0
58626309,1239,0.2817,0.3647,1.7910,9.8877,-143.3105,4.2114,1,467,904,0
58631305,1240,0.1812,0.3833,1.5122,9.7046,-135.2539,-3.0518,1,499,902,0
58636301,1241,0.1279,0.2959,1.4023,7.6904,-129.5166,-8.6670,1,510,813,0
58641308,1242,0.1045,0.1367,1.4170,4.8828,-124.9390,-12.1460,1,496,885,0
58646306,1243,0.0952,-0.0439,1.4526,1.5869,-119.8730,-12.5732,1,493,897,0
58651307,1244,0.0850,-0.1934,1.4214,-2.0142,-114.2578,-10.2539,1,501,883,0
58656306,1245,0.0708,-0.2827,1.3052,-6.8359,-110.3516,-6.1035,1,493,875,0
58661305,1246,0.0508,-0.3159,1.1479,-11.9019,-107.4219,-1.4648,1,478,858,0
58666305,1247,-0.0420,-0.4287,1.0659,-14.2822,-105.1636,3.1738,1,493,892,0
58671304,1248,-0.1099,-0.7070,1.3052,1.7090,-106.8115,13.4277,1,466,927,0
58676305,1249,0.0957,-0.8110,1.7534,47.7295,-109.8022,20.1416,1,466,917,0
58681306,1250,0.4268,-0.5757,2.0146,66.2842,-83.6182,18.0664,1,466,939,0
58686309,1251,0.5576,-0.3013,1.9702,60.7300,-58.3496,18.2495,1,466,923,0
58691302,1252,0.4448,-0.1270,1.6899,66.4062,-40.4663,20.5078,1,466,931,0
58696308,1253,0.2212,0.0044,1.3682,69.8853,-29.6631,18.3716,1,466,964,0
58701301,1254,0.0342,0.1084,1.2222,66.1621,-24.6582,14.4653,1,466,911,0
58706305,1255,-0.0210,0.1836,1.2964,61.1572,-24.6582,12.1460,1,465,931,0
58711303,1256,0.0479,0.2241,1.4512,51.8188,-19.8975,8.5449,1,466,937,0
58716305,1257,0.1279,0.1992,1.5034,41.7480,-10.8032,5.2490,1,484,913,0
58721307,1258,0.1226,0.1289,1.3940,34.1187,-4.5776,4.0283,1,465,922,0
58726302,1259,0.0332,0.0508,1.2168,28.3203,-2.7466,3.0518,1,492,898,0
58731303,1260,-0.0688,-0.0137,1.0771,24.8413,-4.5166,2.1362,1,479,833,0
58736305,1261,-0.1143,-0.0503,1.0225,23.4375,-9.7046,1.7700,1,465,819,0
58741308,1262,-0.0806,-0.0381,1.0532,22.3389,-13.6108,1.4038,1,489,812,0
58746306,1263,-0.0098,-0.0044,1.1221,19.6533,-12.5732,0.6714,1,472,871,0
58751306,1264,0.0337,0.0005,1.1475,16.9067,-8.4229,0.0610,1,499,869,0
58756302,1265,0.0186,-0.0205,1.0947,15.1367,-4.0283,-0.1221,1,482,830,0
58761307,1266,-0.0244,-0.0391,1.0361,14.2822,-2.3193,-0.3662,1,505,849,0
58766309,1267,-0.0483,-0.0190,1.0396,12.6953,-2.8076,-0.1831,1,486,855,0
58771308,1268,-0.0371,0.0146,1.0752,9.5215,-3.8452,-0.2441,1,493,872,0
58776310,1269,-0.0049,-0.0239,1.0859,4.6997,-2.7466,-0.3662,1,466,884,0
58781308,1270,-0.0068,-0.0430,1.0737,4.0894,-2.5024,-0.4272,1,466,880,0
58786302,1271,-0.0166,-0.0352,1.0625,3.0518,-2.3193,-0.6714,1,466,876,0
58791306,1272,-0.0239,-0.0273,1.0542,1.5259,-2.4414,-0.7935,1,466,877,0
58796306,1273,-0.0210,-0.0361,1.0503,0.5493,-2.4414,-0.6714,1,466,880,0
58801303,1274,-0.0137,-0.0444,1.0479,0.5493,-2.2583,-0.6104,1,466,877,0
58806306,1275,-0.0142,-0.0425,1.0430,0.4272,-1.5259,-0.7324,1,466,877,0
58811318,1276,-0.0254,-0.0479,1.0337,0.1221,-1.1597,-1.0376,1,466,875,0
58816301,1277,-0.0356,-0.0684,1.0259,0.6104,-1.5869,-1.1597,1,466,866,0
58821336,1278,-0.0400,-0.0840,1.0239,1.9531,-2.1362,-1.4648,1,465,873,0
58826307,1279,-0.0415,-0.0835,1.0234,3.1128,-3.1738,-1.7090,1,466,882,0
58831303,1280,-0.0386,-0.0747,1.0264,3.7842,-4.0283,-1.8311,1,465,828,0
58836304,1281,-0.0293,-0.0688,1.0342,4.3945,-4.5166,-1.7090,1,494,787,0
58841309,1282,-0.0225,-0.0713,1.0376,5.1880,-4.4556,-1.7090,1,494,794,0
58846301,1283,-0.0220,-0.0757,1.0337,6.0425,-4.2114,-1.7090,1,494,833,0
58851307,1284,-0.0200,-0.0781,1.0288,7.0801,-4.6387,-1.5259,1,508,826,0
58856305,1285,-0.0161,-0.0771,1.0269,8.4229,-4.3945,-1.4038,1,490,824,0
58861309,1286,-0.0186,-0.0776,1.0264,9.5825,-3.6621,-1.5869,1,492,837,0
58866304,1287,-0.0293,-0.0801,1.0234,10.9863,-4.0894,-1.7090,1,469,837,0
58871304,1288,-0.0381,-0.0776,1.0210,12.2681,-5.2490,-1.9531,1,494,860,0
58876306,1289,-0.0400,-0.0698,1.0220,13.4277,-6.3477,-2.1362,1,466,894,0
58881308,1290,-0.0376,-0.0596,1.0269,14.4043,-7.3853,-2.4414,1,466,900,0
58886304,1291,-0.0342,-0.0542,1.0352,14.8315,-8.4229,-2.9297,1,465,897,0
58891309,1292,-0.0298,-0.0454,1.0439,15.1367,-9.3994,-3.1128,1,466,898,0
58896304,1293,-0.0205,-0.0200,1.0513,14.6484,-10.0708,-2.9297,1,465,906,0
58901303,1294,-0.0107,-0.0005,1.0542,13.1226,-10.1929,-3.1128,1,466,910,0
58906303,1295,-0.0122,-0.0005,1.0488,12.0239,-10.2539,-3.2349,1,466,903,0
58911303,1296,-0.0171,-0.0054,1.0425,11.2915,-10.9863,-2.8687,1,466,912,0
58916303,1297,-0.0161,-0.0107,1.0376,10.4980,-10.8032,-2.8076,1,466,911,0
58921306,1298,-0.0151,-0.0171,1.0347,9.8877,-10.6201,-2.7466,1,465,916,0
58926309,1299,-0.0181,-0.0254,1.0312,9.6436,-10.8643,-2.5635,1,466,895,0
58931307,1300,-0.0200,-0.0327,1.0278,9.6436,-10.9863,-2.5024,1,492,920,0
58936301,1301,-0.0190,-0.0371,1.0264,9.8267,-11.0474,-2.5024,1,465,844,0
58941302,1302,-0.0176,-0.0405,1.0269,10.0098,-11.1084,-2.6855,1,500,893,0
58946306,1303,-0.0156,-0.0425,1.0273,10.4980,-11.4136,-2.9297,1,506,819,0
58951309,1304,-0.0117,-0.0410,1.0273,11.1084,-11.5356,-2.9907,1,486,894,0
58956301,1305,-0.0103,-0.0356,1.0249,11.4746,-11.2915,-3.3569,1,508,877,0
58961307,1306,-0.0107,-0.0312,1.0215,11.6577,-11.1084,-3.6011,1,502,877,0
58966303,1307,-0.0107,-0.0308,1.0200,12.0239,-10.7422,-3.9062,1,495,910,0
58971305,1308,-0.0068,-0.0337,1.0229,12.3291,-10.3149,-4.2725,1,480,862,0
58976303,1309,0.0020,-0.0269,1.0293,12.5732,-9.3994,-4.5776,1,493,889,0
58981309,1310,0.0078,-0.0122,1.0347,11.9629,-8.0566,-4.8218,1,466,897,0
58986306,1311,0.0049,-0.0049,1.0342,11.2305,-7.0801,-4.8828,1,466,895,0
58991303,1312,-0.0024,-0.0088,1.0293,10.9863,-6.8359,-4.9438,1,466,880,0
58996308,1313,-0.0044,-0.0142,1.0244,10.7422,-6.1646,-5.2490,1,466,897,0
59001301,1314,-0.0010,-0.0132,1.0229,10.4980,-5.4321,-5.4321,1,466,892,0
59006302,1315,0.0024,-0.0078,1.0244,10.1929,-4.6387,-5.6152,1,466,894,0
59011304,1316,0.0034,-0.0049,1.0254,9.6436,-3.9062,-5.6763,1,466,894,0
59016313,1317,0.0005,-0.0044,1.0239,9.1553,-3.2349,-5.7373,1,466,871,0
59021309,1318,-0.0029,-0.0063,1.0215,8.6670,-2.8687,-5.8594,1,466,869,0
59026301,1319,-0.0044,-0.0049,1.0205,8.4229,-2.6855,-5.9814,1,483,872,0
59031308,1320,-0.0044,0.0054,1.0215,7.6904,-2.1973,-6.1035,1,465,863,0
59036302,1321,-0.0029,0.0107,1.0229,6.4087,-2.0752,-6.2256,1,484,858,0
59041305,1322,-0.0029,0.0093,1.0229,5.8594,-1.9531,-6.0425,1,493,785,0
59046306,1323,-0.0068,0.0083,1.0205,5.1270,-1.8921,-6.0425,1,489,785,0
59051309,1324,-0.0068,0.0078,1.0205,4.2114,-2.0752,-6.2256,1,476,793,0
59056301,1325,0.0010,0.0093,1.0210,3.6621,-1.7700,-6.4697,1,497,843,0
59061307,1326,0.0078,0.0127,1.0205,2.8076,-1.1597,-6.2256,1,493,819,0
59066309,1327,0.0029,0.0098,1.0190,1.9531,-0.6714,-5.7983,1,485,826,0
59071302,1328,-0.0117,0.0010,1.0137,1.4648,-0.8545,-5.3711,1,507,824,0
59076307,1329,-0.0264,-0.0068,1.0073,1.3428,-1.4038,-5.2490,1,493,840,0
59081308,1330,-0.0327,-0.0083,1.0054,1.4648,-2.3804,-5.2490,1,466,845,0
59086302,1331,-0.0283,-0.0044,1.0078,1.5259,-3.0518,-5.0659,1,466,876,0
59091303,1332,-0.0254,0.0005,1.0088,1.4038,-3.5400,-4.9438,1,466,874,0
59096301,1333,-0.0298,0.0005,1.0059,1.0986,-4.5166,-4.9438,1,466,868,0
59101307,1334,-0.0356,-0.0059,1.0024,1.1597,-6.5308,-5.1880,1,466,871,0
59106304,1335,-0.0391,-0.0107,1.0029,1.4648,-8.7280,-5.4932,1,466,870,0
59111307,1336,-0.0386,-0.0098,1.0098,1.5259,-10.9253,-5.7983,1,466,878,0
59116302,1337,-0.0391,-0.0059,1.0137,1.4648,-13.7939,-6.1035,1,466,889,0
59121304,1338,-0.0425,-0.0005,1.0117,1.1597,-16.8457,-6.3477,1,466,892,0
59126303,1339,-0.0400,-0.0020,1.0132,0.7324,-19.5923,-6.8970,1,466,883,0
59131309,1340,-0.0254,-0.0083,1.0190,0.7324,-22.1558,-7.3242,1,466,879,0
59136301,1341,-0.0215,-0.0107,1.0171,1.1597,-23.9868,-7.9346,1,491,895,0
59141301,1342,-0.0332,-0.0117,1.0107,1.4038,-26.0620,-9.1553,1,469,841,0
59146301,1343,-0.0303,-0.0127,1.0117,1.8921,-28.8086,-9.4604,1,503,893,0
59151301,1344,-0.0225,-0.0137,1.0146,2.4414,-29.8462,-10.0098,1,480,811,0
59156307,1345,-0.0254,-0.0151,1.0156,2.4414,-31.6162,-10.3149,1,489,881,0
59161308,1346,-0.0312,-0.0137,1.0107,3.3569,-34.2407,-10.1929,1,503,881,0
59166301,1347,-0.0352,-0.0112,1.0044,3.6621,-36.0718,-10.4370,1,505,858,0
59171301,1348,-0.0332,-0.0059,1.0059,3.9062,-38.2080,-10.3149,1,485,858,0
59176304,1349,-0.0151,0.0015,1.0146,4.0283,-40.7104,-10.0098,1,507,852,0
59181304,1350,0.0186,0.0049,1.0269,3.7842,-41.1987,-10.0098,1,479,868,0
59186306,1351,0.0527,0.0088,1.0366,3.5400,-41.1987,-9.3994,1,493,867,0
59191304,1352,0.0688,0.0146,1.0400,2.7466,-40.4663,-8.5449,1,466,899,0
59196305,1353,0.0664,0.0171,1.0405,1.7090,-39.5508,-7.5073,1,465,903,0
59201306,1354,0.0654,0.0156,1.0405,1.1597,-39.4287,-5.7983,1,466,884,0
59206301,1355,0.0732,0.0142,1.0410,0.3052,-39.0625,-4.6997,1,465,897,0
59211303,1356,0.0762,0.0132,1.0439,-0.7935,-38.4521,-3.7231,1,466,885,0
59216301,1357,0.0703,0.0146,1.0474,-1.5259,-38.6963,-2.6245,1,466,892,0
59221308,1358,0.0659,0.0215,1.0513,-2.9297,-39.4287,-1.6479,1,466,892,0
59226307,1359,0.0649,0.0303,1.0605,-5.0659,-42.0532,-1.4038,1,466,893,0
59231301,1360,0.0615,0.0366,1.0679,-7.4463,-47.9736,-1.2817,1,466,896,0
59236328,1361,0.0474,0.0391,1.0718,-9.5825,-53.8940,-1.2207,1,484,902,0
59241301,1362,0.0312,0.0361,1.0718,-11.5356,-61.5234,-1.1597,1,465,893,0
59246301,1363,0.0186,0.0249,1.0688,-12.8784,-67.4438,-0.6714,1,507,944,0
59251303,1364,0.0005,0.0146,1.0659,-14.6484,-74.4629,-0.6714,1,467,902,0
59256305,1365,-0.0269,0.0015,1.0679,-15.5640,-81.5430,-0.6714,1,510,902,0
59261303,1366,-0.0806,-0.0088,1.0713,-15.1367,-91.7358,-1.0376,1,468,837,0
59266305,1367,-0.1445,-0.0132,1.0815,-14.6484,-103.2715,-1.5259,1,492,887,0
59271309,1368,-0.2197,-0.0024,1.0923,-14.3433,-117.9809,-0.5493,1,493,893,0
59276306,1369,-0.3687,0.0459,1.1162,-15.8691,-134.5825,5.0659,1,495,876,0
59281303,1370,-0.5054,0.0903,1.1523,-18.2495,-163.5132,20.4468,1,490,895,0
59286309,1371,-0.5449,0.1099,1.1812,-19.9585,-196.9604,37.3535,1,478,883,0
59291307,1372,-0.6348,0.1279,1.2310,-28.2593,-234.4971,42.3584,1,493,900,0
59296307,1373,-0.7754,0.1523,1.3091,-43.9453,-289.4897,45.7764,1,466,910,0
59301305,1374,-0.8950,0.1807,1.4219,-58.8989,-348.0835,46.3867,1,466,936,0
59306302,1375,-1.1455,0.2358,1.5557,-75.5615,-401.5503,42.4194,1,466,941,0
59311302,1376,-1.3301,0.2617,1.6602,-92.6514,-463.1958,38.5132,1,466,939,0
59316303,1377,-1.0879,0.1733,1.7041,-104.3091,-526.6724,37.8418,1,466,931,0
59321302,1378,-0.6787,0.1138,1.7344,-103.8818,-573.4863,33.9355,1,466,928,0
59326302,1379,-0.6748,0.1743,1.8662,-112.1216,-611.2671,25.6958,1,466,940,0
59331305,1380,-1.0146,0.2402,1.9663,-125.6714,-661.7431,22.5220,1,466,944,0
59336308,1381,-1.1592,0.1943,1.8066,-132.0190,-724.6703,27.3437,1,466,952,0
59341303,1382,-1.0396,0.0483,1.4653,-132.7515,-754.5776,34.5459,1,466,944,0
59346335,1383,-0.9429,-0.0981,1.1729,-133.4839,-770.2636,29.1748,1,483,935,0
59351301,1384,-0.9785,-0.1758,0.9849,-130.7983,-798.1567,19.4092,1,484,942,0
59356304,1385,-1.0132,-0.1797,0.8076,-125.3662,-824.0356,10.6201,1,506,928,0
59361305,1386,-0.9253,-0.2358,0.5479,-116.1499,-836.0595,1.7700,1,465,931,0
59366307,1387,-0.7568,-0.3472,0.2471,-81.2378,-825.8666,-1.1597,1,509,917,0
59371309,1388,-0.6943,-0.3003,0.1562,-48.2788,-824.7070,0.1831,1,487,836,0
59376304,1389,-0.0269,0.0669,0.4546,-80.5664,-941.4672,-7.0801,1,490,863,0
59381301,1390,2.4229,0.0474,1.6289,-131.1646,-990.9667,9.3994,1,477,865,0
59386308,1391,5.3491,-1.2715,3.7646,-118.2861,-733.5815,7.8735,1,484,878,0
59391304,1392,5.4414,-2.2637,5.7979,-15.1367,-264.0381,-41.9311,1,497,918,0
59396301,1393,2.7627,-1.5449,6.5288,21.0571,-55.6641,-35.8276,1,469,913,0
59401306,1394,0.4116,-0.4873,5.7598,-4.0894,-22.5830,-21.1182,1,493,909,0
59406307,1395,-0.3931,-0.0977,4.3901,1.0986,43.7012,-32.7759,1,466,921,0
59411308,1396,-0.2915,-0.2236,3.2295,6.4087,107.5439,-35.0952,1,466,905,0
59416305,1397,-0.1265,-0.4141,2.4131,20.0806,158.6914,-36.1328,1,466,924,0
59421308,1398,-0.2705,-0.3774,1.7534,30.0903,190.4907,-39.5508,1,466,923,0
59426310,1399,-0.5791,-0.1680,1.1855,36.3770,193.1763,-43.0908,1,466,931,0
59431307,1400,-0.7935,0.0571,0.8008,42.0532,178.8940,-51.8188,1,466,936,0
59436304,1401,-0.7793,0.2056,0.6772,41.9311,157.9590,-62.6831,1,466,937,0
59441310,1402,-0.5522,0.2642,0.7534,42.6025,143.9209,-73.4863,1,466,937,0
59446303,1403,-0.2739,0.2764,0.8950,40.4053,145.7520,-84.8389,1,466,960,0
59451304,1404,-0.1064,0.2798,1.0151,34.3018,155.1514,-96.8628,1,483,931,0
59456308,1405,-0.0605,0.2783,1.0913,27.4658,163.9404,-107.4829,1,465,924,0
59461308,1406,-0.0654,0.2617,1.1436,19.8364,173.8891,-117.3706,1,465,949,0
59466302,1407,-0.0698,0.2202,1.2061,10.9863,185.3027,-125.8545,1,465,933,0
59471307,1408,-0.0386,0.1538,1.2930,2.5635,197.4487,-131.4087,1,507,932,0
59476304,1409,0.0435,0.0659,1.3950,-4.6997,213.3789,-134.2773,1,483,835,0
59481309,1410,0.1509,-0.0322,1.4873,-9.7046,233.2764,-135.0098,1,489,846,0
59486307,1411,0.2407,-0.1230,1.5430,-10.9253,254.8828,-133.4229,1,486,841,0
59491301,1412,0.2939,-0.1958,1.5469,-8.9722,276.1230,-130.3101,1,490,909,0
59496306,1413,0.3247,-0.2520,1.5039,-4.3335,296.0205,-126.7700,1,494,865,0
59501302,1414,0.3447,-0.2930,1.4224,2.6245,314.6362,-122.3144,1,499,873,0
59506302,1415,0.3516,-0.3232,1.3091,10.0098,331.3598,-117.3096,1,494,901,0
59511304,1416,0.3462,-0.3491,1.1743,16.4795,344.4824,-111.9385,1,466,929,0
59516305,1417,0.3301,-0.3706,1.0312,21.7285,353.3935,-105.9570,1,466,940,0
59521302,1418,0.3096,-0.3799,0.8994,24.7192,356.8725,-99.2432,1,466,973,0
59526307,1419,0.3027,-0.3760,0.7939,24.8413,355.4077,-91.3696,1,466,943,0
59531301,1420,0.3110,-0.3691,0.7178,22.4609,351.5014,-83.0078,1,466,943,0
59536301,1421,0.3184,-0.3687,0.6680,17.8833,346.1303,-74.2798,1,466,940,0
59541307,1422,0.3242,-0.3809,0.6450,12.3291,338.4399,-65.0024,1,466,927,0
59546305,1423,0.3408,-0.3965,0.6416,6.4697,330.0781,-55.4199,1,466,937,0
59551325,1424,0.3623,-0.3984,0.6465,0.0610,322.7539,-45.6543,1,466,950,0
59556307,1425,0.3730,-0.3872,0.6587,-7.6294,315.8569,-36.0718,1,466,921,0
59561324,1426,0.3745,-0.3784,0.6851,-15.2588,308.3496,-26.3672,1,484,910,0
59566309,1427,0.3750,-0.3794,0.7275,-21.6064,300.3540,-16.7236,1,466,933,0
59571301,1428,0.3750,-0.3853,0.7837,-26.6113,292.4194,-7.2021,1,511,923,0
59576304,1429,0.3691,-0.3770,0.8604,-30.7617,284.6069,2.0752,1,490,857,0
59581307,1430,0.3677,-0.3408,0.9727,-35.5225,276.7334,10.9863,1,465,835,0
59586303,1431,0.3979,-0.2915,1.1318,-41.7480,270.7520,19.6533,1,487,839,0
59591309,1432,0.4644,-0.2515,1.3198,-47.9736,269.7754,28.0762,1,497,916,0
59596302,1433,0.5347,-0.2202,1.4985,-52.3682,274.1699,35.6445,1,495,859,0
59601301,1434,0.5796,-0.1851,1.6440,-55.1758,281.0059,42.1753,1,486,887,0
59606304,1435,0.6108,-0.1519,1.7554,-57.0679,287.9639,47.9126,1,490,878,0
59611304,1436,0.6548,-0.1333,1.8354,-57.0679,295.6543,53.2837,1,493,901,0
59616309,1437,0.7388,-0.1138,1.8701,-51.4526,316.4673,61.8286,1,466,934,0
59621308,1438,0.7451,-0.0815,1.8315,-47.4853,323.9746,64.6362,1,465,937,0
59626303,1439,0.7612,-0.0430,1.7759,-43.5181,329.8340,65.9790,1,466,943,0
59631305,1440,0.7861,-0.0112,1.7100,-39.5508,335.4492,66.0400,1,466,932,0
59636307,1441,0.7993,0.0156,1.6353,-36.0718,339.5385,64.9414,1,466,923,0
59641307,1442,0.7998,0.0415,1.5601,-33.3862,341.0034,62.8052,1,465,930,0
59646304,1443,0.7959,0.0605,1.4951,-31.4941,340.7592,59.6313,1,466,928,0
59651301,1444,0.7881,0.0688,1.4468,-30.3955,339.2334,55.6641,1,466,946,0
59656321,1445,0.7808,0.0674,1.4229,-29.6631,335.2050,51.3916,1,466,936,0
59661304,1446,0.7876,0.0562,1.4194,-29.5410,330.5053,47.2412,1,466,932,0
59666333,1447,0.8086,0.0366,1.4233,-29.8462,326.4770,43.2739,1,484,941,0
59671307,1448,0.8242,0.0054,1.4233,-31.0669,323.2422,39.7339,1,465,941,0
59676303,1449,0.8164,-0.0391,1.4194,-32.4097,319.7632,37.2925,1,465,917,0
59681308,1450,0.7939,-0.0898,1.4229,-34.0576,315.3076,36.0718,1,493,859,0
59686301,1451,0.7764,-0.1357,1.4443,-35.6445,310.6079,36.1328,1,510,917,0
59691301,1452,0.7715,-0.1748,1.4810,-37.4756,307.0679,37.3535,1,497,843,0
59696302,1453,0.7676,-0.2114,1.5254,-38.8794,304.7485,39.1846,1,481,843,0
59701307,1454,0.7471,-0.2441,1.5757,-40.3442,302.4902,41.9922,1,484,874,0
59706306,1455,0.7236,-0.2744,1.6377,-41.9311,299.3164,45.4712,1,504,884,0
59711303,1456,0.7251,-0.3076,1.7095,-43.6401,297.1191,49.8657,1,494,915,0
59716308,1457,0.7383,-0.3433,1.7793,-44.8608,297.7295,54.8096,1,493,904,0
59721308,1458,0.7485,-0.3696,1.8335,-45.5322,298.2788,60.4248,1,493,902,0
59726306,1459,0.7681,-0.3804,1.8599,-46.2646,299.1333,66.2231,1,465,945,0
59731308,1460,0.7935,-0.3774,1.8501,-46.6919,301.8799,71.7773,1,466,931,0
59736307,1461,0.8149,-0.3599,1.8066,-46.5698,304.1992,76.5991,1,466,924,0
59741303,1462,0.8364,-0.3325,1.7383,-46.7529,304.3213,80.6274,1,466,935,0
59746301,1463,0.8579,-0.3057,1.6543,-47.2412,303.2227,84.0454,1,466,938,0
59751303,1464,0.8730,-0.2876,1.5679,-47.1802,299.9268,87.0972,1,466,933,0
59756305,1465,0.8862,-0.2788,1.4863,-46.0815,293.8232,89.5996,1,466,928,0
59761313,1466,0.9009,-0.2700,1.4175,-43.8232,285.9497,91.7969,1,466,945,0
59766306,1467,0.9155,-0.2568,1.3740,-41.6870,276.7944,93.6890,1,465,932,0
59771327,1468,0.9346,-0.2495,1.3652,-40.4663,266.4185,95.5200,1,483,943,0
59776306,1469,0.9673,-0.2495,1.3770,-39.2456,256.7749,97.7173,1,465,937,0
59781306,1470,1.0015,-0.2471,1.3770,-37.5366,249.8779,99.9145,1,509,932,0
59786306,1471,1.0122,-0.2300,1.3433,-35.9497,243.8354,100.9521,1,480,926,0
59791302,1472,1.0044,-0.1968,1.2749,-35.0952,235.7178,100.7690,1,493,888,0
59796308,1473,1.0034,-0.1543,1.1807,-34.9731,226.6846,99.4873,1,478,849,0
59801309,1474,1.0122,-0.1006,1.0674,-36.3159,217.9565,96.9238,1,496,855,0
59806310,1475,1.0254,-0.0342,0.9443,-39.4287,208.2519,93.0176,1,479,860,0
59811302,1476,1.0400,0.0327,0.8198,-44.2505,197.1435,87.8296,1,501,884,0
59816302,1477,1.0547,0.0879,0.7104,-50.1099,184.6924,81.4819,1,499,891,0
59821307,1478,1.0791,0.1235,0.6333,-56.2134,170.7153,74.5850,1,478,902,0
59826306,1479,1.1270,0.1333,0.5957,-61.6455,155.7617,67.4438,1,492,911,0
59831306,1480,1.1885,0.1211,0.5923,-65.4297,141.6626,60.6689,1,465,938,0
59836309,1481,1.2520,0.0952,0.6055,-67.4438,128.5400,54.9316,1,466,923,0
59841306,1482,1.3105,0.0591,0.6133,-67.3218,117.0044,50.6592,1,466,927,0
59846310,1483,1.3584,0.0229,0.5967,-64.1479,105.5908,47.6074,1,466,924,0
59851309,1484,1.3989,-0.0024,0.5381,-58.3496,93.3838,45.3491,1,466,934,0
59856309,1485,1.4268,-0.0171,0.4248,-51.1475,80.6885,43.2129,1,466,938,0
59861308,1486,1.4160,-0.0210,0.2715,-43.1519,66.2842,41.2598,1,466,930,0
59866302,1487,1.3638,-0.0112,0.1299,-35.7666,47.3633,39.7339,1,466,925,0
59871305,1488,1.3047,0.0020,0.0566,-29.6020,25.3906,38.3301,1,466,924,0
59876306,1489,1.2676,0.0054,0.0820,-24.1089,3.3569,36.2549,1,483,915,0
59881306,1490,1.2534,-0.0073,0.2036,-20.0195,-16.3574,33.7524,1,466,901,0
59886301,1491,1.2651,-0.0420,0.3887,-16.9678,-32.1045,31.4941,1,492,917,0
59891309,1492,1.2969,-0.0928,0.5835,-13.2446,-42.5415,29.1748,1,465,863,0
59896305,1493,1.3267,-0.1416,0.7275,-8.3008,-48.3398,26.7944,1,502,927,0
59901305,1494,1.3271,-0.1685,0.7705,-2.8687,-51.3306,23.9868,1,466,836,0
59906306,1495,1.2764,-0.1655,0.7090,1.3428,-55.1147,19.8364,1,494,853,0
59911302,1496,1.1899,-0.1528,0.6089,2.6855,-62.9883,14.5874,1,496,838,0
59916304,1497,1.0703,-0.1792,0.5571,2.3804,-73.8525,8.8501,1,507,877,0
59921304,1498,0.4204,-0.0127,0.2388,-3.7842,-97.8393,-3.9673,1,504,843,0
59926305,1499,-2.0103,0.5376,-0.4521,-38.3911,-204.6509,-13.1226,1,478,869,0
59931308,1500,-3.6855,0.1025,-0.1997,-145.1416,-307.2510,2.6245,1,492,905,0
59936302,1501,-2.2852,-1.2876,0.7666,-100.0366,-263.9160,9.8267,1,466,921,0
59941305,1502,-0.7319,-1.8271,0.7061,-37.8418,-210.4492,-5.9204,1,466,924,0
59946303,1503,-0.5376,-1.2383,-0.1294,-13.3057,-245.9106,10.3149,1,466,918,0
59951307,1504,-0.4658,-0.0889,-0.8735,22.7051,-336.6699,25.6958,1,466,943,0
59956303,1505,0.0908,0.6138,-1.0444,-30.2124,-362.4878,11.7798,1,466,936,0
59961303,1506,0.4888,0.4878,-0.3838,-74.7681,-371.0327,25.5737,1,466,939,0
59966302,1507,0.3477,0.1880,0.8081,-76.1108,-380.8593,32.5928,1,466,930,0
59971307,1508,0.1821,0.2188,2.0454,-67.4438,-397.3388,23.3154,1,466,927,0
59976327,1509,0.5171,0.5635,2.8994,-49.3774,-393.2495,15.7471,1,466,975,0
59981301,1510,0.9814,0.8853,3.1895,-50.9033,-348.4497,-0.9766,1,466,941,0
59986308,1511,1.1323,0.9839,3.0996,-55.5420,-309.9976,-17.1509,1,465,921,0
59991308,1512,1.0200,0.8921,2.9253,-59.0820,-279.1138,-28.8086,1,474,926,0
59996304,1513,0.7749,0.6211,2.7754,-65.6128,-246.6431,-42.7856,1,511,927,0
60001308,1514,0.5591,0.2422,2.6230,-59.3262,-225.0366,-52.7954,1,483,925,0
60006303,1515,0.4795,-0.1401,2.4897,-51.3306,-209.1675,-58.3496,1,502,932,0
60011305,1516,0.4814,-0.5083,2.4180,-50.2319,-188.2324,-58.4106,1,491,857,0
60016306,1517,0.4858,-0.8193,2.3335,-46.7529,-168.7012,-50.0488,1,491,870,0
60021310,1518,0.4341,-1.0229,2.1362,-39.8560,-147.2778,-40.9546,1,475,915,0
60026304,1519,0.2998,-1.1245,1.8628,-30.2124,-132.5073,-32.5928,1,492,885,0
60031308,1520,0.1509,-1.1304,1.6299,-17.0898,-125.2441,-23.3765,1,509,887,0
60036307,1521,0.0615,-1.0513,1.5044,-5.9204,-120.5444,-15.1367,1,471,905,0
60041309,1522,0.0420,-0.9224,1.4692,2.7466,-114.6851,-7.5073,1,493,895,0
60046303,1523,0.0498,-0.7593,1.4521,11.7187,-107.7270,-0.9155,1,466,905,0
60051302,1524,0.0552,-0.5669,1.3887,19.8975,-100.8911,3.0518,1,466,928,0
60056309,1525,0.0352,-0.3745,1.2681,25.4517,-95.0928,4.9438,1,466,910,0
60061304,1526,-0.0352,-0.2139,1.1177,28.0151,-90.6372,5.1880,1,465,915,0
60066303,1527,-0.1323,-0.0972,0.9668,27.7710,-90.5762,5.1270,1,466,911,0
60071303,1528,-0.1821,-0.0215,0.8560,24.9634,-93.8110,5.1270,1,466,912,0
60076306,1529,-0.1470,0.0269,0.8389,20.7520,-96.6797,4.5776,1,466,916,0
60081307,1530,-0.0601,0.0630,0.9209,17.2119,-96.3135,3.7231,1,466,914,0
60086309,1531,0.0093,0.0879,1.0083,14.5874,-92.4683,2.1973,1,466,905,0
60091307,1532,-0.0132,0.0493,1.0117,9.8877,-88.0737,0.6714,1,483,911,0
60096302,1533,-0.2231,-0.2798,1.1313,7.6904,-83.0078,4.3335,1,466,897,0
60101303,1534,-0.2300,-0.6685,1.3931,34.5459,-97.9004,18.4326,1,510,904,0
60106306,1535,0.0991,-0.7344,1.4453,47.3633,-89.3555,24.8413,1,474,907,0
60111306,1536,0.2188,-0.6812,1.3198,43.7012,-69.7632,26.3672,1,497,870,0
60116307,1537,0.1191,-0.5327,1.2920,64.7583,-74.7070,31.1279,1,481,982,0
60121305,1538,0.0947,-0.1831,1.4004,70.1904,-76.1719,29.8462,1,501,851,0
60126307,1539,0.1411,0.1919,1.5078,64.2090,-62.6221,24.4141,1,505,840,0
60131304,1540,0.1519,0.3462,1.5186,59.0820,-50.7812,18.8599,1,484,876,0
60136304,1541,0.1372,0.2231,1.4336,51.8799,-42.4805,15.4419,1,501,898,0
60141305,1542,0.1128,-0.0425,1.3003,48.7671,-35.2783,14.5874,1,488,890,0
60146309,1543,0.0620,-0.2524,1.1719,51.9409,-31.3721,14.3433,1,493,897,0
60151303,1544,0.0054,-0.2729,1.0879,56.8237,-31.2500,14.7095,1,466,933,0
60156305,1545,-0.0073,-0.1382,1.0898,58.7158,-32.1655,14.5874,1,466,932,0
60161302,1546,0.0366,0.0234,1.1582,57.3730,-28.9917,13.4277,1,466,936,0
60166306,1547,0.0815,0.0938,1.2207,53.5889,-22.6440,12.0239,1,466,939,0
60171305,1548,0.0864,0.0552,1.2314,50.0488,-17.2729,10.9863,1,466,958,0
60176304,1549,0.0635,-0.0249,1.1851,48.3398,-13.4277,10.5591,1,466,930,0
60181306,1550,0.0229,-0.0693,1.1211,47.7295,-10.2539,10.3760,1,466,933,0
60186308,1551,-0.0225,-0.0439,1.0874,47.0581,-10.4980,10.1318,1,466,933,0
60191303,1552,-0.0513,0.0181,1.0869,43.8843,-11.1694,8.9722,1,465,935,0
60196306,1553,-0.0605,0.0938,1.1270,38.3911,-12.5122,6.9580,1,484,915,0
60201308,1554,-0.0337,0.1465,1.1855,30.0293,-15.3809,4.5776,1,465,938,0
60206302,1555,-0.0073,0.1099,1.1772,21.6064,-13.2446,2.9297,1,503,915,0
60211302,1556,-0.0391,0.0010,1.0908,18.2495,-13.6108,2.1973,1,470,906,0
60216301,1557,-0.0664,-0.0718,1.0239,18.6768,-18.3105,2.0142,1,497,925,0
60221308,1558,-0.0371,-0.0449,1.0352,18.4937,-18.7378,1.2817,1,500,810,0
60226310,1559,0.0000,0.0034,1.0723,14.7095,-15.8691,-0.1221,1,474,872,0
60231310,1560,0.0049,-0.0034,1.0776,12.1460,-14.7095,-0.4272,1,498,817,0
60236303,1561,-0.0034,-0.0254,1.0605,11.7798,-14.8315,-0.5493,1,501,861,0
60241304,1562,-0.0112,-0.0332,1.0513,10.3149,-13.9160,-1.1597,1,501,894,0
60246303,1563,-0.0210,-0.0288,1.0522,9.0942,-14.0381,-1.3428,1,505,870,0
60251308,1564,-0.0151,-0.0190,1.0654,7.8125,-15.2588,-1.4038,1,492,866,0
60256303,1565,0.0137,-0.0210,1.0898,5.7983,-13.9160,-1.4648,1,494,871,0
60261302,1566,0.0298,-0.0352,1.0962,5.2490,-10.6812,-1.4038,1,466,899,0
60266308,1567,0.0210,-0.0479,1.0767,4.5166,-9.6436,-1.4648,1,466,894,0
60271306,1568,0.0107,-0.0493,1.0596,4.5166,-9.6436,-1.4038,1,466,879,0
60276308,1569,0.0142,-0.0488,1.0571,4.1504,-8.4839,-1.4648,1,466,882,0
60281306,1570,0.0215,-0.0518,1.0576,3.9062,-7.0801,-1.4648,1,466,882,0
60286306,1571,0.0215,-0.0537,1.0518,4.0283,-5.6152,-1.4038,1,466,875,0
60291302,1572,0.0059,-0.0581,1.0381,4.0894,-4.5776,-1.4648,1,466,880,0
60296302,1573,-0.0088,-0.0581,1.0229,4.4556,-4.7607,-1.4038,1,465,874,0
60301309,1574,-0.0049,-0.0503,1.0215,4.2725,-4.3945,-1.5259,1,465,879,0
60306323,1575,-0.0024,-0.0469,1.0278,4.2114,-3.4180,-1.4038,1,484,871,0
60311305,1576,-0.0078,-0.0498,1.0264,4.2114,-3.9062,-1.1597,1,465,866,0
60316308,1577,-0.0098,-0.0552,1.0210,4.4556,-3.7231,-1.3428,1,512,868,0
60321307,1578,-0.0151,-0.0601,1.0166,5.0049,-3.1128,-1.7090,1,488,897,0
60326304,1579,-0.0254,-0.0620,1.0137,5.3101,-3.7231,-1.8921,1,493,785,0
60331305,1580,-0.0225,-0.0605,1.0195,5.5542,-4.6387,-2.0142,1,495,844,0
60336308,1581,-0.0088,-0.0488,1.0288,5.6152,-4.3945,-2.1362,1,497,846,0
60341309,1582,0.0093,-0.0342,1.0366,5.1270,-4.5166,-2.3193,1,500,838,0
60346303,1583,0.0220,-0.0303,1.0454,4.0894,-3.1128,-2.4414,1,475,834,0
60351304,1584,0.0156,-0.0288,1.0459,3.7842,-2.5024,-2.4414,1,504,829,0
60356304,1585,0.0083,-0.0308,1.0415,2.9297,-2.6245,-2.2583,1,485,854,0
60361310,1586,0.0063,-0.0391,1.0386,2.5024,-1.8921,-2.3193,1,492,851,0
60366305,1587,0.0049,-0.0405,1.0376,2.5024,-1.7090,-2.0752,1,466,869,0
60371303,1588,0.0107,-0.0381,1.0391,2.0752,-1.3428,-2.0752,1,465,869,0
60376304,1589,0.0176,-0.0376,1.0415,1.7090,-0.1831,-2.1973,1,466,866,0
60381307,1590,0.0132,-0.0371,1.0400,1.5869,0.3052,-1.9531,1,466,878,0
60386307,1591,0.0020,-0.0386,1.0332,0.9155,0.4883,-1.8311,1,466,874,0
60391301,1592,-0.0073,-0.0425,1.0254,0.8545,0.4883,-1.8311,1,466,868,0
60396301,1593,-0.0137,-0.0474,1.0190,1.0376,0.0610,-1.7090,1,466,867,0
60401301,1594,-0.0181,-0.0474,1.0181,0.7935,-0.6104,-1.5869,1,466,866,0
60406301,1595,-0.0171,-0.0430,1.0205,0.8545,-0.9766,-1.4038,1,466,865,0
60411303,1596,-0.0142,-0.0410,1.0195,0.7324,-1.0376,-1.2817,1,483,868,0
60416304,1597,-0.0112,-0.0435,1.0176,0.8545,-1.4038,-1.2817,1,465,867,0
60421309,1598,-0.0049,-0.0488,1.0195,1.0376,-1.8311,-1.2817,1,499,865,0
60426305,1599,-0.0049,-0.0527,1.0200,1.5869,-1.5259,-1.2207,1,511,862,0
60431304,1600,-0.0117,-0.0518,1.0156,2.1973,-1.8921,-1.2817,1,486,861,0
60436309,1601,-0.0122,-0.0518,1.0176,2.8076,-2.4414,-1.4648,1,466,846,0
60441309,1602,-0.0151,-0.0488,1.0176,3.2349,-2.8687,-1.6479,1,484,852,0
60446304,1603,-0.0117,-0.0444,1.0195,3.2349,-4.3335,-1.5259,1,488,834,0
60451309,1604,-0.0024,-0.0405,1.0254,3.3569,-3.8452,-1.6479,1,473,832,0
60456302,1605,0.0010,-0.0396,1.0293,3.1738,-3.5400,-1.7090,1,487,835,0
60461309,1606,-0.0039,-0.0391,1.0293,3.3569,-3.4180,-1.6479,1,498,820,0
60466303,1607,-0.0010,-0.0391,1.0293,2.8687,-3.9062,-1.5869,1,476,847,0
60471304,1608,0.0088,-0.0376,1.0298,2.8076,-2.9907,-1.3428,1,493,840,0
60476302,1609,0.0020,-0.0347,1.0249,2.5024,-2.6855,-1.4648,1,466,872,0
60481310,1610,-0.0073,-0.0356,1.0195,2.0752,-3.3569,-1.1597,1,466,880,0
60486310,1611,-0.0098,-0.0371,1.0210,1.9531,-3.0518,-1.3428,1,466,880,0
60491302,1612,-0.0020,-0.0410,1.0249,1.7700,-3.2349,-1.2207,1,466,873,0
60496310,1613,0.0063,-0.0425,1.0288,1.6479,-2.6855,-1.0376,1,466,874,0
60501307,1614,0.0010,-0.0366,1.0298,1.0986,-2.3193,-1.0376,1,466,878,0
60506303,1615,-0.0098,-0.0322,1.0249,0.8545,-2.7466,-1.0986,1,465,871,0
60511304,1616,-0.0098,-0.0332,1.0210,0.7935,-3.3569,-1.2817,1,466,876,0
60516309,1617,0.0044,-0.0396,1.0273,0.7324,-2.9907,-1.4038,1,466,875,0
60521310,1618,0.0137,-0.0415,1.0352,0.8545,-2.3193,-1.1597,1,465,874,0
60526303,1619,0.0127,-0.0405,1.0337,0.7324,-2.3193,-1.2817,1,484,864,0
60531309,1620,0.0073,-0.0391,1.0293,0.7935,-1.6479,-1.2207,1,511,815,0
60536309,1621,0.0005,-0.0366,1.0278,0.6714,-1.5869,-1.4038,1,474,791,0
60541306,1622,0.0034,-0.0449,1.0254,0.9155,-1.8921,-1.3428,1,501,785,0
60546305,1623,0.0117,-0.0454,1.0259,1.1597,-1.0986,-1.0986,1,484,796,0
60551304,1624,0.0112,-0.0381,1.0293,0.7935,-0.7324,-1.1597,1,487,829,0
60556304,1625,0.0059,-0.0386,1.0288,1.0376,-0.6104,-0.9155,1,493,825,0
60561303,1626,0.0059,-0.0405,1.0264,1.2207,-0.3052,-0.9155,1,492,818,0
60566305,1627,0.0054,-0.0435,1.0205,1.1597,0.1831,-0.8545,1,496,817,0
60571301,1628,-0.0024,-0.0405,1.0151,1.4038,0.4883,-0.7324,1,478,839,0
60576302,1629,-0.0059,-0.0322,1.0146,1.3428,0.0000,-0.5493,1,493,846,0
60581302,1630,-0.0029,-0.0303,1.0205,0.8545,0.3052,-0.4883,1,466,827,0
60586301,1631,0.0000,-0.0312,1.0254,0.9766,0.3662,-0.2441,1,465,863,0
60591309,1632,0.0015,-0.0327,1.0308,0.6104,0.4272,-0.1221,1,466,855,0
60596308,1633,0.0049,-0.0376,1.0342,0.1831,0.4883,-0.0610,1,466,862,0
60601307,1634,0.0049,-0.0400,1.0347,0.3662,1.0376,-0.2441,1,466,865,0
60606309,1635,0.0015,-0.0381,1.0352,0.3052,0.4883,-0.1221,1,466,869,0
60611301,1636,0.0015,-0.0366,1.0327,0.3052,0.4272,-0.1831,1,466,859,0
60616315,1637,0.0034,-0.0347,1.0337,-0.1831,0.2441,-0.0610,1,466,872,0
60621309,1638,0.0029,-0.0327,1.0327,-0.1221,0.4883,0.0000,1,466,873,0
60626301,1639,-0.0015,-0.0347,1.0269,-0.4272,0.1221,-0.0610,1,483,812,0
60631306,1640,-0.0054,-0.0317,1.0259,-0.4272,0.0000,-0.1831,1,475,850,0
60636303,1641,-0.0020,-0.0356,1.0259,-0.5493,-0.6104,-0.4883,1,510,770,0
60641302,1642,0.0015,-0.0391,1.0264,-0.4272,-0.2441,-0.1831,1,482,895,0
60646304,1643,0.0044,-0.0371,1.0303,-0.7935,-0.7324,-0.0610,1,509,786,0
60651302,1644,0.0122,-0.0361,1.0342,-0.7324,-0.4883,0.1221,1,486,754,0
60656307,1645,0.0190,-0.0386,1.0376,-0.7324,-0.2441,0.0000,1,489,843,0
60661306,1646,0.0205,-0.0415,1.0381,-0.9155,0.6104,0.3052,1,485,804,0
60666305,1647,0.0215,-0.0366,1.0400,-0.7324,0.7324,0.4272,1,487,845,0
60671304,1648,0.0264,-0.0366,1.0435,-1.2207,1.5869,0.4883,1,506,829,0
60676308,1649,0.0303,-0.0391,1.0449,-1.0986,2.4414,0.5493,1,480,847,0
60681309,1650,0.0298,-0.0386,1.0430,-1.1597,3.5400,0.7324,1,493,847,0
60686310,1651,0.0171,-0.0376,1.0347,-1.1597,4.2114,0.7324,1,465,874,0
60691301,1652,0.0005,-0.0420,1.0249,-1.1597,4.0894,0.7324,1,466,875,0
60696304,1653,-0.0039,-0.0430,1.0225,-0.7324,3.9062,0.5493,1,466,867,0
60701305,1654,0.0015,-0.0381,1.0259,-0.9155,4.3335,0.3662,1,466,876,0
60706302,1655,0.0039,-0.0361,1.0254,-1.0986,5.0049,0.4272,1,466,868,0
60711302,1656,-0.0020,-0.0371,1.0186,-1.0376,5.0659,0.4272,1,466,872,0
60716308,1657,-0.0117,-0.0415,1.0112,-1.0986,4.7607,0.1831,1,465,873,0
60721306,1658,-0.0205,-0.0449,1.0059,-0.4883,4.4556,0.0000,1,466,882,0
60726306,1659,-0.0200,-0.0444,1.0059,-0.4883,3.7842,0.0610,1,466,826,0
60731301,1660,-0.0146,-0.0400,1.0068,-0.4272,3.8452,-0.0610,1,483,869,0
60736330,1661,-0.0181,-0.0400,1.0034,-0.5493,3.8452,-0.1221,1,465,867,0
60741305,1662,-0.0269,-0.0435,0.9995,-0.3052,3.0518,0.0000,1,473,861,0
60746304,1663,-0.0312,-0.0376,0.9990,-0.1221,1.8921,-0.0610,1,465,737,0
60751307,1664,-0.0254,-0.0347,1.0059,-0.6104,1.5869,-0.2441,1,510,889,0
60756308,1665,-0.0171,-0.0381,1.0142,-0.3052,1.7090,-0.1221,1,466,758,0
60761304,1666,-0.0107,-0.0381,1.0181,-0.3052,1.4648,-0.1221,1,489,829,0
60766302,1667,-0.0059,-0.0381,1.0210,-0.4272,1.5869,-0.2441,1,495,817,0
60771304,1668,-0.0059,-0.0396,1.0225,-0.3662,1.6479,-0.3052,1,479,848,0
60776305,1669,-0.0078,-0.0410,1.0210,-0.1221,1.4038,-0.3052,1,499,819,0
60781303,1670,-0.0073,-0.0420,1.0205,-0.0610,1.2817,-0.4272,1,473,834,0
60786302,1671,-0.0073,-0.0454,1.0215,0.0000,1.3428,-0.6104,1,492,846,0
60791307,1672,-0.0078,-0.0464,1.0220,0.3662,1.1597,-0.6104,1,493,796,0
60796302,1673,-0.0088,-0.0474,1.0205,0.7324,1.1597,-0.8545,1,465,868,0
60801302,1674,-0.0073,-0.0493,1.0210,0.9766,1.0376,-0.9766,1,466,869,0
60806304,1675,-0.0054,-0.0449,1.0225,1.4648,1.0986,-0.9155,1,466,867,0
60811305,1676,-0.0029,-0.0396,1.0254,1.2817,0.9766,-1.0376,1,466,875,0
60816306,1677,0.0000,-0.0405,1.0283,1.4648,1.2207,-1.0376,1,466,868,0
60821302,1678,0.0034,-0.0425,1.0312,1.7090,1.5259,-1.0376,1,466,834,0
60826306,1679,0.0063,-0.0381,1.0337,1.6479,1.9531,-1.0986,1,466,898,0
60831305,1680,0.0073,-0.0352,1.0352,1.3428,2.1362,-1.0986,1,466,875,0
60836305,1681,0.0068,-0.0400,1.0347,1.2207,2.7466,-0.7324,1,484,875,0
60841333,1682,0.0068,-0.0371,1.0317,1.7090,3.1738,-0.6714,1,465,872,0
60846303,1683,0.0098,-0.0308,1.0322,1.0986,3.4180,-0.7935,1,465,864,0
60851303,1684,0.0142,-0.0366,1.0352,0.9766,4.3945,-0.6714,1,511,806,0
60856308,1685,0.0107,-0.0381,1.0352,1.5259,5.1880,-0.3662,1,500,901,0
60861307,1686,0.0049,-0.0347,1.0337,0.9766,5.1880,-0.4883,1,500,787,0
60866303,1687,0.0029,-0.0352,1.0356,1.0376,5.7983,-0.3052,1,481,845,0
60871303,1688,0.0078,-0.0322,1.0376,0.9155,6.3477,-0.4272,1,486,823,0
60876305,1689,0.0132,-0.0356,1.0376,0.7324,7.3242,-0.4883,1,491,829,0
60881303,1690,0.0049,-0.0391,1.0293,0.8545,7.7515,-0.2441,1,487,831,0
