t_us, seq, ax, ay, az, gx, gy, gz, valid, t_imu_us, t_serial_us, missed
88059731,9569,-0.0747,-0.1353,1.0107,0.1831,0.0000,-0.0610,1,465,828,231
88064730,9570,-0.0737,-0.1353,1.0098,0.2441,0.0610,0.0000,1,466,832,231
88069726,9571,-0.0737,-0.1343,1.0098,0.3052,0.1221,0.0000,1,465,831,231
88074730,9572,-0.0742,-0.1338,1.0103,0.2441,0.0610,0.0000,1,466,813,231
88079725,9573,-0.0742,-0.1338,1.0103,0.2441,0.0610,-0.1221,1,484,781,231
88084725,9574,-0.0742,-0.1328,1.0098,0.3052,0.1831,-0.1221,1,465,899,231
88089734,9575,-0.0752,-0.1333,1.0112,0.2441,0.1221,-0.1221,1,472,863,231
88094727,9576,-0.0752,-0.1338,1.0112,0.3662,0.0610,-0.1831,1,469,874,231
88099727,9577,-0.0742,-0.1338,1.0112,0.3052,-0.0610,-0.1221,1,480,878,231
88104729,9578,-0.0728,-0.1328,1.0127,0.3662,0.0000,0.0000,1,467,854,231
88109730,9579,-0.0718,-0.1309,1.0127,0.3052,0.1221,-0.0610,1,493,698,231
88114728,9580,-0.0718,-0.1313,1.0127,0.3052,0.1831,-0.0610,1,483,844,231
88119725,9581,-0.0728,-0.1333,1.0127,0.2441,0.1831,-0.1221,1,493,800,231
88124733,9582,-0.0742,-0.1333,1.0132,0.3052,0.1831,-0.1221,1,492,872,231
88129731,9583,-0.0742,-0.1313,1.0132,0.3052,0.0610,-0.0610,1,473,848,231
88134732,9584,-0.0737,-0.1318,1.0137,0.2441,0.1221,0.0000,1,482,844,231
88139733,9585,-0.0747,-0.1333,1.0142,0.2441,0.2441,-0.1831,1,490,804,231
88144728,9586,-0.0757,-0.1338,1.0117,0.3052,0.3052,0.1221,1,484,857,231
88149730,9587,-0.0752,-0.1343,1.0103,0.1831,0.3052,-0.0610,1,492,839,231
88154727,9588,-0.0742,-0.1348,1.0122,0.3662,0.3052,-0.1831,1,466,868,231
88159731,9589,-0.0732,-0.1338,1.0117,0.4272,0.4883,-0.1221,1,466,880,231
88164731,9590,-0.0728,-0.1328,1.0112,0.3052,0.4272,-0.0610,1,466,878,231
88169731,9591,-0.0732,-0.1323,1.0122,0.6104,0.3052,-0.0610,1,484,876,231
88174725,9592,-0.0742,-0.1323,1.0122,0.5493,0.4272,-0.0610,1,466,864,231
88179733,9593,-0.0732,-0.1333,1.0122,0.4272,0.3662,-0.1221,1,484,873,231
88184733,9594,-0.0718,-0.1343,1.0132,0.4272,0.4272,-0.1221,1,466,910,231
88189733,9595,-0.0723,-0.1343,1.0127,0.4883,0.4272,-0.1221,1,476,863,231
88194732,9596,-0.0742,-0.1333,1.0127,0.5493,0.4272,-0.1831,1,483,871,231
88199733,9597,-0.0742,-0.1313,1.0127,0.5493,0.4883,-0.1831,1,472,839,231
88204732,9598,-0.0718,-0.1313,1.0122,0.6714,0.4272,-0.1221,1,481,864,231
88209727,9599,-0.0708,-0.1318,1.0122,0.7324,0.4883,-0.1221,1,492,859,231
88214727,9600,-0.0723,-0.1313,1.0117,0.7324,0.6104,-0.1831,1,503,858,231
88219729,9601,-0.0747,-0.1318,1.0112,0.6714,0.5493,-0.2441,1,464,823,231
88224733,9602,-0.0742,-0.1333,1.0112,0.5493,0.5493,-0.3052,1,490,867,231
88229733,9603,-0.0728,-0.1348,1.0112,0.7935,0.4883,-0.2441,1,480,854,231
88234733,9604,-0.0723,-0.1338,1.0117,0.7324,0.4272,-0.1221,1,471,870,231
88239731,9605,-0.0728,-0.1328,1.0112,0.7324,0.4883,-0.2441,1,477,848,231
88244728,9606,-0.0732,-0.1328,1.0112,0.7935,0.6104,-0.2441,1,491,854,231
88249726,9607,-0.0732,-0.1328,1.0112,0.7935,0.6714,-0.1831,1,493,852,231
88254728,9608,-0.0737,-0.1323,1.0103,0.8545,0.4883,-0.1831,1,466,882,231
88259727,9609,-0.0737,-0.1328,1.0117,0.8545,0.6104,-0.0610,1,466,879,231
88264730,9610,-0.0728,-0.1309,1.0122,0.6714,0.4883,-0.1221,1,466,876,231
88269727,9611,-0.0737,-0.1309,1.0117,0.7324,0.5493,-0.1831,1,465,871,231
88274733,9612,-0.0757,-0.1323,1.0107,0.8545,0.7324,-0.1221,1,485,871,231
88279726,9613,-0.0776,-0.1338,1.0112,0.8545,0.6104,-0.1221,1,465,874,231
88284733,9614,-0.0776,-0.1338,1.0132,0.9155,0.6104,-0.2441,1,483,863,231
88289733,9615,-0.0747,-0.1333,1.0137,1.0376,0.6104,-0.2441,1,482,869,231
88294734,9616,-0.0732,-0.1328,1.0132,1.0986,0.5493,-0.1831,1,469,876,231
88299725,9617,-0.0732,-0.1333,1.0127,1.0376,0.4883,-0.2441,1,476,866,231
88304732,9618,-0.0737,-0.1333,1.0132,0.9766,0.4272,-0.3052,1,492,861,231
88309726,9619,-0.0752,-0.1299,1.0132,0.9155,0.5493,-0.2441,1,483,856,231
88314729,9620,-0.0762,-0.1279,1.0127,0.9155,0.4272,-0.1831,1,494,860,231
88319731,9621,-0.0752,-0.1299,1.0112,0.7324,0.4272,-0.1831,1,467,834,231
88324732,9622,-0.0742,-0.1328,1.0112,1.0986,0.3662,-0.2441,1,481,854,231
88329725,9623,-0.0742,-0.1328,1.0127,0.9155,0.4883,-0.1831,1,491,860,231
88334731,9624,-0.0747,-0.1299,1.0146,0.7935,0.6104,-0.2441,1,487,853,231
88339732,9625,-0.0752,-0.1284,1.0146,0.6104,0.5493,-0.2441,1,483,849,231
88344730,9626,-0.0742,-0.1294,1.0142,0.4272,0.6104,-0.3662,1,491,853,231
88349725,9627,-0.0728,-0.1299,1.0142,0.7324,0.6104,-0.1831,1,493,849,231
88354729,9628,-0.0732,-0.1309,1.0127,0.6714,0.6714,-0.2441,1,465,876,231
88359743,9629,-0.0747,-0.1328,1.0117,0.5493,0.6104,-0.1831,1,466,877,231
88364733,9630,-0.0752,-0.1328,1.0107,0.5493,0.6104,-0.2441,1,465,883,231
88369731,9631,-0.0742,-0.1323,1.0117,0.4883,0.5493,-0.2441,1,483,880,231
88374726,9632,-0.0732,-0.1309,1.0132,0.5493,0.4883,-0.2441,1,475,875,231
88379725,9633,-0.0728,-0.1279,1.0137,0.4883,0.4272,-0.3052,1,465,875,231
88384733,9634,-0.0737,-0.1279,1.0127,0.4883,0.5493,-0.1831,1,469,931,231
88389725,9635,-0.0757,-0.1289,1.0112,0.4272,0.4272,-0.1221,1,467,872,231
88394728,9636,-0.0762,-0.1304,1.0117,0.4883,0.3052,-0.1221,1,483,879,231
88399729,9637,-0.0757,-0.1313,1.0132,0.3052,0.4272,-0.2441,1,482,867,231
88404733,9638,-0.0742,-0.1299,1.0146,0.3662,0.2441,-0.2441,1,482,859,231
88409731,9639,-0.0732,-0.1279,1.0146,0.3662,0.2441,-0.2441,1,492,867,231
88414727,9640,-0.0737,-0.1279,1.0132,0.3662,0.3052,-0.1831,1,491,870,231
88419729,9641,-0.0737,-0.1304,1.0127,0.3662,0.3052,-0.2441,1,464,776,231
88424725,9642,-0.0742,-0.1323,1.0127,0.3662,0.2441,-0.1831,1,476,848,231
88429727,9643,-0.0747,-0.1313,1.0127,0.4272,0.3052,-0.0610,1,492,856,231
88434732,9644,-0.0747,-0.1304,1.0122,0.3052,0.3052,-0.1221,1,477,848,231
88439730,9645,-0.0747,-0.1304,1.0122,0.4272,0.3662,-0.2441,1,476,841,231
88444727,9646,-0.0747,-0.1309,1.0132,0.4272,0.3052,-0.1831,1,491,855,231
88449731,9647,-0.0747,-0.1309,1.0132,0.4883,0.4272,-0.1831,1,493,847,231
88454725,9648,-0.0742,-0.1289,1.0132,0.4272,0.3052,-0.2441,1,466,876,231
88459733,9649,-0.0747,-0.1274,1.0146,0.3662,0.3052,-0.3052,1,466,880,231
88464729,9650,-0.0752,-0.1289,1.0142,0.2441,0.3052,-0.3052,1,466,878,231
88469726,9651,-0.0752,-0.1304,1.0127,0.0610,0.3662,-0.3052,1,483,872,231
88474732,9652,-0.0747,-0.1299,1.0117,0.0610,0.2441,-0.3052,1,465,857,231
88479733,9653,-0.0742,-0.1294,1.0117,0.0610,0.3052,-0.2441,1,484,866,231
88484731,9654,-0.0737,-0.1313,1.0122,0.2441,0.1221,-0.3662,1,476,904,231
88489733,9655,-0.0732,-0.1318,1.0117,0.2441,0.2441,-0.2441,1,465,873,231
88494729,9656,-0.0737,-0.1304,1.0112,0.4883,0.1831,-0.2441,1,470,887,231
88499756,9657,-0.0747,-0.1299,1.0122,0.6104,0.2441,-0.2441,1,479,878,231
88504732,9658,-0.0747,-0.1289,1.0132,0.3052,0.2441,-0.2441,1,482,863,231
88509729,9659,-0.0742,-0.1289,1.0146,0.1831,0.3052,-0.3052,1,491,862,231
88514728,9660,-0.0747,-0.1309,1.0146,0.2441,0.2441,-0.4272,1,476,858,231
88519732,9661,-0.0747,-0.1318,1.0132,0.5493,0.1221,-0.2441,1,464,807,231
88524729,9662,-0.0742,-0.1304,1.0122,0.4272,0.2441,-0.1831,1,478,862,231
88529728,9663,-0.0732,-0.1274,1.0127,0.3662,0.1221,-0.1221,1,491,855,231
88534730,9664,-0.0737,-0.1265,1.0137,0.1221,0.0610,-0.3662,1,480,848,231
88539727,9665,-0.0752,-0.1284,1.0142,0.1831,0.1221,-0.2441,1,481,846,231
88544732,9666,-0.0757,-0.1294,1.0137,0.3052,0.1831,-0.2441,1,475,849,231
88549731,9667,-0.0747,-0.1294,1.0132,0.1831,0.0610,-0.2441,1,492,847,231
88554732,9668,-0.0752,-0.1289,1.0132,-0.1221,0.0000,-0.2441,1,465,878,231
88559739,9669,-0.0762,-0.1274,1.0132,0.1221,0.0000,-0.3662,1,466,832,231
88564726,9670,-0.0767,-0.1274,1.0127,0.0610,-0.1221,-0.3052,1,466,830,231
88569731,9671,-0.0781,-0.1279,1.0122,-0.1831,-0.0610,-0.2441,1,484,871,231
88574727,9672,-0.0776,-0.1289,1.0122,0.1831,-0.1221,-0.1831,1,469,875,231
88579725,9673,-0.0767,-0.1299,1.0122,-0.1221,-0.1221,-0.3052,1,465,828,231
88584726,9674,-0.0762,-0.1294,1.0122,-0.1831,-0.1831,-0.2441,1,467,859,231
88589725,9675,-0.0752,-0.1284,1.0117,-0.1221,-0.2441,-0.4272,1,472,873,231
88594733,9676,-0.0747,-0.1289,1.0127,-0.1831,-0.2441,-0.3662,1,480,880,231
88599725,9677,-0.0762,-0.1299,1.0142,-0.3052,-0.2441,-0.3662,1,479,840,231
88604725,9678,-0.0776,-0.1304,1.0142,-0.0610,-0.4272,-0.3662,1,469,858,231
88609729,9679,-0.0781,-0.1304,1.0117,-0.1221,-0.4883,-0.3052,1,500,860,231
88614725,9680,-0.0781,-0.1313,1.0098,-0.1831,-0.3662,-0.4272,1,479,851,231
88619732,9681,-0.0762,-0.1318,1.0107,0.1221,-0.5493,-0.3052,1,464,808,231
88624727,9682,-0.0747,-0.1318,1.0112,-0.1221,-0.5493,-0.2441,1,478,846,231
88629731,9683,-0.0737,-0.1313,1.0112,-0.0610,-0.5493,-0.2441,1,492,856,231
88634729,9684,-0.0742,-0.1309,1.0112,0.0000,-0.4883,-0.3052,1,481,859,231
88639728,9685,-0.0757,-0.1313,1.0112,0.0610,-0.6104,-0.3052,1,484,800,231
88644733,9686,-0.0776,-0.1318,1.0098,0.2441,-0.6714,-0.2441,1,475,845,231
88649726,9687,-0.0781,-0.1318,1.0078,0.1831,-0.8545,-0.3662,1,493,853,231
88654727,9688,-0.0762,-0.1309,1.0093,0.1831,-0.9766,-0.3662,1,466,882,231
88659748,9689,-0.0737,-0.1309,1.0132,0.2441,-0.9766,-0.4272,1,466,874,231
88664727,9690,-0.0723,-0.1318,1.0156,0.1221,-0.8545,-0.3662,1,466,878,231
88669725,9691,-0.0713,-0.1318,1.0161,0.1221,-0.6714,-0.4272,1,465,878,231
88674727,9692,-0.0713,-0.1299,1.0151,0.3052,-0.7324,-0.3052,1,484,866,231
88679728,9693,-0.0713,-0.1284,1.0142,0.1221,-0.7324,-0.3052,1,465,900,231
88684728,9694,-0.0718,-0.1279,1.0127,0.0610,-0.6714,-0.3052,1,465,863,231
88689726,9695,-0.0728,-0.1309,1.0127,0.0610,-0.6714,-0.3052,1,474,871,231
88694732,9696,-0.0742,-0.1328,1.0127,0.2441,-0.7324,-0.3052,1,480,821,231
88699727,9697,-0.0737,-0.1318,1.0122,0.1831,-0.6714,-0.1831,1,465,862,231
88704731,9698,-0.0723,-0.1309,1.0127,0.0610,-0.6104,-0.3662,1,499,866,231
88709726,9699,-0.0718,-0.1299,1.0137,0.2441,-0.6714,-0.3052,1,484,851,231
88714725,9700,-0.0723,-0.1284,1.0142,0.0610,-0.4883,-0.3052,1,494,871,231
88719728,9701,-0.0728,-0.1279,1.0127,0.0000,-0.4883,-0.3052,1,475,853,231
88724727,9702,-0.0732,-0.1294,1.0107,0.0610,-0.6104,-0.3052,1,487,800,231
88729730,9703,-0.0737,-0.1309,1.0098,0.1221,-0.6104,-0.2441,1,478,842,231
88734732,9704,-0.0728,-0.1309,1.0107,0.1221,-0.7324,-0.3052,1,490,863,231
88739730,9705,-0.0718,-0.1294,1.0117,0.1831,-0.7324,-0.3662,1,480,840,231
88744729,9706,-0.0723,-0.1284,1.0112,0.0610,-0.8545,-0.3662,1,483,854,231
88749730,9707,-0.0747,-0.1299,1.0103,0.2441,-0.8545,-0.3052,1,466,851,231
88754736,9708,-0.0737,-0.1313,1.0103,0.1831,-1.0376,-0.3662,1,466,872,231
88759733,9709,-0.0708,-0.1313,1.0132,0.0610,-1.0376,-0.4883,1,466,881,231
88764733,9710,-0.0693,-0.1304,1.0166,0.3662,-0.9155,-0.4883,1,483,876,231
88769731,9711,-0.0693,-0.1289,1.0166,0.3052,-0.8545,-0.4272,1,465,870,231
88774726,9712,-0.0703,-0.1284,1.0146,0.3052,-0.7324,-0.4272,1,483,815,231
88779732,9713,-0.0718,-0.1294,1.0127,0.3052,-0.7935,-0.4272,1,467,922,231
88784727,9714,-0.0723,-0.1313,1.0127,0.3052,-0.6714,-0.4883,1,465,862,231
88789728,9715,-0.0723,-0.1309,1.0127,0.3662,-0.6714,-0.4883,1,475,864,231
88794744,9716,-0.0718,-0.1294,1.0132,0.2441,-0.6104,-0.4883,1,480,873,231
88799729,9717,-0.0698,-0.1279,1.0132,0.0610,-0.5493,-0.4272,1,474,854,231
88804729,9718,-0.0693,-0.1284,1.0122,0.1221,-0.4883,-0.4883,1,492,864,231
88809729,9719,-0.0693,-0.1294,1.0122,0.1221,-0.5493,-0.4883,1,512,859,231
88814732,9720,-0.0708,-0.1289,1.0137,0.0000,-0.6104,-0.4883,1,493,803,231
88819726,9721,-0.0708,-0.1284,1.0151,0.0000,-0.5493,-0.4272,1,490,801,231
88824732,9722,-0.0703,-0.1284,1.0156,-0.1831,-0.5493,-0.4883,1,485,810,231
88829731,9723,-0.0688,-0.1289,1.0146,-0.2441,-0.5493,-0.4272,1,491,855,231
88834732,9724,-0.0688,-0.1299,1.0137,-0.3052,-0.4272,-0.4272,1,484,881,231
88839733,9725,-0.0698,-0.1294,1.0137,-0.2441,-0.3662,-0.4883,1,472,850,231
88844732,9726,-0.0718,-0.1294,1.0132,-0.1831,-0.5493,-0.3662,1,492,853,231
88849728,9727,-0.0723,-0.1309,1.0112,-0.1831,-0.5493,-0.3662,1,466,881,231
88854728,9728,-0.0718,-0.1313,1.0103,-0.0610,-0.5493,-0.3662,1,466,882,231
88859726,9729,-0.0703,-0.1299,1.0117,-0.0610,-0.6104,-0.4272,1,466,879,231
88864729,9730,-0.0693,-0.1294,1.0142,-0.0610,-0.6714,-0.3052,1,466,873,231
88869733,9731,-0.0679,-0.1309,1.0161,-0.1831,-0.5493,-0.5493,1,484,861,231
88874731,9732,-0.0674,-0.1318,1.0156,-0.1221,-0.5493,-0.3052,1,466,881,231
88879732,9733,-0.0693,-0.1313,1.0142,-0.1221,-0.4883,-0.3052,1,466,866,231
88884725,9734,-0.0698,-0.1304,1.0137,-0.1221,-0.4272,-0.2441,1,471,871,231
88889732,9735,-0.0693,-0.1304,1.0137,-0.0610,-0.3052,-0.2441,1,481,875,231
88894725,9736,-0.0688,-0.1294,1.0132,-0.1221,-0.1831,-0.3662,1,482,856,231
88899731,9737,-0.0679,-0.1294,1.0142,0.0000,-0.1831,-0.2441,1,497,861,231
88904728,9738,-0.0674,-0.1309,1.0146,0.0610,-0.1831,-0.3052,1,484,813,231
88909726,9739,-0.0684,-0.1309,1.0137,0.1221,-0.0610,-0.3662,1,494,871,231
88914733,9740,-0.0703,-0.1304,1.0117,0.0610,-0.1221,-0.3052,1,465,853,231
88919725,9741,-0.0703,-0.1313,1.0107,-0.0610,-0.0610,-0.3052,1,491,840,231
88924727,9742,-0.0698,-0.1309,1.0117,0.0610,-0.1831,-0.2441,1,487,845,231
88929728,9743,-0.0698,-0.1294,1.0132,-0.1221,0.0610,-0.1831,1,472,851,231
88934728,9744,-0.0703,-0.1289,1.0132,-0.0610,0.0610,-0.2441,1,482,845,231
88939731,9745,-0.0703,-0.1294,1.0127,-0.1221,0.0610,-0.3052,1,487,849,231
88944733,9746,-0.0693,-0.1294,1.0142,-0.1221,0.0000,-0.2441,1,492,839,231
88949729,9747,-0.0693,-0.1289,1.0151,-0.1831,0.0000,-0.1831,1,466,829,231
88954749,9748,-0.0698,-0.1294,1.0137,-0.1831,0.2441,-0.2441,1,466,840,231
88959728,9749,-0.0703,-0.1304,1.0112,-0.1831,0.0610,-0.1831,1,465,885,231
88964730,9750,-0.0708,-0.1299,1.0103,-0.2441,-0.1831,-0.3052,1,465,878,231
88969728,9751,-0.0708,-0.1304,1.0107,-0.1221,-0.1221,-0.1831,1,484,864,231
88974725,9752,-0.0693,-0.1309,1.0127,-0.0610,-0.1221,-0.2441,1,465,898,231
88979727,9753,-0.0679,-0.1309,1.0132,-0.1221,0.0000,-0.1831,1,481,930,231
88984728,9754,-0.0688,-0.1304,1.0127,0.0000,0.0610,-0.2441,1,482,817,231
88989727,9755,-0.0708,-0.1299,1.0122,-0.0610,-0.1221,-0.3662,1,465,812,231
88994745,9756,-0.0713,-0.1294,1.0122,0.0610,-0.1221,-0.3662,1,472,858,231
88999726,9757,-0.0703,-0.1309,1.0117,0.0610,-0.1221,-0.3052,1,481,855,231
89004727,9758,-0.0703,-0.1323,1.0122,0.1831,-0.1221,-0.3662,1,499,849,231
89009730,9759,-0.0703,-0.1313,1.0122,0.1221,-0.1831,-0.4272,1,510,863,231
89014729,9760,-0.0693,-0.1294,1.0122,0.0000,-0.1831,-0.3662,1,494,879,231
89019726,9761,-0.0674,-0.1289,1.0137,0.0000,-0.0610,-0.2441,1,480,810,231
89024732,9762,-0.0679,-0.1289,1.0142,0.0610,0.0000,-0.2441,1,490,804,231
89029734,9763,-0.0698,-0.1294,1.0137,-0.0610,-0.0610,-0.3052,1,473,804,231
89034732,9764,-0.0693,-0.1309,1.0127,0.0610,-0.0610,-0.3052,1,481,844,231
89039730,9765,-0.0679,-0.1309,1.0117,0.1221,0.1221,-0.3052,1,490,840,231
89044729,9766,-0.0679,-0.1299,1.0122,0.0610,0.0610,-0.3052,1,471,838,231
89049725,9767,-0.0688,-0.1299,1.0137,0.1221,0.0000,-0.3052,1,493,843,231
89054731,9768,-0.0698,-0.1309,1.0142,0.1221,0.0000,-0.2441,1,466,825,231
89059731,9769,-0.0708,-0.1313,1.0137,0.0610,0.0000,-0.2441,1,466,829,231
89064729,9770,-0.0703,-0.1304,1.0122,0.3052,-0.1221,-0.2441,1,483,834,231
89069725,9771,-0.0688,-0.1289,1.0117,0.3662,-0.0610,-0.3052,1,465,861,231
89074728,9772,-0.0693,-0.1274,1.0112,0.3052,-0.1221,-0.3052,1,484,869,231
89079731,9773,-0.0688,-0.1279,1.0117,0.2441,0.0000,-0.3052,1,467,901,231
89084731,9774,-0.0674,-0.1284,1.0142,0.2441,0.0000,-0.3052,1,472,833,231
89089734,9775,-0.0669,-0.1279,1.0166,0.1221,0.0000,-0.2441,1,481,829,231
89094728,9776,-0.0684,-0.1289,1.0166,0.0610,-0.1221,-0.3662,1,465,815,231
89099725,9777,-0.0693,-0.1313,1.0156,0.1221,0.0610,-0.3052,1,474,859,231
89104733,9778,-0.0693,-0.1328,1.0137,0.1831,0.0000,-0.1831,1,505,856,231
89109726,9779,-0.0688,-0.1318,1.0122,0.0000,-0.0610,-0.2441,1,484,818,231
89114732,9780,-0.0684,-0.1299,1.0127,0.1221,0.0000,-0.2441,1,493,762,231
89119727,9781,-0.0669,-0.1294,1.0137,0.1831,0.1221,-0.2441,1,464,800,231
89124726,9782,-0.0669,-0.1304,1.0142,0.0610,0.2441,-0.2441,1,476,848,231
89129726,9783,-0.0684,-0.1313,1.0142,0.0610,0.1831,-0.2441,1,488,847,231
89134728,9784,-0.0693,-0.1323,1.0132,0.0000,0.1831,-0.1831,1,476,851,231
89139729,9785,-0.0693,-0.1328,1.0122,0.1221,0.1221,-0.3052,1,486,809,231
89144728,9786,-0.0684,-0.1318,1.0122,0.1221,0.1831,-0.3052,1,488,846,231
89149726,9787,-0.0684,-0.1309,1.0132,0.0610,0.2441,-0.2441,1,493,847,231
89154729,9788,-0.0698,-0.1304,1.0137,0.1221,0.2441,-0.2441,1,466,875,231
89159731,9789,-0.0713,-0.1299,1.0127,0.2441,0.1831,-0.3052,1,466,877,231
89164726,9790,-0.0713,-0.1289,1.0117,0.2441,0.0610,-0.3052,1,483,877,231
89169728,9791,-0.0698,-0.1279,1.0122,0.1831,-0.0610,-0.3052,1,466,875,231
89174731,9792,-0.0684,-0.1289,1.0137,0.1831,0.1221,-0.3662,1,484,869,231
89179727,9793,-0.0684,-0.1304,1.0137,0.1221,0.0610,-0.3662,1,466,877,231
89184727,9794,-0.0688,-0.1304,1.0132,0.0610,-0.0610,-0.3052,1,465,861,231
89189728,9795,-0.0669,-0.1284,1.0137,0.0610,0.0000,-0.2441,1,470,867,231
89194727,9796,-0.0664,-0.1289,1.0146,0.0610,0.0000,-0.2441,1,475,814,231
89199725,9797,-0.0674,-0.1304,1.0142,0.0610,-0.0610,-0.3052,1,465,820,231
89204727,9798,-0.0684,-0.1309,1.0142,0.0610,0.0000,-0.2441,1,467,848,231
89209729,9799,-0.0684,-0.1304,1.0137,0.1831,0.0000,-0.2441,1,484,807,231
89214734,9800,-0.0684,-0.1299,1.0122,-0.0610,0.0000,-0.3052,1,481,755,231
89219725,9801,-0.0693,-0.1304,1.0137,0.0610,0.1221,-0.3052,1,464,799,231
89224725,9802,-0.0688,-0.1309,1.0146,0.0000,0.0610,-0.4272,1,488,840,231
89229727,9803,-0.0679,-0.1309,1.0137,0.0610,0.1831,-0.3662,1,478,824,231
89234732,9804,-0.0684,-0.1309,1.0132,0.0610,0.1221,-0.3662,1,488,867,231
89239732,9805,-0.0688,-0.1313,1.0132,0.0610,0.0610,-0.3662,1,471,841,231
89244730,9806,-0.0698,-0.1304,1.0132,0.0610,0.1221,-0.3052,1,479,850,231
89249727,9807,-0.0693,-0.1294,1.0132,0.1221,0.1221,-0.3662,1,493,839,231
89254725,9808,-0.0684,-0.1294,1.0132,0.0000,0.1831,-0.3052,1,466,873,231
89259729,9809,-0.0669,-0.1294,1.0142,0.0000,0.2441,-0.2441,1,466,827,231
89264731,9810,-0.0664,-0.1294,1.0161,0.0000,0.2441,-0.1831,1,466,833,231
89269731,9811,-0.0669,-0.1299,1.0161,0.0610,0.1831,-0.2441,1,465,828,231
89274728,9812,-0.0679,-0.1304,1.0146,0.0000,0.2441,-0.3052,1,484,869,231
89279731,9813,-0.0674,-0.1304,1.0137,-0.1221,0.1831,-0.3052,1,466,818,231
89284729,9814,-0.0674,-0.1309,1.0137,-0.0610,0.3052,-0.2441,1,466,859,231
89289728,9815,-0.0674,-0.1313,1.0142,0.1221,0.2441,-0.2441,1,474,868,231
89294731,9816,-0.0684,-0.1309,1.0137,0.0610,0.3052,-0.2441,1,482,878,231
89299728,9817,-0.0679,-0.1304,1.0127,0.0000,0.3052,-0.2441,1,465,852,231
89304728,9818,-0.0669,-0.1299,1.0122,-0.0610,0.3662,-0.1831,1,467,806,231
89309733,9819,-0.0669,-0.1294,1.0117,-0.0610,0.4272,-0.1831,1,484,861,231
89314730,9820,-0.0669,-0.1313,1.0117,0.1221,0.3662,-0.2441,1,494,860,231
89319726,9821,-0.0674,-0.1323,1.0117,0.1831,0.3662,-0.2441,1,466,806,231
89324727,9822,-0.0679,-0.1318,1.0112,0.0610,0.3662,-0.2441,1,490,868,231
89329728,9823,-0.0669,-0.1313,1.0122,0.0000,0.3662,-0.2441,1,480,854,231
89334725,9824,-0.0659,-0.1304,1.0132,0.0610,0.5493,-0.2441,1,471,811,231
89339725,9825,-0.0654,-0.1299,1.0132,0.1221,0.6714,-0.3052,1,490,849,231
89344730,9826,-0.0669,-0.1309,1.0127,0.1831,0.7324,-0.3662,1,494,843,231
89349725,9827,-0.0693,-0.1353,1.0098,0.4272,0.6104,-0.4272,1,493,849,231
89354734,9828,-0.0693,-0.1343,1.0083,0.6714,0.4883,-0.3662,1,466,875,231
89359729,9829,-0.0688,-0.1294,1.0127,0.6714,0.6104,-0.3052,1,466,879,231
89364727,9830,-0.0703,-0.1294,1.0146,0.3662,0.3662,-0.4883,1,483,871,231
89369725,9831,-0.0679,-0.1260,1.0151,0.5493,0.3052,-0.2441,1,466,869,231
89374727,9832,-0.0654,-0.1221,1.0181,0.0610,0.5493,-0.3052,1,484,868,231
89379725,9833,-0.0669,-0.1255,1.0166,-0.0610,0.5493,-0.2441,1,476,896,231
89384732,9834,-0.0693,-0.1299,1.0146,-0.0610,0.3052,-0.2441,1,465,870,231
89389725,9835,-0.0693,-0.1294,1.0151,-0.1831,0.4883,-0.3052,1,465,868,231
89394729,9836,-0.0679,-0.1284,1.0166,-0.3052,0.4883,-0.3052,1,478,876,231
89399733,9837,-0.0664,-0.1294,1.0166,-0.3052,0.4883,-0.2441,1,482,855,231
89404728,9838,-0.0664,-0.1299,1.0156,-0.3052,0.6714,-0.2441,1,505,859,231
89409730,9839,-0.0679,-0.1304,1.0137,-0.4272,0.6714,-0.3052,1,468,859,231
89414727,9840,-0.0698,-0.1309,1.0127,-0.5493,0.5493,-0.1831,1,493,870,231
89419733,9841,-0.0698,-0.1304,1.0127,-0.4883,0.4883,-0.1831,1,464,834,231
89424733,9842,-0.0684,-0.1294,1.0142,-0.5493,0.7324,-0.2441,1,490,847,231
89429729,9843,-0.0669,-0.1294,1.0151,-0.5493,0.8545,-0.1831,1,478,853,231
89434732,9844,-0.0664,-0.1309,1.0146,-0.4883,0.9155,-0.1831,1,473,852,231
89439729,9845,-0.0669,-0.1318,1.0127,-0.5493,0.9155,-0.3052,1,483,853,231
89444731,9846,-0.0674,-0.1313,1.0122,-0.5493,0.9766,-0.2441,1,490,849,231
89449728,9847,-0.0674,-0.1304,1.0132,-0.4272,1.0986,-0.2441,1,493,855,231
89454730,9848,-0.0674,-0.1294,1.0142,-0.4272,1.0986,-0.1831,1,466,878,231
89459732,9849,-0.0679,-0.1313,1.0146,-0.3662,1.0986,-0.2441,1,466,882,231
89464728,9850,-0.0674,-0.1328,1.0137,-0.4272,1.0376,-0.2441,1,483,887,231
89469730,9851,-0.0669,-0.1309,1.0142,-0.4272,1.2207,-0.2441,1,469,871,231
89474725,9852,-0.0679,-0.1304,1.0142,-0.4883,1.3428,-0.1221,1,484,813,231
89479732,9853,-0.0703,-0.1313,1.0117,-0.5493,1.2207,-0.2441,1,469,860,231
89484730,9854,-0.0723,-0.1328,1.0098,-0.5493,1.1597,-0.3052,1,466,876,231
89489729,9855,-0.0723,-0.1343,1.0093,-0.3662,1.0376,-0.1831,1,477,865,231
89494728,9856,-0.0708,-0.1333,1.0117,-0.1831,0.9766,-0.1831,1,465,857,231
89499731,9857,-0.0688,-0.1309,1.0137,-0.1831,0.9766,-0.1831,1,472,864,231
89504729,9858,-0.0679,-0.1299,1.0132,-0.4272,0.8545,-0.0610,1,495,860,231
89509733,9859,-0.0684,-0.1294,1.0122,-0.4883,1.0986,-0.1221,1,477,854,231
89514727,9860,-0.0698,-0.1309,1.0112,-0.2441,0.9155,-0.1831,1,493,876,231
89519728,9861,-0.0708,-0.1318,1.0107,-0.1221,0.9155,-0.1221,1,471,828,231
89524733,9862,-0.0703,-0.1328,1.0107,-0.1221,0.9766,-0.1831,1,482,845,231
89529730,9863,-0.0693,-0.1323,1.0117,-0.1221,0.9155,-0.2441,1,486,848,231
89534726,9864,-0.0698,-0.1313,1.0122,0.0000,0.8545,-0.1221,1,478,855,231
89539726,9865,-0.0718,-0.1313,1.0103,0.0000,0.9155,-0.2441,1,490,804,231
89544734,9866,-0.0723,-0.1313,1.0088,0.0610,0.6714,-0.0610,1,492,804,231
89549731,9867,-0.0718,-0.1323,1.0088,0.1221,0.7324,-0.1831,1,493,842,231
89554725,9868,-0.0698,-0.1323,1.0103,0.2441,0.6104,-0.1831,1,466,876,231
89559727,9869,-0.0679,-0.1313,1.0122,0.3052,0.7324,-0.1221,1,466,880,231
89564731,9870,-0.0688,-0.1313,1.0137,0.3662,0.7324,-0.2441,1,483,876,231
89569725,9871,-0.0708,-0.1318,1.0132,0.4272,0.6104,-0.3052,1,466,885,231
89574727,9872,-0.0718,-0.1323,1.0112,0.5493,0.6104,-0.1221,1,484,816,231
89579730,9873,-0.0723,-0.1328,1.0093,0.6104,0.5493,-0.0610,1,474,903,231
89584732,9874,-0.0723,-0.1328,1.0088,0.6104,0.4883,-0.1831,1,477,863,231
89589729,9875,-0.0708,-0.1309,1.0112,0.4883,0.2441,-0.1831,1,481,871,231
89594729,9876,-0.0703,-0.1294,1.0137,0.4883,0.4272,-0.1221,1,467,878,231
89599757,9877,-0.0703,-0.1304,1.0132,0.6104,0.5493,0.0000,1,472,854,231
89604730,9878,-0.0703,-0.1318,1.0127,0.4883,0.4883,-0.0610,1,470,808,231
89609726,9879,-0.0713,-0.1318,1.0122,0.6104,0.3662,-0.1831,1,483,854,231
89614727,9880,-0.0708,-0.1309,1.0132,0.5493,0.4272,-0.1221,1,493,879,231
89619725,9881,-0.0703,-0.1309,1.0137,0.6104,0.3662,-0.1221,1,492,799,231
89624732,9882,-0.0698,-0.1309,1.0132,0.5493,0.3052,-0.1831,1,477,840,231
89629731,9883,-0.0703,-0.1304,1.0127,0.5493,0.4272,-0.1831,1,478,847,231
89634729,9884,-0.0713,-0.1304,1.0122,0.5493,0.3052,-0.1221,1,491,850,231
89639732,9885,-0.0713,-0.1309,1.0122,0.6714,0.2441,-0.1221,1,483,843,231
89644730,9886,-0.0718,-0.1313,1.0132,0.6104,0.1831,-0.1221,1,490,846,231
89649730,9887,-0.0713,-0.1309,1.0146,0.5493,0.1831,-0.2441,1,488,844,231
89654728,9888,-0.0713,-0.1299,1.0142,0.6714,0.2441,-0.2441,1,466,853,231
89659730,9889,-0.0713,-0.1299,1.0127,0.5493,0.2441,-0.1221,1,465,877,231
89664728,9890,-0.0703,-0.1309,1.0132,0.6714,0.3052,-0.1831,1,483,876,231
89669725,9891,-0.0693,-0.1309,1.0137,0.6104,0.2441,-0.3052,1,466,859,231
89674733,9892,-0.0703,-0.1309,1.0137,0.6714,0.1831,-0.1831,1,484,861,231
89679733,9893,-0.0708,-0.1313,1.0132,0.6104,0.1831,-0.2441,1,465,903,231
89684727,9894,-0.0703,-0.1313,1.0132,0.5493,0.3052,-0.3052,1,470,869,231
89689733,9895,-0.0698,-0.1318,1.0142,0.6714,0.1831,-0.2441,1,481,871,231
89694733,9896,-0.0703,-0.1318,1.0137,0.6714,0.2441,-0.2441,1,480,882,231
89699725,9897,-0.0703,-0.1309,1.0132,0.6104,0.1831,-0.2441,1,470,863,231
89704731,9898,-0.0703,-0.1299,1.0151,0.5493,0.3052,-0.2441,1,477,854,231
89709728,9899,-0.0693,-0.1299,1.0156,0.5493,0.2441,-0.1831,1,484,858,231
89714733,9900,-0.0679,-0.1299,1.0146,0.6104,0.2441,-0.0610,1,494,883,231
89719727,9901,-0.0684,-0.1294,1.0142,0.6714,0.3662,-0.1221,1,466,800,231
89724733,9902,-0.0698,-0.1289,1.0142,0.4272,0.3052,-0.2441,1,486,844,231
89729732,9903,-0.0723,-0.1289,1.0132,0.6104,0.2441,-0.2441,1,492,852,231
89734727,9904,-0.0742,-0.1299,1.0117,0.5493,0.3052,-0.1831,1,485,871,231
89739726,9905,-0.0728,-0.1304,1.0122,0.6104,0.2441,-0.1831,1,485,852,231
89744733,9906,-0.0703,-0.1299,1.0127,0.5493,0.2441,-0.2441,1,491,848,231
89749732,9907,-0.0693,-0.1294,1.0117,0.4883,0.3662,-0.2441,1,466,853,231
89754743,9908,-0.0693,-0.1299,1.0112,0.6104,0.3052,-0.2441,1,466,883,231
89759728,9909,-0.0698,-0.1299,1.0122,0.7324,0.1221,-0.2441,1,466,877,231
89764729,9910,-0.0703,-0.1309,1.0122,0.7935,0.1831,-0.1831,1,465,882,231
89769730,9911,-0.0703,-0.1309,1.0117,0.7935,0.2441,-0.2441,1,484,868,231
89774733,9912,-0.0708,-0.1299,1.0112,0.9155,0.3052,-0.2441,1,465,878,231
89779734,9913,-0.0713,-0.1309,1.0103,0.9155,0.3052,-0.3662,1,479,918,231
89784728,9914,-0.0703,-0.1313,1.0103,0.9766,0.1831,-0.3662,1,465,870,231
89789731,9915,-0.0693,-0.1299,1.0112,1.1597,0.2441,-0.3052,1,480,877,231
89794744,9916,-0.0698,-0.1284,1.0122,1.1597,0.2441,-0.4272,1,466,861,231
89799730,9917,-0.0703,-0.1284,1.0137,1.2207,0.1831,-0.4272,1,482,869,231
89804730,9918,-0.0708,-0.1289,1.0132,1.3428,0.3052,-0.4272,1,511,864,231
89809733,9919,-0.0713,-0.1284,1.0127,1.3428,0.3052,-0.3052,1,494,874,231
89814733,9920,-0.0708,-0.1289,1.0122,1.3428,0.1831,-0.3662,1,466,796,231
89819730,9921,-0.0693,-0.1309,1.0146,1.3428,-0.1221,-0.3662,1,476,866,231
89824733,9922,-0.0684,-0.1309,1.0176,1.4038,0.2441,-0.4272,1,481,850,231
89829729,9923,-0.0684,-0.1274,1.0171,1.2817,0.5493,-0.4272,1,491,850,231
89834731,9924,-0.0684,-0.1245,1.0151,1.0986,0.6104,-0.3052,1,486,853,231
89839731,9925,-0.0688,-0.1250,1.0142,0.9155,0.5493,-0.3052,1,471,846,231
89844730,9926,-0.0703,-0.1260,1.0142,0.8545,0.3052,-0.2441,1,493,848,231
89849731,9927,-0.0703,-0.1230,1.0151,0.7935,0.3052,-0.1831,1,466,872,231
89854729,9928,-0.0693,-0.1226,1.0156,0.4272,0.4272,-0.1831,1,466,876,231
89859727,9929,-0.0674,-0.1260,1.0166,0.4883,0.4272,-0.1831,1,483,884,231
89864730,9930,-0.0679,-0.1274,1.0186,0.4272,0.5493,-0.2441,1,467,869,231
89869730,9931,-0.0679,-0.1260,1.0186,0.2441,0.5493,-0.1831,1,484,872,231
89874725,9932,-0.0679,-0.1260,1.0171,0.1221,0.6104,-0.0610,1,481,908,231
89879726,9933,-0.0688,-0.1270,1.0142,0.0610,0.6714,0.0000,1,467,855,231
89884730,9934,-0.0693,-0.1274,1.0122,0.0000,0.6714,0.0000,1,475,828,231
89889728,9935,-0.0698,-0.1274,1.0127,-0.0610,0.6714,-0.0610,1,479,770,231
89894728,9936,-0.0698,-0.1274,1.0137,0.0000,0.8545,0.0000,1,466,857,231
89899728,9937,-0.0703,-0.1270,1.0142,0.0000,0.7324,-0.0610,1,465,767,231
89904728,9938,-0.0713,-0.1270,1.0146,-0.1221,0.9155,-0.0610,1,466,753,231
89909733,9939,-0.0708,-0.1274,1.0142,-0.2441,0.9766,-0.1221,1,494,877,231
89914725,9940,-0.0703,-0.1289,1.0137,0.0000,0.7935,-0.1221,1,478,800,231
89919734,9941,-0.0698,-0.1284,1.0142,-0.1221,0.9155,-0.1221,1,476,800,231
89924733,9942,-0.0698,-0.1270,1.0156,-0.1831,0.9766,-0.0610,1,491,848,231
89929725,9943,-0.0698,-0.1265,1.0166,-0.1831,1.0376,-0.1831,1,483,871,231
89934732,9944,-0.0703,-0.1274,1.0146,-0.3662,0.9766,-0.3052,1,481,855,231
89939732,9945,-0.0713,-0.1279,1.0127,-0.3052,0.9155,-0.1831,1,482,849,231
89944728,9946,-0.0718,-0.1279,1.0132,-0.1831,0.9155,0.0000,1,493,850,231
89949735,9947,-0.0703,-0.1279,1.0146,-0.2441,1.0986,-0.1221,1,466,833,231
89954730,9948,-0.0698,-0.1270,1.0142,-0.1831,1.0376,-0.0610,1,466,882,231
89959726,9949,-0.0732,-0.1274,1.0122,-0.2441,0.9766,-0.0610,1,483,878,231
89964727,9950,-0.0742,-0.1294,1.0112,-0.1831,1.0376,-0.0610,1,476,872,231
89969733,9951,-0.0723,-0.1279,1.0117,-0.0610,0.9155,0.0000,1,466,877,231
89974727,9952,-0.0713,-0.1270,1.0117,-0.1831,0.7324,-0.1221,1,466,823,231
89979731,9953,-0.0718,-0.1279,1.0107,-0.0610,0.8545,0.0000,1,477,868,231
89984730,9954,-0.0728,-0.1279,1.0103,-0.0610,0.8545,-0.0610,1,479,828,231
89989732,9955,-0.0737,-0.1279,1.0098,-0.0610,0.7324,-0.2441,1,465,853,231
89994727,9956,-0.0732,-0.1279,1.0103,0.1221,0.7935,-0.2441,1,465,862,231
89999726,9957,-0.0708,-0.1274,1.0132,0.1221,0.8545,-0.1831,1,468,857,231
90004732,9958,-0.0679,-0.1270,1.0156,0.0610,1.0376,-0.3662,1,466,874,231
90009725,9959,-0.0684,-0.1270,1.0166,0.1221,0.9155,-0.1831,1,494,875,231
90014726,9960,-0.0703,-0.1279,1.0156,0.2441,0.9155,-0.1221,1,485,872,231
90019728,9961,-0.0713,-0.1279,1.0137,0.0610,0.9155,-0.1221,1,475,881,231
90024725,9962,-0.0708,-0.1270,1.0132,0.0000,0.7935,-0.1831,1,476,846,231
90029728,9963,-0.0693,-0.1265,1.0137,0.0610,0.9155,-0.1221,1,472,803,231
90034729,9964,-0.0688,-0.1270,1.0132,0.1221,0.9766,-0.0610,1,483,845,231
90039731,9965,-0.0703,-0.1279,1.0127,0.0000,0.9766,-0.1831,1,491,843,231
90044732,9966,-0.0713,-0.1284,1.0122,0.1221,0.9766,-0.1221,1,466,831,231
90049729,9967,-0.0713,-0.1294,1.0117,0.0000,0.8545,-0.1221,1,466,873,231
90054731,9968,-0.0723,-0.1304,1.0107,0.1221,0.9766,-0.1221,1,466,827,231
90059731,9969,-0.0728,-0.1309,1.0103,0.1831,1.0376,-0.0610,1,466,855,231
90064726,9970,-0.0732,-0.1304,1.0107,0.3052,1.0986,-0.1831,1,484,860,231
90069725,9971,-0.0728,-0.1294,1.0127,0.3052,1.1597,-0.3052,1,471,904,231
90074730,9972,-0.0723,-0.1284,1.0142,0.3662,0.9766,-0.1221,1,482,859,231
90079729,9973,-0.0723,-0.1284,1.0137,0.3662,0.9155,-0.1221,1,465,865,231
90084730,9974,-0.0728,-0.1279,1.0127,0.3052,0.9766,-0.1221,1,474,878,231
90089749,9975,-0.0732,-0.1274,1.0117,0.3662,1.0376,-0.0610,1,483,852,231
90094733,9976,-0.0742,-0.1270,1.0103,0.3662,0.9155,-0.1221,1,468,862,231
90099726,9977,-0.0757,-0.1274,1.0103,0.3662,0.7324,-0.3052,1,511,857,231
90104730,9978,-0.0762,-0.1289,1.0107,0.3662,0.7324,-0.1831,1,494,875,231
90109732,9979,-0.0747,-0.1294,1.0112,0.3662,0.8545,-0.2441,1,473,827,231
90114734,9980,-0.0723,-0.1289,1.0122,0.2441,0.7935,-0.2441,1,488,855,231
90119732,9981,-0.0703,-0.1279,1.0132,0.3662,0.7935,-0.1221,1,478,855,231
90124734,9982,-0.0708,-0.1270,1.0127,0.3662,0.7935,-0.1221,1,483,874,231
90129729,9983,-0.0732,-0.1265,1.0122,0.3662,0.7935,-0.1221,1,476,846,231
90134728,9984,-0.0747,-0.1270,1.0117,0.3052,0.7324,-0.1831,1,488,850,231
90139728,9985,-0.0742,-0.1274,1.0107,0.2441,0.7935,-0.1221,1,466,852,231
90144729,9986,-0.0718,-0.1270,1.0142,0.4272,0.7935,-0.2441,1,466,878,231
90149731,9987,-0.0718,-0.1270,1.0146,0.3662,0.7935,-0.1831,1,465,878,231
90154731,9988,-0.0728,-0.1279,1.0122,0.4272,0.8545,-0.1831,1,465,881,231
90159728,9989,-0.0747,-0.1270,1.0103,0.4883,0.7935,-0.2441,1,484,872,231
90164730,9990,-0.0762,-0.1255,1.0103,0.4883,0.6104,-0.2441,1,465,903,231
90169730,9991,-0.0747,-0.1250,1.0117,0.4272,0.4883,-0.1831,1,471,861,231
90174725,9992,-0.0728,-0.1255,1.0142,0.3662,0.6104,-0.2441,1,479,879,231
90179729,9993,-0.0723,-0.1250,1.0166,0.3052,0.4883,-0.2441,1,471,874,231
90184725,9994,-0.0718,-0.1255,1.0166,0.3662,0.4883,-0.2441,1,473,855,231
90189732,9995,-0.0723,-0.1260,1.0146,0.3662,0.4272,-0.2441,1,478,862,231
90194730,9996,-0.0737,-0.1260,1.0137,0.2441,0.4883,-0.2441,1,510,864,231
90199730,9997,-0.0747,-0.1270,1.0122,0.3662,0.4883,-0.1831,1,473,880,231
90204729,9998,-0.0752,-0.1294,1.0112,0.3662,0.5493,-0.1221,1,466,809,231
90209730,9999,-0.0762,-0.1294,1.0112,0.3052,0.4883,-0.2441,1,480,859,231
90214730,10000,-0.0762,-0.1274,1.0122,0.3052,0.4272,-0.3052,1,490,848,231
90219728,10001,-0.0747,-0.1279,1.0117,0.3052,0.3052,-0.3052,1,481,848,231
90224731,10002,-0.0723,-0.1279,1.0127,0.3052,0.4272,-0.1831,1,490,845,231
90229732,10003,-0.0713,-0.1270,1.0142,0.3662,0.4883,-0.1831,1,480,850,231
90234733,10004,-0.0718,-0.1279,1.0146,0.2441,0.4272,-0.2441,1,493,850,231
90239733,10005,-0.0728,-0.1284,1.0142,0.3052,0.4272,-0.2441,1,466,886,231
90244728,10006,-0.0732,-0.1270,1.0137,0.2441,0.4272,-0.1831,1,465,880,231
90249733,10007,-0.0742,-0.1260,1.0132,0.3052,0.3662,-0.1831,1,483,884,231
90254727,10008,-0.0732,-0.1265,1.0132,0.3052,0.4272,-0.1831,1,467,868,231
90259728,10009,-0.0708,-0.1245,1.0151,0.2441,0.5493,-0.2441,1,465,876,231
90264731,10010,-0.0713,-0.1240,1.0151,0.1831,0.5493,-0.1831,1,469,927,231
90269725,10011,-0.0737,-0.1265,1.0142,0.1831,0.5493,-0.3052,1,475,875,231
90274732,10012,-0.0737,-0.1289,1.0142,0.1831,0.4272,-0.2441,1,470,877,231
90279730,10013,-0.0723,-0.1274,1.0146,0.2441,0.4883,-0.2441,1,474,884,231
90284728,10014,-0.0718,-0.1265,1.0146,0.1831,0.6104,-0.3052,1,482,866,231
90289727,10015,-0.0718,-0.1270,1.0137,0.1221,0.4883,-0.1831,1,507,854,231
90294729,10016,-0.0728,-0.1274,1.0122,0.2441,0.2441,-0.1831,1,466,874,231
90299733,10017,-0.0732,-0.1265,1.0127,0.3052,0.3662,-0.1831,1,494,885,231
90304732,10018,-0.0732,-0.1250,1.0142,0.1831,0.4272,-0.2441,1,481,872,231
90309731,10019,-0.0732,-0.1240,1.0132,0.0610,0.4272,-0.3052,1,473,854,231
90314732,10020,-0.0732,-0.1245,1.0122,0.0000,0.5493,-0.2441,1,491,846,231
90319727,10021,-0.0728,-0.1250,1.0132,0.0610,0.4883,-0.3052,1,481,814,231
90324728,10022,-0.0723,-0.1255,1.0142,0.0000,0.3662,-0.1831,1,472,841,231
90329733,10023,-0.0732,-0.1260,1.0127,0.0610,0.4272,-0.2441,1,493,804,231
90334731,10024,-0.0752,-0.1260,1.0112,0.0000,0.6104,-0.1831,1,466,878,231
90339727,10025,-0.0747,-0.1255,1.0112,0.0610,0.4883,-0.1831,1,466,832,231
90344725,10026,-0.0732,-0.1255,1.0127,0.0610,0.5493,-0.3662,1,483,880,231
90349733,10027,-0.0723,-0.1265,1.0122,-0.0610,0.4883,-0.2441,1,466,870,231
90354733,10028,-0.0718,-0.1274,1.0127,-0.0610,0.4883,-0.1221,1,484,867,231
90359726,10029,-0.0718,-0.1274,1.0142,0.0610,0.5493,-0.1831,1,471,902,231
90364730,10030,-0.0732,-0.1270,1.0146,0.0000,0.6104,-0.2441,1,466,870,231
90369732,10031,-0.0752,-0.1274,1.0137,-0.1221,0.4883,-0.2441,1,469,834,231
90374730,10032,-0.0752,-0.1279,1.0127,-0.1221,0.4883,-0.1221,1,474,875,231
90379760,10033,-0.0737,-0.1274,1.0132,-0.0610,0.5493,-0.1831,1,482,854,231
90384726,10034,-0.0728,-0.1265,1.0146,-0.1831,0.6714,-0.1831,1,482,865,231
90389729,10035,-0.0723,-0.1255,1.0151,-0.1831,0.6714,-0.1221,1,466,881,231
90394733,10036,-0.0728,-0.1260,1.0132,-0.3052,0.6104,-0.1831,1,494,875,231
90399727,10037,-0.0737,-0.1279,1.0107,-0.3052,0.6714,-0.1221,1,493,797,231
90404730,10038,-0.0742,-0.1289,1.0107,-0.1831,0.6104,-0.1221,1,481,846,231
90409727,10039,-0.0742,-0.1274,1.0127,-0.1831,0.6104,0.0000,1,491,851,231
90414725,10040,-0.0742,-0.1265,1.0142,-0.2441,0.5493,-0.1221,1,486,806,231
90419725,10041,-0.0747,-0.1274,1.0142,-0.1831,0.5493,-0.2441,1,476,852,231
90424728,10042,-0.0737,-0.1284,1.0132,-0.1221,0.6104,-0.1831,1,483,858,231
90429731,10043,-0.0732,-0.1294,1.0117,-0.1221,0.5493,-0.1831,1,492,850,231
90434726,10044,-0.0747,-0.1289,1.0107,-0.0610,0.4272,-0.1221,1,466,880,231
90439730,10045,-0.0776,-0.1279,1.0103,-0.1221,0.4883,-0.2441,1,466,879,231
90444732,10046,-0.0786,-0.1270,1.0098,0.0000,0.3662,-0.2441,1,484,878,231
90449728,10047,-0.0776,-0.1265,1.0107,0.0610,0.1831,-0.2441,1,465,778,231
90454732,10048,-0.0757,-0.1270,1.0127,-0.0610,0.2441,-0.1221,1,484,870,231
90459729,10049,-0.0732,-0.1279,1.0142,-0.1831,0.3052,-0.2441,1,475,903,231
90464731,10050,-0.0723,-0.1274,1.0156,0.1221,0.2441,-0.1831,1,465,872,231
90469731,10051,-0.0732,-0.1274,1.0151,0.0000,0.4883,-0.1831,1,470,881,231
90474732,10052,-0.0732,-0.1279,1.0142,0.0000,0.3052,-0.1221,1,475,820,231
90479752,10053,-0.0732,-0.1274,1.0132,0.0610,0.1831,-0.1221,1,482,808,231
90484733,10054,-0.0732,-0.1265,1.0142,0.0000,0.3052,-0.1221,1,465,859,231
90489726,10055,-0.0737,-0.1255,1.0142,-0.1221,0.3052,-0.1831,1,466,806,231
90494725,10056,-0.0737,-0.1260,1.0137,-0.1831,0.1831,0.0000,1,494,875,231
90499731,10057,-0.0732,-0.1255,1.0142,-0.1221,0.2441,0.1221,1,466,819,231
90504730,10058,-0.0737,-0.1265,1.0132,-0.1831,0.1831,-0.1221,1,491,855,231
90509729,10059,-0.0757,-0.1284,1.0107,-0.1831,0.3052,-0.1221,1,483,851,231
90514730,10060,-0.0752,-0.1279,1.0103,-0.1831,0.3052,-0.0610,1,491,847,231
90519732,10061,-0.0742,-0.1260,1.0127,-0.1831,0.3662,0.0000,1,480,844,231
90524729,10062,-0.0747,-0.1265,1.0146,-0.2441,0.2441,-0.1221,1,488,809,231
90529727,10063,-0.0752,-0.1279,1.0137,-0.3662,0.3662,-0.3052,1,487,854,231
90534726,10064,-0.0747,-0.1279,1.0127,-0.1831,0.2441,-0.0610,1,466,850,231
90539727,10065,-0.0742,-0.1279,1.0122,-0.0610,0.1831,-0.0610,1,466,883,231
90544725,10066,-0.0742,-0.1289,1.0127,-0.1221,0.1831,-0.1831,1,483,882,231
90549732,10067,-0.0742,-0.1274,1.0132,-0.2441,0.3662,-0.0610,1,465,873,231
90554729,10068,-0.0742,-0.1250,1.0146,-0.1221,0.4272,-0.1831,1,484,873,231
90559734,10069,-0.0732,-0.1245,1.0156,-0.3052,0.3052,0.0610,1,470,909,231
90564733,10070,-0.0728,-0.1260,1.0156,-0.3662,0.4272,0.0610,1,474,863,231
90569725,10071,-0.0732,-0.1255,1.0161,-0.5493,0.3662,0.0610,1,483,877,231
90574729,10072,-0.0728,-0.1245,1.0142,-0.6104,0.4883,0.0000,1,477,881,231
90579757,10073,-0.0742,-0.1270,1.0117,-0.6104,0.4272,0.0000,1,482,809,231
90584731,10074,-0.0752,-0.1289,1.0112,-0.6104,0.3662,0.1221,1,465,815,231
90589729,10075,-0.0752,-0.1284,1.0127,-0.6714,0.4272,0.1221,1,465,857,231
90594727,10076,-0.0757,-0.1274,1.0142,-0.6714,0.5493,0.0610,1,494,875,231
90599725,10077,-0.0757,-0.1289,1.0137,-0.6714,0.6714,0.0000,1,466,802,231
90604734,10078,-0.0747,-0.1304,1.0132,-0.4883,0.4883,-0.0610,1,481,804,231
90609726,10079,-0.0732,-0.1294,1.0132,-0.3662,0.3662,0.0000,1,483,844,231
90614725,10080,-0.0718,-0.1274,1.0142,-0.3662,0.4883,0.0610,1,481,808,231
90619728,10081,-0.0728,-0.1270,1.0146,-0.4883,0.3662,0.0610,1,475,847,231
90624726,10082,-0.0737,-0.1270,1.0151,-0.4272,0.3662,0.0000,1,480,851,231
90629733,10083,-0.0737,-0.1260,1.0156,-0.4272,0.5493,0.1221,1,492,811,231
90634742,10084,-0.0742,-0.1260,1.0156,-0.4883,0.6104,0.0610,1,466,879,231
90639726,10085,-0.0757,-0.1270,1.0127,-0.4883,0.5493,0.0000,1,466,874,231
90644731,10086,-0.0762,-0.1279,1.0098,-0.4883,0.4272,0.0000,1,466,821,231
90649728,10087,-0.0757,-0.1284,1.0098,-0.4883,0.3662,0.0000,1,480,774,231
90654727,10088,-0.0742,-0.1289,1.0117,-0.4883,0.4272,0.0000,1,465,821,231
90659731,10089,-0.0728,-0.1299,1.0137,-0.3052,0.5493,0.0610,1,480,827,231
90664729,10090,-0.0737,-0.1304,1.0146,-0.2441,0.5493,0.0000,1,482,863,231
90669730,10091,-0.0752,-0.1299,1.0132,-0.3052,0.6104,-0.0610,1,470,820,231
90674732,10092,-0.0757,-0.1289,1.0122,-0.3662,0.4883,0.0000,1,479,849,231
90679730,10093,-0.0752,-0.1279,1.0127,-0.0610,0.3662,-0.0610,1,465,818,231
90684729,10094,-0.0742,-0.1279,1.0137,-0.1221,0.5493,-0.0610,1,506,857,231
90689728,10095,-0.0742,-0.1304,1.0137,-0.1221,0.7935,-0.0610,1,465,878,231
90694726,10096,-0.0737,-0.1318,1.0122,-0.0610,0.6104,-0.0610,1,494,870,231
90699732,10097,-0.0737,-0.1299,1.0117,0.0000,0.5493,-0.0610,1,464,871,231
90704732,10098,-0.0742,-0.1279,1.0122,-0.1221,0.4883,0.0000,1,491,807,231
90709725,10099,-0.0742,-0.1274,1.0112,-0.1221,0.6104,0.0610,1,481,827,231
90714733,10100,-0.0757,-0.1289,1.0103,-0.0610,0.6104,-0.1221,1,478,847,231
90719733,10101,-0.0767,-0.1313,1.0103,-0.0610,0.4883,0.0000,1,481,841,231
90724727,10102,-0.0762,-0.1313,1.0112,0.0000,0.6104,-0.0610,1,489,800,231
90729726,10103,-0.0747,-0.1294,1.0132,0.0610,0.6714,-0.0610,1,493,801,231
90734729,10104,-0.0742,-0.1289,1.0137,0.0000,0.6104,0.0610,1,466,873,231
90739732,10105,-0.0762,-0.1299,1.0122,0.0000,0.4272,-0.1831,1,466,829,231
90744731,10106,-0.0771,-0.1299,1.0112,0.0000,0.4272,-0.1831,1,465,825,231
90749730,10107,-0.0771,-0.1274,1.0122,0.0610,0.3662,-0.0610,1,484,781,231
90754725,10108,-0.0762,-0.1270,1.0142,-0.0610,0.3662,-0.0610,1,466,880,231
90759727,10109,-0.0752,-0.1289,1.0146,-0.0610,0.4883,-0.0610,1,469,864,231
90764732,10110,-0.0752,-0.1284,1.0132,-0.0610,0.4272,-0.0610,1,474,875,231
90769728,10111,-0.0762,-0.1279,1.0107,-0.1221,0.3662,-0.1831,1,479,876,231
90774726,10112,-0.0757,-0.1294,1.0112,-0.1831,0.3052,-0.2441,1,469,861,231
90779732,10113,-0.0747,-0.1304,1.0127,-0.0610,0.3662,-0.1221,1,470,861,231
90784732,10114,-0.0742,-0.1299,1.0132,-0.2441,0.4272,-0.0610,1,510,855,231
90789726,10115,-0.0752,-0.1299,1.0142,-0.1221,0.5493,-0.0610,1,466,879,231
90794727,10116,-0.0757,-0.1289,1.0146,-0.0610,0.6104,-0.0610,1,466,799,231
90799734,10117,-0.0752,-0.1279,1.0146,0.0000,0.4883,-0.0610,1,470,856,231
90804727,10118,-0.0737,-0.1289,1.0156,-0.1221,0.5493,-0.1221,1,476,803,231
90809733,10119,-0.0742,-0.1294,1.0156,-0.2441,0.4883,0.0000,1,473,851,231
90814729,10120,-0.0767,-0.1279,1.0132,-0.1221,0.4883,0.0000,1,478,809,231
90819731,10121,-0.0771,-0.1284,1.0107,0.0000,0.4883,-0.1221,1,490,801,231
90824731,10122,-0.0757,-0.1294,1.0112,-0.0610,0.4883,-0.1221,1,492,803,231
90829733,10123,-0.0757,-0.1299,1.0132,-0.1221,0.5493,-0.1831,1,466,872,231
90834729,10124,-0.0762,-0.1304,1.0142,-0.0610,0.4883,-0.1221,1,466,877,231
90839733,10125,-0.0767,-0.1304,1.0127,0.0610,0.4883,-0.1221,1,483,868,231
90844725,10126,-0.0771,-0.1294,1.0112,0.1221,0.4272,-0.0610,1,465,858,231
90849730,10127,-0.0776,-0.1284,1.0112,0.0000,0.4272,-0.1221,1,484,812,231
90854727,10128,-0.0776,-0.1284,1.0122,0.0000,0.4883,-0.1221,1,476,825,231
90859731,10129,-0.0752,-0.1274,1.0132,0.0610,0.3662,-0.0610,1,465,824,231
90864729,10130,-0.0757,-0.1279,1.0117,0.0610,0.2441,-0.1221,1,470,867,231
90869728,10131,-0.0776,-0.1294,1.0098,0.1221,0.3052,-0.1221,1,482,877,231
90874749,10132,-0.0771,-0.1294,1.0098,0.2441,0.2441,-0.0610,1,471,848,231
90879725,10133,-0.0757,-0.1284,1.0107,0.2441,0.1221,-0.1221,1,478,860,231
90884727,10134,-0.0747,-0.1274,1.0127,0.0610,0.2441,-0.1831,1,465,874,231
90889726,10135,-0.0752,-0.1274,1.0142,0.1221,0.3052,-0.1221,1,494,882,231
90894730,10136,-0.0762,-0.1274,1.0132,0.0610,0.2441,-0.1221,1,478,765,231
90899732,10137,-0.0767,-0.1274,1.0127,0.0000,0.1831,-0.2441,1,490,857,231
90904733,10138,-0.0762,-0.1279,1.0137,0.0000,0.2441,-0.1831,1,492,808,231
90909726,10139,-0.0757,-0.1284,1.0146,0.1221,0.1831,-0.1831,1,487,806,231
90914726,10140,-0.0757,-0.1289,1.0142,0.1221,0.1831,-0.1831,1,485,853,231
90919728,10141,-0.0747,-0.1284,1.0127,0.0610,0.0610,-0.3052,1,489,850,231
90924728,10142,-0.0747,-0.1279,1.0112,0.1221,0.1221,-0.2441,1,466,846,231
90929731,10143,-0.0757,-0.1279,1.0112,0.0610,0.1831,-0.2441,1,466,878,231
90934732,10144,-0.0752,-0.1289,1.0117,0.0610,0.1831,-0.2441,1,483,882,231
90939729,10145,-0.0752,-0.1304,1.0112,0.2441,0.2441,-0.3662,1,465,883,231
90944728,10146,-0.0757,-0.1309,1.0093,0.1831,0.0610,-0.2441,1,484,871,231
90949731,10147,-0.0757,-0.1284,1.0098,0.2441,-0.0610,-0.1831,1,472,900,231
90954729,10148,-0.0752,-0.1270,1.0132,0.0610,0.1221,-0.3662,1,478,869,231
90959727,10149,-0.0742,-0.1274,1.0151,0.0610,0.1831,-0.3052,1,467,863,231
90964725,10150,-0.0732,-0.1274,1.0146,0.1221,0.1221,-0.1221,1,476,878,231
90969731,10151,-0.0752,-0.1284,1.0127,0.0610,0.2441,-0.1221,1,465,858,231
90974725,10152,-0.0786,-0.1304,1.0122,0.0000,0.1221,-0.2441,1,482,857,231
90979726,10153,-0.0791,-0.1318,1.0117,0.0610,-0.0610,-0.2441,1,511,812,231
90984731,10154,-0.0776,-0.1318,1.0127,0.0610,0.0000,-0.2441,1,481,883,231
90989725,10155,-0.0762,-0.1299,1.0142,0.2441,0.0000,-0.2441,1,466,817,231
90994727,10156,-0.0757,-0.1279,1.0142,0.2441,-0.0610,-0.3052,1,486,805,231
90999730,10157,-0.0762,-0.1284,1.0122,0.1221,0.0000,-0.1831,1,473,847,231
91004726,10158,-0.0771,-0.1304,1.0112,0.0610,0.0000,-0.1831,1,475,805,231
91009729,10159,-0.0771,-0.1318,1.0103,0.1221,-0.1831,-0.3662,1,490,804,231
91014731,10160,-0.0757,-0.1318,1.0093,0.3662,-0.0610,-0.3052,1,476,853,231
91019732,10161,-0.0752,-0.1309,1.0098,0.3052,-0.1221,-0.3052,1,493,844,231
91024729,10162,-0.0776,-0.1299,1.0093,0.3662,-0.2441,-0.3662,1,466,860,231
91029729,10163,-0.0801,-0.1299,1.0088,0.4883,-0.4883,-0.3052,1,466,884,231
91034730,10164,-0.0796,-0.1284,1.0088,0.5493,-0.6714,-0.3662,1,484,864,231
91039732,10165,-0.0776,-0.1274,1.0093,0.6714,-0.7324,-0.4272,1,465,869,231
91044729,10166,-0.0757,-0.1274,1.0103,0.7935,-0.9155,-0.4272,1,484,871,231
91049725,10167,-0.0752,-0.1279,1.0122,0.8545,-0.9766,-0.4272,1,479,907,231
91054726,10168,-0.0757,-0.1279,1.0146,0.7324,-0.9155,-0.4272,1,469,870,231
91059731,10169,-0.0757,-0.1279,1.0166,0.8545,-0.9155,-0.3662,1,474,885,231
91064729,10170,-0.0747,-0.1260,1.0161,0.7324,-0.7935,-0.3052,1,477,837,231
91069730,10171,-0.0747,-0.1255,1.0132,0.6104,-0.7935,-0.3662,1,465,861,231
91074725,10172,-0.0757,-0.1294,1.0117,0.6104,-0.8545,-0.4272,1,484,858,231
91079728,10173,-0.0762,-0.1323,1.0112,0.7935,-0.7935,-0.3662,1,511,858,231
91084732,10174,-0.0747,-0.1299,1.0117,0.8545,-0.9766,-0.4883,1,481,881,231
91089732,10175,-0.0747,-0.1274,1.0122,0.7935,-0.9766,-0.4883,1,466,773,231
91094726,10176,-0.0757,-0.1270,1.0122,0.7324,-0.9155,-0.4883,1,483,814,231
91099732,10177,-0.0752,-0.1279,1.0127,0.8545,-1.2207,-0.4883,1,480,853,231
91104730,10178,-0.0698,-0.1265,1.0171,0.7935,-1.0986,-0.4883,1,476,850,231
91109728,10179,-0.0669,-0.1260,1.0186,0.6714,-0.6104,-0.3662,1,491,847,231
91114727,10180,-0.0684,-0.1260,1.0181,0.5493,-0.6104,-0.2441,1,484,847,231
91119726,10181,-0.0713,-0.1255,1.0166,0.3662,-0.6714,-0.4272,1,493,848,231
91124743,10182,-0.0723,-0.1250,1.0156,0.4272,-0.5493,-0.4883,1,466,880,231
91129732,10183,-0.0708,-0.1255,1.0146,0.3052,-0.5493,-0.4883,1,466,880,231
91134726,10184,-0.0698,-0.1270,1.0132,0.3052,-0.4272,-0.2441,1,484,878,231
91139731,10185,-0.0718,-0.1279,1.0122,0.3662,-0.3052,-0.2441,1,484,868,231
91144727,10186,-0.0732,-0.1279,1.0112,0.3662,-0.4883,-0.3662,1,466,879,231
91149733,10187,-0.0732,-0.1265,1.0107,0.3052,-0.4883,-0.3662,1,474,926,231
91154727,10188,-0.0728,-0.1255,1.0132,0.1831,-0.3052,-0.3052,1,473,867,231
91159730,10189,-0.0718,-0.1245,1.0166,0.1221,-0.2441,-0.3052,1,465,870,231
91164728,10190,-0.0708,-0.1250,1.0176,-0.0610,-0.0610,-0.3662,1,469,859,231
91169743,10191,-0.0703,-0.1270,1.0166,0.0000,-0.0610,-0.1831,1,477,855,231
91174733,10192,-0.0708,-0.1270,1.0156,-0.0610,-0.0610,-0.1831,1,484,815,231
91179728,10193,-0.0723,-0.1265,1.0151,-0.1831,-0.0610,-0.1221,1,511,860,231
91184733,10194,-0.0732,-0.1270,1.0146,-0.3052,0.1221,-0.1831,1,488,874,231
91189726,10195,-0.0728,-0.1274,1.0132,-0.0610,0.0000,-0.1831,1,464,821,231
91194727,10196,-0.0723,-0.1274,1.0127,-0.1831,0.1221,-0.1831,1,476,804,231
91199732,10197,-0.0723,-0.1270,1.0142,-0.3052,0.2441,-0.1221,1,488,850,231
91204726,10198,-0.0718,-0.1274,1.0146,-0.2441,0.3052,-0.1831,1,486,844,231
91209732,10199,-0.0723,-0.1279,1.0137,-0.1221,0.3052,-0.1831,1,481,853,231
91214725,10200,-0.0732,-0.1279,1.0127,-0.1831,0.1831,-0.1831,1,485,846,231
91219728,10201,-0.0737,-0.1279,1.0122,-0.1831,0.2441,-0.1221,1,493,858,231
91224737,10202,-0.0723,-0.1284,1.0137,-0.2441,0.2441,-0.1831,1,466,885,231
91229729,10203,-0.0723,-0.1274,1.0156,-0.3052,0.4272,-0.1831,1,466,885,231
91234729,10204,-0.0732,-0.1265,1.0171,-0.4883,0.4883,-0.1221,1,484,881,231
91239734,10205,-0.0742,-0.1270,1.0146,-0.3052,0.3662,-0.1221,1,478,862,231
91244725,10206,-0.0728,-0.1284,1.0122,-0.1831,0.4272,-0.1221,1,465,829,231
91249726,10207,-0.0708,-0.1284,1.0112,-0.3662,0.4272,-0.1831,1,475,921,231
91254732,10208,-0.0708,-0.1279,1.0107,-0.3052,0.3662,-0.1221,1,480,877,231
91259730,10209,-0.0718,-0.1284,1.0122,-0.2441,0.3052,-0.1221,1,482,866,231
91264732,10210,-0.0723,-0.1274,1.0137,-0.3662,0.2441,-0.1831,1,469,859,231
91269733,10211,-0.0713,-0.1265,1.0142,-0.2441,0.3662,-0.1221,1,474,865,231
91274731,10212,-0.0713,-0.1265,1.0132,-0.1831,0.3662,-0.1831,1,483,858,231
91279729,10213,-0.0723,-0.1284,1.0117,-0.1831,0.3662,-0.3662,1,510,864,231
91284726,10214,-0.0728,-0.1284,1.0112,-0.1221,0.4272,-0.2441,1,484,885,231
91289726,10215,-0.0732,-0.1270,1.0122,-0.3052,0.4272,-0.3052,1,464,826,231
91294733,10216,-0.0737,-0.1270,1.0127,-0.2441,0.4883,-0.1831,1,490,849,231
91299734,10217,-0.0728,-0.1274,1.0137,-0.1221,0.4883,-0.1831,1,492,854,231
91304730,10218,-0.0723,-0.1274,1.0151,-0.3052,0.4272,-0.1831,1,475,848,231
91309732,10219,-0.0728,-0.1279,1.0146,-0.3052,0.4272,-0.1831,1,488,852,231
91314729,10220,-0.0728,-0.1284,1.0137,-0.3662,0.4883,-0.1221,1,476,853,231
91319731,10221,-0.0728,-0.1284,1.0142,-0.2441,0.5493,-0.2441,1,493,848,231
91324749,10222,-0.0732,-0.1274,1.0151,-0.1831,0.4883,-0.1221,1,465,884,231
91329730,10223,-0.0737,-0.1270,1.0146,-0.4272,0.5493,-0.1831,1,466,881,231
91334732,10224,-0.0737,-0.1279,1.0137,-0.3052,0.7935,-0.1831,1,484,887,231
91339728,10225,-0.0723,-0.1289,1.0132,-0.2441,0.7324,-0.1221,1,478,868,231
91344733,10226,-0.0718,-0.1289,1.0137,-0.3052,0.6714,-0.1831,1,466,877,231
91349732,10227,-0.0728,-0.1279,1.0137,-0.2441,0.7324,-0.2441,1,472,930,231
91354733,10228,-0.0742,-0.1274,1.0127,-0.1831,0.7324,-0.1831,1,477,875,231
91359732,10229,-0.0752,-0.1279,1.0112,-0.1221,0.6714,-0.2441,1,482,885,231
91364728,10230,-0.0752,-0.1284,1.0112,-0.1221,0.6714,-0.3052,1,471,861,231
91369733,10231,-0.0747,-0.1284,1.0107,-0.0610,0.6104,-0.1221,1,478,855,231
91374725,10232,-0.0732,-0.1289,1.0122,-0.1831,0.5493,-0.1221,1,483,856,231
91379730,10233,-0.0718,-0.1289,1.0137,-0.1221,0.6104,-0.1221,1,511,866,231
91384731,10234,-0.0728,-0.1270,1.0146,-0.0610,0.6104,-0.0610,1,477,868,231
91389730,10235,-0.0742,-0.1270,1.0137,-0.1221,0.6104,-0.1831,1,466,806,231
91394726,10236,-0.0742,-0.1284,1.0132,-0.2441,0.7324,-0.1831,1,478,847,231
91399730,10237,-0.0737,-0.1294,1.0132,-0.3052,0.7324,-0.1831,1,473,857,231
91404727,10238,-0.0732,-0.1309,1.0132,-0.0610,0.5493,-0.1221,1,479,851,231
91409730,10239,-0.0723,-0.1313,1.0122,-0.2441,0.6104,-0.1831,1,486,846,231
91414725,10240,-0.0737,-0.1299,1.0117,-0.2441,0.6714,-0.1831,1,472,854,231
91419732,10241,-0.0757,-0.1279,1.0127,-0.0610,0.5493,-0.1831,1,493,856,231
91424738,10242,-0.0752,-0.1284,1.0132,-0.0610,0.5493,-0.1831,1,466,879,231
91429733,10243,-0.0742,-0.1299,1.0122,-0.0610,0.5493,-0.1831,1,466,880,231
91434732,10244,-0.0737,-0.1299,1.0107,-0.0610,0.6714,-0.1831,1,483,883,231
91439726,10245,-0.0732,-0.1284,1.0117,-0.0610,0.6714,-0.2441,1,476,869,231
91444730,10246,-0.0732,-0.1270,1.0132,0.0000,0.5493,-0.1831,1,465,882,231
91449733,10247,-0.0742,-0.1274,1.0127,0.0000,0.4883,-0.2441,1,469,826,231
91454733,10248,-0.0747,-0.1289,1.0112,0.1221,0.5493,-0.2441,1,471,826,231
91459729,10249,-0.0742,-0.1284,1.0112,0.1831,0.6104,-0.3052,1,479,884,231
91464726,10250,-0.0737,-0.1279,1.0127,0.0000,0.5493,-0.3052,1,467,861,231
91469729,10251,-0.0732,-0.1279,1.0137,0.0000,0.6714,-0.2441,1,477,815,231
91474730,10252,-0.0737,-0.1270,1.0132,-0.0610,0.7935,-0.1831,1,483,818,231
91479728,10253,-0.0737,-0.1279,1.0117,-0.0610,0.6714,-0.1831,1,511,859,231
91484725,10254,-0.0737,-0.1299,1.0098,0.0000,0.6104,-0.2441,1,474,881,231
91489731,10255,-0.0747,-0.1304,1.0088,0.0610,0.5493,-0.3052,1,466,801,231
91494730,10256,-0.0747,-0.1304,1.0103,0.0610,0.5493,-0.2441,1,492,852,231
91499732,10257,-0.0737,-0.1299,1.0117,0.0610,0.4272,-0.1831,1,483,848,231
91504725,10258,-0.0737,-0.1299,1.0122,-0.0610,0.4272,-0.2441,1,475,854,231
91509731,10259,-0.0742,-0.1294,1.0127,0.0610,0.4272,-0.1221,1,480,855,231
91514733,10260,-0.0732,-0.1289,1.0122,0.0610,0.4883,-0.1831,1,485,846,231
91519727,10261,-0.0728,-0.1294,1.0117,-0.0610,0.3662,-0.2441,1,487,854,231
91524730,10262,-0.0732,-0.1294,1.0107,0.0000,0.4272,-0.3052,1,466,880,231
91529733,10263,-0.0737,-0.1289,1.0107,0.0610,0.3662,-0.1831,1,466,830,231
91534726,10264,-0.0742,-0.1284,1.0132,0.0000,0.3052,-0.1221,1,483,884,231
91539729,10265,-0.0742,-0.1289,1.0146,0.0000,0.3662,-0.3662,1,467,771,231
91544733,10266,-0.0737,-0.1294,1.0146,0.0000,0.3662,-0.3052,1,484,839,231
91549726,10267,-0.0737,-0.1279,1.0132,0.1221,0.4272,-0.2441,1,471,822,231
91554731,10268,-0.0732,-0.1265,1.0117,0.1221,0.3662,-0.3662,1,482,871,231
91559725,10269,-0.0732,-0.1265,1.0103,0.0000,0.3052,-0.2441,1,483,871,231
91564730,10270,-0.0732,-0.1284,1.0107,0.0000,0.3662,-0.2441,1,472,810,231
91569729,10271,-0.0737,-0.1299,1.0122,0.1221,0.3052,-0.2441,1,474,821,231
91574759,10272,-0.0747,-0.1294,1.0132,0.1221,0.4272,-0.3052,1,474,857,231
91579726,10273,-0.0757,-0.1289,1.0132,0.1831,0.3052,-0.3052,1,484,855,231
91584725,10274,-0.0757,-0.1289,1.0127,0.0000,0.3052,-0.2441,1,466,872,231
91589729,10275,-0.0757,-0.1294,1.0127,0.1221,0.3052,-0.2441,1,494,756,231
91594727,10276,-0.0757,-0.1299,1.0132,0.0610,0.1831,-0.2441,1,466,853,231
91599726,10277,-0.0752,-0.1289,1.0137,0.1221,0.1831,-0.3052,1,478,860,231
91604733,10278,-0.0752,-0.1279,1.0142,0.1221,0.2441,-0.3052,1,488,845,231
91609731,10279,-0.0747,-0.1274,1.0146,0.1221,0.2441,-0.3052,1,483,845,231
91614732,10280,-0.0742,-0.1279,1.0142,0.0610,0.1831,-0.2441,1,473,851,231
91619731,10281,-0.0747,-0.1289,1.0127,0.0610,0.3052,-0.3052,1,481,855,231
91624726,10282,-0.0742,-0.1294,1.0112,0.0610,0.2441,-0.4272,1,493,844,231
91629725,10283,-0.0742,-0.1289,1.0112,0.2441,0.2441,-0.2441,1,466,883,231
91634733,10284,-0.0742,-0.1279,1.0112,0.1221,0.3052,-0.2441,1,466,891,231
91639731,10285,-0.0752,-0.1284,1.0107,0.1221,0.1221,-0.3052,1,465,881,231
91644727,10286,-0.0757,-0.1289,1.0107,0.1831,0.1831,-0.3662,1,480,859,231
91649733,10287,-0.0757,-0.1294,1.0112,0.3052,0.2441,-0.3662,1,465,883,231
91654730,10288,-0.0752,-0.1294,1.0117,0.3052,0.2441,-0.3052,1,467,920,231
91659732,10289,-0.0742,-0.1289,1.0122,0.3662,0.1221,-0.3662,1,472,862,231
91664728,10290,-0.0737,-0.1274,1.0127,0.3052,0.2441,-0.3052,1,476,883,231
91669728,10291,-0.0732,-0.1279,1.0132,0.1221,0.1831,-0.2441,1,465,858,231
91674733,10292,-0.0732,-0.1284,1.0132,0.1831,0.1221,-0.3662,1,471,863,231
91679732,10293,-0.0728,-0.1279,1.0117,0.1831,0.1831,-0.3662,1,484,862,231
91684728,10294,-0.0728,-0.1284,1.0112,0.1831,0.1831,-0.3662,1,510,867,231
91689725,10295,-0.0732,-0.1284,1.0127,0.2441,0.0610,-0.3052,1,465,886,231
91694732,10296,-0.0742,-0.1289,1.0137,0.1221,0.1831,-0.3052,1,493,804,231
91699726,10297,-0.0752,-0.1304,1.0132,0.1221,0.2441,-0.3052,1,485,857,231
91704732,10298,-0.0767,-0.1304,1.0122,0.3052,0.1831,-0.3052,1,481,842,231
91709733,10299,-0.0771,-0.1289,1.0122,0.3052,0.1831,-0.3662,1,475,843,231
91714732,10300,-0.0762,-0.1279,1.0122,0.1831,0.3052,-0.3052,1,485,876,231
91719732,10301,-0.0752,-0.1284,1.0122,0.2441,0.3052,-0.1831,1,492,847,231
91724726,10302,-0.0757,-0.1289,1.0112,0.3052,0.1221,-0.2441,1,478,852,231
91729727,10303,-0.0752,-0.1294,1.0107,0.3052,0.0000,-0.3052,1,493,848,231
91734733,10304,-0.0742,-0.1294,1.0112,0.3052,0.0610,-0.2441,1,466,821,231
91739725,10305,-0.0747,-0.1284,1.0127,0.2441,0.1221,-0.3052,1,483,876,231
91744730,10306,-0.0742,-0.1279,1.0142,0.3052,0.0610,-0.3052,1,465,867,231
91749734,10307,-0.0742,-0.1284,1.0146,0.3662,0.0000,-0.3662,1,484,808,231
91754728,10308,-0.0747,-0.1279,1.0146,0.3662,0.1221,-0.3052,1,465,830,231
91759731,10309,-0.0742,-0.1284,1.0132,0.3052,0.0000,-0.3052,1,475,869,231
91764725,10310,-0.0728,-0.1289,1.0127,0.2441,0.0610,-0.5493,1,478,828,231
91769726,10311,-0.0718,-0.1284,1.0127,0.3052,0.0610,-0.4272,1,470,880,231
91774729,10312,-0.0732,-0.1279,1.0122,0.3662,0.0000,-0.3052,1,477,856,231
91779756,10313,-0.0747,-0.1274,1.0132,0.3052,0.0000,-0.3662,1,474,817,231
91784730,10314,-0.0742,-0.1274,1.0142,0.3052,-0.1221,-0.3662,1,483,815,231
91789732,10315,-0.0732,-0.1265,1.0132,0.3662,-0.0610,-0.3052,1,465,877,231
91794726,10316,-0.0728,-0.1260,1.0127,0.3662,-0.0610,-0.3662,1,494,873,231
91799725,10317,-0.0723,-0.1265,1.0132,0.2441,0.0000,-0.3662,1,472,872,231
91804728,10318,-0.0723,-0.1274,1.0127,0.3052,0.0000,-0.3662,1,485,805,231
91809727,10319,-0.0723,-0.1279,1.0132,0.2441,0.0000,-0.4272,1,482,802,231
91814731,10320,-0.0732,-0.1289,1.0132,0.2441,0.0000,-0.4272,1,491,807,231
91819726,10321,-0.0742,-0.1289,1.0117,0.3052,0.1221,-0.3662,1,474,810,231
91824731,10322,-0.0742,-0.1279,1.0107,0.3662,0.1221,-0.3052,1,488,851,231
91829728,10323,-0.0742,-0.1270,1.0122,0.4272,0.1221,-0.3052,1,493,849,231
91834725,10324,-0.0732,-0.1284,1.0142,0.3662,0.0610,-0.3052,1,466,876,231
91839728,10325,-0.0723,-0.1294,1.0146,0.3052,0.0610,-0.3662,1,465,877,231
91844725,10326,-0.0737,-0.1279,1.0142,0.3662,0.0610,-0.3052,1,465,875,231
91849731,10327,-0.0762,-0.1270,1.0127,0.3052,0.0000,-0.2441,1,484,866,231
91854729,10328,-0.0757,-0.1270,1.0117,0.3052,0.0610,-0.3662,1,465,819,231
91859730,10329,-0.0747,-0.1274,1.0117,0.4883,0.0000,-0.3052,1,476,931,231
91864730,10330,-0.0737,-0.1279,1.0127,0.4272,0.1221,-0.2441,1,478,824,231
91869727,10331,-0.0742,-0.1279,1.0132,0.3052,0.2441,-0.2441,1,482,881,231
91874729,10332,-0.0757,-0.1279,1.0127,0.3052,0.2441,-0.3052,1,469,863,231
91879726,10333,-0.0762,-0.1279,1.0117,0.3052,0.1221,-0.3662,1,472,855,231
91884733,10334,-0.0742,-0.1270,1.0117,0.3662,0.0610,-0.2441,1,483,857,231
91889730,10335,-0.0723,-0.1274,1.0127,0.3662,0.0610,-0.2441,1,510,863,231
91894731,10336,-0.0713,-0.1279,1.0137,0.3052,0.0610,-0.3052,1,465,879,231
91899729,10337,-0.0723,-0.1284,1.0137,0.3052,0.0610,-0.1831,1,494,793,231
91904733,10338,-0.0732,-0.1279,1.0137,0.3662,0.1831,-0.2441,1,482,771,231
91909729,10339,-0.0728,-0.1274,1.0142,0.3052,0.1831,-0.3052,1,486,869,231
91914726,10340,-0.0718,-0.1270,1.0151,0.2441,0.1221,-0.1831,1,489,846,231
91919732,10341,-0.0723,-0.1270,1.0156,0.2441,0.3052,-0.2441,1,479,872,231
91924729,10342,-0.0728,-0.1265,1.0161,0.2441,0.4272,-0.3052,1,485,850,231
91929726,10343,-0.0737,-0.1270,1.0161,0.1221,0.3662,-0.3052,1,471,849,231
91934734,10344,-0.0742,-0.1274,1.0146,0.1831,0.3052,-0.1831,1,493,848,231
91939727,10345,-0.0742,-0.1279,1.0132,0.1831,0.3662,-0.1831,1,466,884,231
91944725,10346,-0.0742,-0.1274,1.0127,0.1831,0.1221,-0.3052,1,483,884,231
91949728,10347,-0.0728,-0.1274,1.0132,0.2441,0.3052,-0.1831,1,466,866,231
91954733,10348,-0.0728,-0.1274,1.0127,0.2441,0.3662,-0.1221,1,484,868,231
91959733,10349,-0.0747,-0.1270,1.0127,0.1831,0.4883,-0.4272,1,465,877,231
91964732,10350,-0.0752,-0.1274,1.0132,0.1831,0.3052,-0.3052,1,482,922,231
91969732,10351,-0.0732,-0.1279,1.0132,0.1831,0.1221,-0.1221,1,469,872,231
91974726,10352,-0.0723,-0.1279,1.0132,0.2441,0.1831,-0.1831,1,477,876,231
91979729,10353,-0.0713,-0.1270,1.0127,0.0610,0.1831,-0.3052,1,472,867,231
91984751,10354,-0.0708,-0.1260,1.0127,0.0610,0.2441,-0.3052,1,473,854,231
91989726,10355,-0.0708,-0.1265,1.0142,0.0610,0.4272,-0.2441,1,484,855,231
91994726,10356,-0.0723,-0.1274,1.0146,0.1221,0.2441,-0.1831,1,466,876,231
91999731,10357,-0.0737,-0.1284,1.0137,0.0610,0.2441,-0.1831,1,494,880,231
92004729,10358,-0.0737,-0.1279,1.0127,0.0610,0.2441,-0.1831,1,468,779,231
92009730,10359,-0.0718,-0.1265,1.0117,0.0610,0.3052,-0.1831,1,482,864,231
92014732,10360,-0.0732,-0.1260,1.0117,0.1221,0.2441,-0.1831,1,483,847,231
92019729,10361,-0.0742,-0.1265,1.0122,0.1831,0.3052,-0.3662,1,492,854,231
92024732,10362,-0.0742,-0.1270,1.0122,0.1831,0.2441,-0.3052,1,483,852,231
92029732,10363,-0.0742,-0.1265,1.0127,0.1831,0.1831,-0.2441,1,489,854,231
92034732,10364,-0.0747,-0.1265,1.0146,0.0610,0.2441,-0.1831,1,493,855,231
92039731,10365,-0.0742,-0.1265,1.0146,0.1221,0.1221,-0.3052,1,465,883,231
92044729,10366,-0.0732,-0.1260,1.0137,0.0610,0.1831,-0.3052,1,483,872,231
92049727,10367,-0.0737,-0.1274,1.0137,-0.0610,0.2441,-0.2441,1,465,865,231
92054728,10368,-0.0747,-0.1279,1.0137,0.0610,0.1831,-0.3662,1,484,874,231
92059727,10369,-0.0737,-0.1274,1.0137,0.0000,0.2441,-0.2441,1,469,909,231
92064733,10370,-0.0728,-0.1265,1.0146,-0.0610,0.3052,-0.2441,1,477,829,231
92069729,10371,-0.0732,-0.1274,1.0151,-0.0610,0.2441,-0.2441,1,479,874,231
92074733,10372,-0.0728,-0.1279,1.0151,0.0000,0.1221,-0.3052,1,466,839,231
92079730,10373,-0.0718,-0.1284,1.0142,-0.0610,0.3052,-0.3052,1,465,812,231
92084746,10374,-0.0723,-0.1294,1.0137,0.0000,0.3052,-0.2441,1,470,851,231
92089729,10375,-0.0732,-0.1284,1.0127,-0.0610,0.1831,-0.2441,1,483,811,231
92094727,10376,-0.0728,-0.1274,1.0127,-0.1221,0.1831,-0.2441,1,494,883,231
92099733,10377,-0.0728,-0.1284,1.0137,0.0000,0.3052,-0.1831,1,494,879,231
92104729,10378,-0.0732,-0.1274,1.0151,0.0610,0.3662,-0.1831,1,464,812,231
92109729,10379,-0.0737,-0.1270,1.0146,-0.1221,0.4883,-0.1831,1,492,818,231
92114732,10380,-0.0737,-0.1274,1.0132,-0.0610,0.3662,-0.1831,1,490,851,231
92119725,10381,-0.0732,-0.1279,1.0122,0.0000,0.3662,-0.1831,1,478,855,231
92124727,10382,-0.0732,-0.1270,1.0122,-0.1221,0.4272,-0.3662,1,473,812,231
92129733,10383,-0.0732,-0.1265,1.0137,0.0610,0.4272,-0.3052,1,480,854,231
92134729,10384,-0.0732,-0.1265,1.0151,0.1221,0.6104,-0.1831,1,493,846,231
92139750,10385,-0.0742,-0.1265,1.0151,0.0610,0.4883,-0.3052,1,466,876,231
92144734,10386,-0.0732,-0.1274,1.0146,0.0610,0.4272,-0.2441,1,466,873,231
92149725,10387,-0.0728,-0.1270,1.0142,0.0610,0.3662,-0.1831,1,465,886,231
92154725,10388,-0.0723,-0.1260,1.0137,0.0000,0.3662,-0.1831,1,484,867,231
92159732,10389,-0.0718,-0.1250,1.0132,0.0610,0.4272,-0.2441,1,466,823,231
92164728,10390,-0.0732,-0.1250,1.0127,0.0000,0.2441,-0.1831,1,482,930,231
92169726,10391,-0.0747,-0.1265,1.0132,-0.1221,0.2441,-0.2441,1,470,833,231
92174730,10392,-0.0742,-0.1274,1.0132,-0.1221,0.2441,-0.2441,1,479,878,231
92179729,10393,-0.0728,-0.1274,1.0122,-0.1221,0.3662,-0.3052,1,481,864,231
92184737,10394,-0.0723,-0.1279,1.0132,-0.0610,0.3052,-0.2441,1,465,860,231
92189730,10395,-0.0723,-0.1284,1.0146,-0.0610,0.1831,-0.0610,1,483,857,231
92194730,10396,-0.0723,-0.1284,1.0142,-0.0610,0.1831,-0.1831,1,493,862,231
92199732,10397,-0.0728,-0.1279,1.0132,0.0000,0.2441,-0.2441,1,484,879,231
92204725,10398,-0.0732,-0.1270,1.0122,0.0610,0.3052,-0.1831,1,465,808,231
92209729,10399,-0.0732,-0.1260,1.0117,0.0610,0.2441,-0.1221,1,492,831,231
92214730,10400,-0.0728,-0.1260,1.0112,0.1221,0.2441,-0.1221,1,490,850,231
92219732,10401,-0.0732,-0.1265,1.0117,0.1831,0.3052,-0.1831,1,483,847,231
92224734,10402,-0.0737,-0.1279,1.0122,0.1221,0.3052,-0.1831,1,492,852,231
92229733,10403,-0.0732,-0.1279,1.0137,0.1831,0.3662,-0.1831,1,481,851,231
92234729,10404,-0.0723,-0.1265,1.0151,0.1221,0.3052,-0.2441,1,493,858,231
92239727,10405,-0.0723,-0.1265,1.0146,0.2441,0.3052,-0.1831,1,466,874,231
92244728,10406,-0.0732,-0.1279,1.0132,0.1221,0.2441,-0.2441,1,484,877,231
92249733,10407,-0.0737,-0.1274,1.0122,0.0610,0.3052,-0.3662,1,466,881,231
92254730,10408,-0.0732,-0.1265,1.0122,0.2441,0.3662,-0.1831,1,485,869,231
92259730,10409,-0.0737,-0.1265,1.0122,0.1831,0.3662,-0.1221,1,466,913,231
92264731,10410,-0.0747,-0.1260,1.0127,0.0610,0.3662,-0.1831,1,472,871,231
92269730,10411,-0.0742,-0.1255,1.0117,0.0000,0.3052,-0.1221,1,478,878,231
92274728,10412,-0.0737,-0.1255,1.0117,0.0000,0.3052,-0.1221,1,466,810,231
92279731,10413,-0.0742,-0.1270,1.0127,-0.0610,0.4272,-0.1831,1,473,810,231
92284746,10414,-0.0742,-0.1279,1.0132,0.0000,0.4883,-0.1221,1,474,862,231
92289725,10415,-0.0728,-0.1274,1.0137,0.0610,0.3052,-0.1221,1,484,812,231
92294725,10416,-0.0728,-0.1270,1.0142,-0.1221,0.3662,-0.0610,1,493,870,231
92299731,10417,-0.0728,-0.1270,1.0137,-0.1221,0.4883,-0.2441,1,494,872,231
92304731,10418,-0.0723,-0.1274,1.0137,0.0000,0.3052,-0.2441,1,464,819,231
92309733,10419,-0.0732,-0.1265,1.0137,0.0610,0.1831,-0.1221,1,491,804,231
92314732,10420,-0.0742,-0.1270,1.0137,0.0610,0.3662,-0.1831,1,492,846,231
92319730,10421,-0.0742,-0.1284,1.0137,0.0000,0.3662,-0.1831,1,483,852,231
92324727,10422,-0.0742,-0.1289,1.0127,-0.0610,0.2441,-0.2441,1,473,810,231
92329727,10423,-0.0747,-0.1279,1.0127,0.1831,0.3662,-0.3052,1,488,855,231
92334730,10424,-0.0737,-0.1279,1.0132,0.2441,0.3662,-0.2441,1,492,852,231
92339731,10425,-0.0732,-0.1279,1.0142,0.0610,0.3662,-0.2441,1,466,886,231
92344730,10426,-0.0732,-0.1274,1.0142,0.0000,0.2441,-0.1831,1,466,881,231
92349731,10427,-0.0737,-0.1270,1.0127,0.1221,0.2441,-0.2441,1,465,828,231
92354728,10428,-0.0742,-0.1270,1.0112,0.0000,0.3662,-0.1831,1,484,870,231
92359732,10429,-0.0737,-0.1284,1.0117,0.0610,0.3052,-0.2441,1,466,828,231
92364732,10430,-0.0723,-0.1289,1.0132,0.0610,0.1221,-0.1831,1,468,869,231
92369731,10431,-0.0708,-0.1274,1.0146,0.0000,0.2441,-0.1221,1,474,872,231
92374732,10432,-0.0703,-0.1274,1.0146,-0.1221,0.3662,-0.1831,1,482,818,231
92379731,10433,-0.0718,-0.1274,1.0127,0.0000,0.3052,-0.2441,1,467,865,231
92384743,10434,-0.0732,-0.1274,1.0117,0.0000,0.2441,-0.0610,1,472,811,231
92389727,10435,-0.0732,-0.1279,1.0122,-0.0610,0.2441,-0.0610,1,483,819,231
92394729,10436,-0.0723,-0.1284,1.0132,0.0000,0.3052,-0.1831,1,493,882,231
92399727,10437,-0.0718,-0.1270,1.0137,0.1221,0.2441,-0.1831,1,492,728,231
92404728,10438,-0.0732,-0.1265,1.0127,0.0000,0.3662,-0.1221,1,465,857,231
92409727,10439,-0.0737,-0.1274,1.0127,-0.0610,0.1831,-0.2441,1,476,802,231
92414726,10440,-0.0723,-0.1279,1.0137,0.0000,0.2441,-0.1831,1,490,855,231
92419727,10441,-0.0713,-0.1284,1.0146,-0.2441,0.4883,-0.1221,1,475,809,231
92424732,10442,-0.0713,-0.1289,1.0151,-0.1221,0.4272,0.0000,1,484,851,231
92429725,10443,-0.0718,-0.1284,1.0146,-0.2441,0.5493,-0.1831,1,490,805,231
92434734,10444,-0.0732,-0.1284,1.0137,-0.1221,0.4883,-0.1831,1,493,857,231
92439732,10445,-0.0752,-0.1279,1.0122,-0.0610,0.4272,-0.1831,1,466,879,231
92444725,10446,-0.0757,-0.1265,1.0122,-0.1831,0.3662,-0.2441,1,483,883,231
92449734,10447,-0.0752,-0.1260,1.0127,-0.1831,0.3662,-0.2441,1,467,874,231
92454727,10448,-0.0752,-0.1255,1.0132,-0.1831,0.3052,-0.1831,1,484,824,231
92459730,10449,-0.0742,-0.1265,1.0137,-0.3662,0.4272,-0.2441,1,465,917,231
92464734,10450,-0.0732,-0.1274,1.0142,-0.2441,0.2441,-0.0610,1,469,873,231
92469729,10451,-0.0737,-0.1274,1.0132,-0.2441,0.1831,-0.1831,1,475,883,231
92474730,10452,-0.0747,-0.1274,1.0137,-0.3052,0.3052,-0.2441,1,466,886,231
92479731,10453,-0.0737,-0.1279,1.0146,-0.1831,0.2441,-0.1831,1,472,859,231
92484732,10454,-0.0718,-0.1274,1.0151,-0.2441,0.3052,-0.1831,1,483,872,231
92489733,10455,-0.0713,-0.1265,1.0142,-0.1831,0.3052,-0.1221,1,484,863,231
92494728,10456,-0.0718,-0.1279,1.0127,-0.3052,0.1831,-0.1221,1,466,871,231
92499733,10457,-0.0718,-0.1289,1.0137,-0.3052,0.3052,-0.1831,1,494,795,231
92504727,10458,-0.0732,-0.1274,1.0156,-0.3662,0.3662,-0.1221,1,479,855,231
92509729,10459,-0.0732,-0.1289,1.0146,-0.4272,0.3662,-0.1831,1,475,856,231
92514725,10460,-0.0723,-0.1294,1.0132,-0.2441,0.4883,-0.1831,1,485,861,231
92519728,10461,-0.0718,-0.1274,1.0112,-0.4272,0.4272,0.0000,1,490,871,231
92524728,10462,-0.0718,-0.1284,1.0098,-0.4883,0.2441,-0.0610,1,483,809,231
92529729,10463,-0.0718,-0.1304,1.0107,-0.1831,0.3052,-0.0610,1,488,846,231
92534726,10464,-0.0728,-0.1284,1.0127,-0.1221,0.3662,-0.0610,1,466,842,231
92539728,10465,-0.0747,-0.1274,1.0127,-0.4883,0.3052,-0.1221,1,466,875,231
92544730,10466,-0.0757,-0.1299,1.0132,-0.4272,0.4272,-0.1831,1,466,874,231
92549726,10467,-0.0762,-0.1309,1.0146,-0.2441,0.4883,-0.1221,1,484,869,231
92554725,10468,-0.0762,-0.1294,1.0146,-0.1831,0.4272,-0.1831,1,466,903,231
92559727,10469,-0.0757,-0.1299,1.0127,-0.1221,0.2441,-0.2441,1,467,873,231
92564726,10470,-0.0747,-0.1299,1.0132,-0.0610,0.2441,-0.0610,1,472,875,231
92569727,10471,-0.0732,-0.1279,1.0146,-0.0610,0.4883,-0.1221,1,479,875,231
92574727,10472,-0.0728,-0.1284,1.0142,-0.1221,0.1831,-0.0610,1,467,860,231
92579756,10473,-0.0742,-0.1299,1.0122,-0.0610,0.2441,-0.1831,1,469,857,231
92584729,10474,-0.0747,-0.1299,1.0098,0.0000,0.2441,-0.2441,1,484,865,231
92589725,10475,-0.0737,-0.1284,1.0103,0.0000,0.2441,-0.2441,1,493,832,231
92594730,10476,-0.0732,-0.1279,1.0127,0.0000,0.1831,-0.3052,1,477,762,231
92599725,10477,-0.0737,-0.1294,1.0132,-0.0610,0.2441,-0.2441,1,493,785,231
92604729,10478,-0.0747,-0.1304,1.0132,0.0610,0.3052,-0.1831,1,478,862,231
92609726,10479,-0.0732,-0.1284,1.0137,0.0610,0.2441,-0.1831,1,485,844,231
92614728,10480,-0.0728,-0.1270,1.0142,0.1221,0.2441,-0.1831,1,478,855,231
92619731,10481,-0.0737,-0.1274,1.0146,0.1221,0.2441,-0.0610,1,475,849,231
92624728,10482,-0.0732,-0.1274,1.0142,0.1221,0.1221,-0.1831,1,483,852,231
92629729,10483,-0.0723,-0.1265,1.0137,0.0610,0.1831,-0.1831,1,490,848,231
92634729,10484,-0.0723,-0.1250,1.0132,0.0610,0.2441,-0.1221,1,466,849,231
92639726,10485,-0.0732,-0.1260,1.0132,0.1831,0.2441,-0.1221,1,466,871,231
92644726,10486,-0.0737,-0.1289,1.0132,0.1221,0.2441,-0.1221,1,465,880,231
92649726,10487,-0.0742,-0.1304,1.0127,0.2441,0.1831,0.0000,1,484,866,231
92654729,10488,-0.0747,-0.1294,1.0117,0.1221,0.1221,-0.1221,1,466,823,231
92659729,10489,-0.0742,-0.1274,1.0117,0.0000,0.1221,-0.1221,1,481,861,231
92664731,10490,-0.0752,-0.1270,1.0112,0.1831,0.1221,-0.1221,1,466,830,231
92669733,10491,-0.0767,-0.1289,1.0117,0.1831,0.1831,-0.1831,1,470,873,231
92674732,10492,-0.0767,-0.1294,1.0127,0.2441,0.1221,-0.1831,1,473,885,231
92679738,10493,-0.0752,-0.1279,1.0117,0.2441,0.1221,-0.2441,1,481,858,231
92684731,10494,-0.0742,-0.1279,1.0112,0.2441,0.0610,-0.3662,1,483,863,231
92689731,10495,-0.0747,-0.1279,1.0117,0.3052,0.0610,-0.1831,1,483,866,231
92694728,10496,-0.0747,-0.1279,1.0122,0.2441,0.1221,-0.2441,1,466,879,231
92699726,10497,-0.0737,-0.1279,1.0132,0.1831,0.0610,-0.3052,1,494,883,231
92704730,10498,-0.0728,-0.1284,1.0132,0.1831,0.1221,-0.1831,1,483,857,231
92709729,10499,-0.0723,-0.1294,1.0122,0.1831,0.2441,-0.3052,1,490,851,231
92714726,10500,-0.0723,-0.1284,1.0117,0.3052,0.2441,-0.2441,1,478,850,231
92719730,10501,-0.0732,-0.1284,1.0122,0.2441,0.1221,-0.3052,1,479,874,231
92724729,10502,-0.0742,-0.1279,1.0122,0.3052,0.1831,-0.2441,1,486,851,231
92729725,10503,-0.0737,-0.1274,1.0127,0.1221,0.2441,-0.2441,1,471,855,231
92734731,10504,-0.0723,-0.1274,1.0122,0.2441,0.1831,-0.1831,1,493,853,231
92739727,10505,-0.0728,-0.1274,1.0117,0.1831,0.1831,-0.1221,1,466,887,231
92744731,10506,-0.0728,-0.1279,1.0112,0.0610,0.1221,-0.2441,1,483,881,231
92749727,10507,-0.0728,-0.1289,1.0112,0.1221,0.1221,-0.1221,1,465,868,231
92754732,10508,-0.0728,-0.1294,1.0122,0.2441,0.1221,-0.0610,1,484,816,231
92759726,10509,-0.0723,-0.1289,1.0132,0.3052,0.2441,-0.2441,1,476,903,231
92764728,10510,-0.0728,-0.1279,1.0146,0.1831,0.2441,-0.2441,1,465,868,231
92769729,10511,-0.0747,-0.1284,1.0142,0.1221,0.2441,-0.1831,1,469,886,231
92774734,10512,-0.0752,-0.1284,1.0137,0.2441,0.1221,-0.1221,1,475,881,231
92779725,10513,-0.0742,-0.1274,1.0137,0.2441,0.1831,-0.1221,1,480,857,231
92784746,10514,-0.0732,-0.1270,1.0127,0.2441,0.2441,-0.1831,1,483,863,231
92789729,10515,-0.0728,-0.1279,1.0122,0.2441,0.1221,-0.2441,1,483,866,231
92794729,10516,-0.0732,-0.1274,1.0127,0.1831,0.0610,-0.2441,1,493,883,231
92799730,10517,-0.0732,-0.1270,1.0127,0.3052,0.0610,-0.3662,1,486,883,231
92804729,10518,-0.0728,-0.1274,1.0137,0.2441,0.0610,-0.3052,1,464,827,231
92809734,10519,-0.0723,-0.1270,1.0146,0.1221,0.0000,-0.1831,1,488,847,231
92814726,10520,-0.0723,-0.1270,1.0142,0.1221,0.1831,-0.3052,1,473,804,231
92819733,10521,-0.0718,-0.1279,1.0122,0.1221,0.1221,-0.2441,1,483,842,231
92824725,10522,-0.0718,-0.1270,1.0112,0.1221,0.1221,-0.1221,1,488,849,231
92829733,10523,-0.0737,-0.1270,1.0117,0.1221,0.0610,-0.0610,1,486,841,231
92834732,10524,-0.0747,-0.1274,1.0137,0.1221,0.1831,-0.1221,1,492,847,231
92839733,10525,-0.0737,-0.1270,1.0137,0.1831,0.1221,-0.2441,1,466,877,231
92844728,10526,-0.0728,-0.1270,1.0117,0.1831,0.3052,-0.1221,1,483,879,231
92849725,10527,-0.0728,-0.1274,1.0112,0.1221,0.3052,-0.1221,1,465,863,231
92854733,10528,-0.0732,-0.1289,1.0127,0.1221,0.1831,-0.2441,1,484,809,231
92859727,10529,-0.0728,-0.1299,1.0137,0.3052,0.2441,-0.3052,1,469,908,231
92864727,10530,-0.0732,-0.1294,1.0137,0.1831,0.1831,-0.2441,1,481,862,231
92869731,10531,-0.0747,-0.1279,1.0132,0.1221,0.1221,-0.1831,1,465,883,231
92874727,10532,-0.0742,-0.1274,1.0137,0.2441,0.0000,-0.1831,1,468,875,231
92879725,10533,-0.0728,-0.1279,1.0142,0.1831,0.1221,-0.1831,1,479,821,231
92884729,10534,-0.0728,-0.1279,1.0137,0.1831,0.0610,-0.2441,1,478,860,231
92889732,10535,-0.0728,-0.1270,1.0146,0.1831,0.0000,-0.1831,1,484,861,231
92894725,10536,-0.0718,-0.1270,1.0142,0.0610,0.0610,-0.3052,1,492,835,231
92899725,10537,-0.0723,-0.1284,1.0132,0.1221,0.1221,-0.3052,1,473,867,231
92904728,10538,-0.0732,-0.1289,1.0132,0.1831,0.1221,-0.3052,1,492,794,231
92909730,10539,-0.0732,-0.1284,1.0137,0.1831,0.1221,-0.2441,1,492,856,231
92914729,10540,-0.0737,-0.1284,1.0132,0.1831,0.0000,-0.1831,1,476,853,231
92919728,10541,-0.0747,-0.1284,1.0137,0.1221,0.0610,-0.2441,1,487,809,231
92924725,10542,-0.0732,-0.1284,1.0142,0.0610,0.0000,-0.1831,1,488,871,231
92929726,10543,-0.0718,-0.1294,1.0142,0.0000,0.1831,-0.1831,1,480,805,231
92934732,10544,-0.0732,-0.1279,1.0151,0.0000,0.1831,-0.1831,1,482,804,231
92939741,10545,-0.0742,-0.1260,1.0146,0.0000,0.1221,-0.2441,1,493,812,231
92944727,10546,-0.0747,-0.1260,1.0127,0.0000,0.1221,-0.3052,1,466,834,231
92949732,10547,-0.0737,-0.1270,1.0117,-0.1221,0.1831,-0.2441,1,484,817,231
92954728,10548,-0.0742,-0.1274,1.0127,-0.1221,0.1831,-0.1831,1,471,872,231
92959726,10549,-0.0742,-0.1284,1.0132,-0.0610,0.1831,-0.2441,1,466,873,231
92964726,10550,-0.0732,-0.1289,1.0142,-0.0610,0.0610,-0.2441,1,465,924,231
92969726,10551,-0.0718,-0.1284,1.0151,-0.0610,0.1221,-0.1831,1,470,869,231
92974729,10552,-0.0718,-0.1270,1.0151,0.0000,0.1831,-0.1831,1,476,868,231
92979730,10553,-0.0723,-0.1270,1.0142,-0.0610,0.0610,-0.2441,1,478,817,231
92984733,10554,-0.0737,-0.1274,1.0122,-0.2441,0.2441,-0.1831,1,483,856,231
92989738,10555,-0.0752,-0.1289,1.0107,-0.1221,0.1831,-0.2441,1,479,872,231
92994732,10556,-0.0737,-0.1284,1.0127,0.0610,0.2441,-0.2441,1,483,862,231
92999731,10557,-0.0718,-0.1270,1.0142,-0.0610,0.2441,-0.2441,1,493,882,231
93004727,10558,-0.0723,-0.1279,1.0137,-0.0610,0.0610,-0.1831,1,485,878,231
93009728,10559,-0.0752,-0.1289,1.0112,0.0000,0.1831,-0.1831,1,464,820,231
93014733,10560,-0.0781,-0.1294,1.0103,0.0000,0.1831,-0.1221,1,483,810,231
93019726,10561,-0.0771,-0.1284,1.0103,0.0610,0.0610,-0.2441,1,486,800,231
93024730,10562,-0.0732,-0.1279,1.0117,0.1831,-0.1221,-0.2441,1,474,849,231
93029731,10563,-0.0713,-0.1289,1.0142,0.0610,-0.0610,-0.1831,1,481,856,231
93034729,10564,-0.0723,-0.1299,1.0146,0.0610,0.0000,-0.3052,1,490,848,231
93039728,10565,-0.0723,-0.1294,1.0132,0.2441,-0.1221,-0.1831,1,492,799,231
93044731,10566,-0.0723,-0.1284,1.0122,0.0610,0.0000,-0.2441,1,466,876,231
93049729,10567,-0.0737,-0.1284,1.0112,0.0610,-0.0610,-0.3662,1,484,833,231
93054728,10568,-0.0737,-0.1279,1.0117,0.2441,-0.1831,-0.1831,1,465,882,231
93059727,10569,-0.0728,-0.1274,1.0137,0.1831,0.1221,-0.1831,1,484,878,231
93064725,10570,-0.0728,-0.1270,1.0132,0.2441,0.1221,-0.1831,1,471,907,231
93069733,10571,-0.0742,-0.1284,1.0098,0.3052,0.0000,-0.2441,1,479,868,231
93074731,10572,-0.0747,-0.1299,1.0078,0.2441,-0.1831,-0.1221,1,478,830,231
93079727,10573,-0.0752,-0.1294,1.0088,0.3662,-0.2441,-0.1831,1,466,878,231
93084729,10574,-0.0737,-0.1294,1.0112,0.3662,-0.3052,-0.2441,1,477,861,231
93089729,10575,-0.0718,-0.1279,1.0127,0.4272,-0.4272,-0.2441,1,475,863,231
93094733,10576,-0.0708,-0.1255,1.0146,0.4272,-0.3052,-0.2441,1,483,865,231
93099733,10577,-0.0708,-0.1245,1.0156,0.3052,-0.6104,-0.2441,1,492,878,231
93104727,10578,-0.0703,-0.1260,1.0146,0.2441,-0.4272,-0.1831,1,466,876,231
93109727,10579,-0.0703,-0.1270,1.0142,0.3052,-0.3662,-0.0610,1,493,805,231
93114726,10580,-0.0718,-0.1265,1.0137,0.2441,-0.4272,-0.1221,1,491,798,231
93119731,10581,-0.0723,-0.1270,1.0127,0.1831,-0.4272,-0.2441,1,482,848,231
93124732,10582,-0.0728,-0.1270,1.0122,0.1221,-0.3662,-0.1831,1,479,855,231
93129731,10583,-0.0742,-0.1270,1.0122,0.2441,-0.4883,-0.1221,1,490,872,231
93134728,10584,-0.0742,-0.1284,1.0132,0.3052,-0.3662,-0.1221,1,485,852,231
93139725,10585,-0.0737,-0.1279,1.0137,0.1831,-0.3662,-0.0610,1,489,848,231
93144728,10586,-0.0747,-0.1265,1.0127,0.2441,-0.5493,-0.1221,1,466,881,231
93149730,10587,-0.0742,-0.1270,1.0107,0.3052,-0.4883,-0.1831,1,484,879,231
93154725,10588,-0.0737,-0.1289,1.0107,0.5493,-0.5493,-0.1831,1,466,877,231
93159725,10589,-0.0732,-0.1294,1.0112,0.4272,-0.6104,-0.2441,1,484,877,231
93164726,10590,-0.0728,-0.1289,1.0127,0.3052,-0.6714,-0.3052,1,467,910,231
93169731,10591,-0.0723,-0.1289,1.0137,0.4883,-0.6104,-0.2441,1,473,861,231
93174730,10592,-0.0718,-0.1299,1.0127,0.3662,-0.5493,-0.1221,1,473,874,231
93179732,10593,-0.0703,-0.1294,1.0137,0.4883,-0.8545,-0.2441,1,482,875,231
93184729,10594,-0.0684,-0.1270,1.0166,0.4883,-0.9155,-0.3052,1,465,859,231
93189730,10595,-0.0688,-0.1255,1.0181,0.2441,-0.7324,-0.2441,1,470,858,231
93194730,10596,-0.0703,-0.1255,1.0161,0.3052,-0.6714,-0.1831,1,483,864,231
93199731,10597,-0.0718,-0.1265,1.0137,0.3052,-0.7324,-0.3052,1,492,875,231
93204727,10598,-0.0728,-0.1265,1.0117,0.2441,-0.7324,-0.2441,1,466,869,231
93209732,10599,-0.0713,-0.1265,1.0132,0.0610,-0.6714,-0.1831,1,493,817,231
93214728,10600,-0.0693,-0.1265,1.0151,0.1221,-0.7324,-0.1221,1,491,856,231
93219733,10601,-0.0684,-0.1255,1.0161,0.1221,-0.6104,-0.1831,1,486,850,231
93224733,10602,-0.0674,-0.1245,1.0171,0.0000,-0.5493,-0.1831,1,486,846,231
93229729,10603,-0.0688,-0.1240,1.0171,-0.0610,-0.4883,-0.2441,1,477,806,231
93234728,10604,-0.0708,-0.1260,1.0151,0.0000,-0.4883,-0.0610,1,490,848,231
93239726,10605,-0.0718,-0.1270,1.0132,0.0000,-0.5493,0.0000,1,493,802,231
93244733,10606,-0.0713,-0.1274,1.0127,-0.0610,-0.5493,-0.0610,1,465,783,231
93249732,10607,-0.0713,-0.1279,1.0122,0.0000,-0.5493,-0.1831,1,483,876,231
93254731,10608,-0.0713,-0.1284,1.0117,0.0000,-0.4883,-0.2441,1,465,829,231
93259728,10609,-0.0713,-0.1274,1.0127,-0.0610,-0.4883,-0.1221,1,484,788,231
93264726,10610,-0.0723,-0.1265,1.0137,0.0610,-0.3052,-0.1221,1,469,899,231
93269733,10611,-0.0723,-0.1265,1.0146,0.0610,-0.3662,-0.1221,1,477,859,231
93274732,10612,-0.0713,-0.1274,1.0132,0.1221,-0.6104,-0.0610,1,477,873,231
93279731,10613,-0.0703,-0.1274,1.0122,0.1221,-0.6714,-0.0610,1,465,870,231
93284727,10614,-0.0703,-0.1265,1.0127,0.0610,-0.6104,-0.2441,1,474,859,231
93289725,10615,-0.0698,-0.1265,1.0146,0.0610,-0.7324,-0.2441,1,479,855,231
93294729,10616,-0.0698,-0.1270,1.0151,0.0610,-0.6714,-0.2441,1,466,864,231
93299728,10617,-0.0688,-0.1265,1.0151,0.1221,-0.6714,-0.0610,1,492,879,231
93304725,10618,-0.0684,-0.1250,1.0146,-0.0610,-0.7324,-0.1221,1,468,874,231
93309733,10619,-0.0684,-0.1245,1.0151,-0.1221,-0.5493,-0.0610,1,494,804,231
93314733,10620,-0.0693,-0.1255,1.0161,-0.2441,-0.5493,-0.1831,1,485,873,231
93319728,10621,-0.0693,-0.1260,1.0161,-0.3052,-0.4272,-0.1221,1,473,859,231
93324731,10622,-0.0693,-0.1260,1.0142,-0.3662,-0.6104,-0.1221,1,476,849,231
93329728,10623,-0.0698,-0.1270,1.0132,-0.4272,-0.6714,-0.0610,1,480,867,231
93334730,10624,-0.0698,-0.1265,1.0146,-0.5493,-0.4883,0.0000,1,473,850,231
93339728,10625,-0.0693,-0.1260,1.0161,-0.4883,-0.5493,0.0000,1,474,808,231
93344746,10626,-0.0679,-0.1255,1.0156,-0.6714,-0.6714,-0.1221,1,493,808,231
93349733,10627,-0.0679,-0.1265,1.0137,-0.7324,-0.6104,-0.0610,1,466,873,231
93354733,10628,-0.0693,-0.1265,1.0127,-0.7324,-0.5493,-0.1831,1,483,873,231
93359728,10629,-0.0703,-0.1265,1.0127,-0.7324,-0.5493,-0.1831,1,465,874,231
93364725,10630,-0.0693,-0.1274,1.0132,-0.7935,-0.7324,-0.0610,1,484,816,231
93369727,10631,-0.0679,-0.1274,1.0142,-0.8545,-0.6104,-0.1831,1,482,909,231
93374726,10632,-0.0679,-0.1270,1.0132,-0.6104,-0.6104,-0.1831,1,465,866,231
93379725,10633,-0.0688,-0.1274,1.0107,-0.6714,-0.6104,-0.1831,1,469,863,231
93384729,10634,-0.0703,-0.1284,1.0093,-0.5493,-0.6714,-0.2441,1,473,878,231
93389728,10635,-0.0698,-0.1289,1.0117,-0.5493,-0.6104,-0.2441,1,472,863,231
93394733,10636,-0.0669,-0.1279,1.0151,-0.5493,-0.6714,-0.2441,1,471,868,231
93399727,10637,-0.0649,-0.1274,1.0161,-0.6104,-0.4883,-0.3662,1,483,867,231
93404734,10638,-0.0654,-0.1279,1.0156,-0.6104,-0.4272,-0.1831,1,466,863,231
93409725,10639,-0.0669,-0.1279,1.0156,-0.6104,-0.3662,-0.1831,1,466,882,231
93414727,10640,-0.0684,-0.1274,1.0151,-0.5493,-0.3052,-0.2441,1,494,881,231
93419731,10641,-0.0684,-0.1284,1.0132,-0.5493,-0.4272,-0.1221,1,466,808,231
93424727,10642,-0.0674,-0.1289,1.0112,-0.4883,-0.3052,-0.1221,1,492,813,231
93429727,10643,-0.0669,-0.1279,1.0107,-0.4272,-0.3662,-0.1221,1,472,846,231
93434731,10644,-0.0664,-0.1279,1.0122,-0.4883,-0.2441,-0.1831,1,481,852,231
93439727,10645,-0.0669,-0.1279,1.0146,-0.2441,-0.1221,-0.2441,1,483,859,231
93444725,10646,-0.0674,-0.1274,1.0146,-0.3662,-0.1831,-0.2441,1,473,856,231
93449730,10647,-0.0679,-0.1279,1.0117,-0.4272,-0.0610,-0.1221,1,493,859,231
93454731,10648,-0.0703,-0.1294,1.0093,-0.4272,-0.1831,-0.1831,1,466,877,231
93459728,10649,-0.0718,-0.1299,1.0088,-0.3052,-0.2441,-0.0610,1,483,878,231
93464725,10650,-0.0708,-0.1289,1.0098,-0.1221,-0.3662,-0.1221,1,466,860,231
93469730,10651,-0.0669,-0.1289,1.0142,-0.1221,-0.4883,-0.1831,1,484,863,231
93474731,10652,-0.0645,-0.1274,1.0161,-0.3052,-0.3052,-0.1221,1,466,904,231
93479734,10653,-0.0654,-0.1274,1.0142,-0.4272,-0.2441,0.0000,1,483,862,231
93484730,10654,-0.0684,-0.1289,1.0117,-0.1831,-0.3662,-0.1221,1,465,829,231
93489730,10655,-0.0698,-0.1304,1.0098,-0.1221,-0.1831,-0.1831,1,474,881,231
93494733,10656,-0.0688,-0.1304,1.0107,-0.1221,-0.2441,-0.3052,1,476,858,231
93499731,10657,-0.0674,-0.1313,1.0122,0.0000,-0.1831,-0.1831,1,476,855,231
93504750,10658,-0.0674,-0.1313,1.0122,0.1831,-0.3052,-0.1831,1,483,820,231
93509730,10659,-0.0703,-0.1299,1.0093,0.3052,-0.2441,-0.3052,1,483,864,231
93514728,10660,-0.0747,-0.1299,1.0039,0.2441,-0.2441,-0.4272,1,466,868,231
93519730,10661,-0.0742,-0.1309,1.0044,0.3052,-0.7324,-0.4272,1,494,884,231
93524731,10662,-0.0679,-0.1294,1.0093,0.5493,-0.7935,-0.4883,1,464,800,231
93529728,10663,-0.0635,-0.1284,1.0137,0.4883,-0.7324,-0.4272,1,484,858,231
93534728,10664,-0.0635,-0.1284,1.0161,0.3662,-0.6104,-0.3052,1,475,853,231
93539725,10665,-0.0664,-0.1279,1.0146,0.4272,-0.6104,-0.3662,1,487,848,231
93544728,10666,-0.0684,-0.1270,1.0132,0.4272,-0.7324,-0.3052,1,478,856,231
93549730,10667,-0.0674,-0.1265,1.0151,0.3052,-0.9155,-0.2441,1,487,849,231
93554733,10668,-0.0654,-0.1274,1.0181,0.1831,-0.7324,-0.1831,1,493,850,231
93559731,10669,-0.0654,-0.1289,1.0176,0.3052,-0.5493,-0.1221,1,493,857,231
93564733,10670,-0.0698,-0.1289,1.0117,0.3052,-0.6104,-0.1221,1,484,876,231
93569725,10671,-0.0747,-0.1284,1.0063,0.1831,-0.7324,-0.1831,1,469,865,231
93574734,10672,-0.0742,-0.1299,1.0059,0.3052,-1.1597,-0.2441,1,465,838,231
93579733,10673,-0.0684,-0.1313,1.0093,0.4272,-1.1597,-0.3052,1,465,932,231
93584729,10674,-0.0640,-0.1284,1.0142,0.4883,-1.1597,-0.1831,1,474,864,231
93589729,10675,-0.0630,-0.1270,1.0166,0.3662,-0.9766,-0.1221,1,465,880,231
93594730,10676,-0.0645,-0.1270,1.0161,0.3662,-0.9155,-0.1221,1,472,858,231
93599733,10677,-0.0654,-0.1284,1.0142,0.3662,-0.9766,-0.1831,1,480,863,231
93604760,10678,-0.0635,-0.1304,1.0146,0.2441,-0.9155,-0.1831,1,484,864,231
93609726,10679,-0.0620,-0.1304,1.0156,0.3662,-0.7324,-0.1831,1,483,864,231
93614725,10680,-0.0635,-0.1294,1.0151,0.3662,-0.8545,-0.2441,1,466,881,231
93619731,10681,-0.0659,-0.1284,1.0156,0.4272,-0.7935,-0.1221,1,494,880,231
93624730,10682,-0.0664,-0.1294,1.0161,0.5493,-0.9155,-0.1831,1,475,778,231
93629726,10683,-0.0649,-0.1294,1.0156,0.5493,-0.8545,-0.3052,1,478,868,231
93634733,10684,-0.0649,-0.1289,1.0146,0.5493,-0.7935,-0.2441,1,473,849,231
93639726,10685,-0.0645,-0.1294,1.0151,0.4883,-0.7935,-0.1221,1,480,880,231
93644726,10686,-0.0640,-0.1294,1.0156,0.5493,-0.7324,-0.1831,1,478,845,231
93649728,10687,-0.0645,-0.1279,1.0161,0.6714,-0.6104,-0.1831,1,486,855,231
93654730,10688,-0.0654,-0.1270,1.0166,0.6714,-0.5493,0.0000,1,466,851,231
93659727,10689,-0.0649,-0.1274,1.0156,0.4883,-0.5493,-0.0610,1,465,809,231
93664732,10690,-0.0645,-0.1270,1.0156,0.4883,-0.4883,-0.0610,1,465,882,231
93669732,10691,-0.0635,-0.1250,1.0176,0.4272,-0.4883,-0.1831,1,484,864,231
93674732,10692,-0.0625,-0.1245,1.0181,0.3662,-0.3662,-0.0610,1,465,905,231
93679733,10693,-0.0625,-0.1265,1.0161,0.4272,-0.1831,0.0000,1,472,867,231
93684732,10694,-0.0640,-0.1279,1.0142,0.3662,-0.1221,-0.0610,1,479,833,231
93689731,10695,-0.0659,-0.1284,1.0127,0.3052,-0.1221,-0.1221,1,466,874,231
93694727,10696,-0.0664,-0.1289,1.0127,0.3662,-0.3662,0.0610,1,472,855,231
93699730,10697,-0.0635,-0.1289,1.0151,0.2441,-0.3052,0.0610,1,479,864,231
93704725,10698,-0.0615,-0.1279,1.0181,0.3052,-0.2441,0.1221,1,484,859,231
93709730,10699,-0.0615,-0.1265,1.0176,0.2441,0.0000,0.0000,1,493,873,231
93714730,10700,-0.0635,-0.1265,1.0151,0.0610,0.0610,-0.1221,1,468,769,231
93719726,10701,-0.0645,-0.1274,1.0132,0.2441,0.0610,-0.0610,1,493,793,231
93724725,10702,-0.0635,-0.1274,1.0137,0.3052,0.0000,0.0000,1,491,802,231
93729731,10703,-0.0640,-0.1270,1.0142,0.1831,-0.1221,-0.1221,1,475,782,231
93734732,10704,-0.0649,-0.1265,1.0156,0.1831,0.0000,-0.0610,1,477,844,231
93739727,10705,-0.0635,-0.1284,1.0176,0.1221,0.0000,-0.0610,1,485,806,231
93744727,10706,-0.0625,-0.1289,1.0181,0.2441,0.0610,-0.1221,1,471,800,231
93749729,10707,-0.0649,-0.1265,1.0161,0.1221,0.1221,-0.1221,1,477,846,231
93754744,10708,-0.0674,-0.1245,1.0127,0.1221,0.0000,0.0000,1,493,844,231
93759732,10709,-0.0679,-0.1245,1.0117,0.0610,0.1221,-0.1221,1,493,743,231
93764727,10710,-0.0669,-0.1255,1.0137,0.1221,0.1831,-0.1221,1,483,873,231
93769728,10711,-0.0645,-0.1270,1.0161,0.0610,0.1221,-0.1221,1,475,862,231
93774733,10712,-0.0635,-0.1284,1.0166,0.1221,0.0610,-0.0610,1,465,871,231
93779725,10713,-0.0630,-0.1279,1.0146,0.1221,0.1831,-0.1221,1,477,901,231
93784728,10714,-0.0630,-0.1270,1.0151,0.2441,0.0610,-0.1221,1,467,867,231
93789729,10715,-0.0625,-0.1274,1.0156,0.2441,0.0000,-0.1221,1,469,867,231
93794732,10716,-0.0620,-0.1274,1.0142,0.0610,0.1831,-0.0610,1,471,816,231
93799728,10717,-0.0620,-0.1265,1.0142,0.0000,0.3052,-0.1221,1,472,861,231
93804730,10718,-0.0630,-0.1270,1.0151,0.0000,0.1831,-0.2441,1,475,806,231
93809730,10719,-0.0645,-0.1279,1.0156,0.0000,0.2441,-0.1831,1,483,819,231
93814733,10720,-0.0654,-0.1279,1.0151,0.0610,0.1831,-0.1831,1,492,838,231
93819733,10721,-0.0640,-0.1284,1.0117,0.0610,0.2441,-0.1831,1,466,884,231
93824733,10722,-0.0635,-0.1274,1.0132,0.0000,0.3662,-0.1831,1,494,881,231
93829731,10723,-0.0630,-0.1274,1.0146,0.0610,0.4883,-0.1221,1,466,807,231
93834730,10724,-0.0625,-0.1284,1.0146,0.0610,0.4883,-0.2441,1,488,847,231
93839728,10725,-0.0640,-0.1294,1.0137,0.1221,0.5493,-0.1831,1,478,852,231
93844728,10726,-0.0654,-0.1299,1.0132,0.3052,0.4883,-0.1831,1,489,870,231
93849727,10727,-0.0649,-0.1299,1.0132,0.0610,0.5493,-0.2441,1,482,847,231
93854730,10728,-0.0645,-0.1289,1.0132,0.2441,0.5493,-0.2441,1,489,851,231
93859728,10729,-0.0649,-0.1265,1.0142,0.1831,0.6104,-0.1831,1,466,855,231
93864727,10730,-0.0649,-0.1265,1.0142,0.3052,0.5493,-0.1221,1,483,877,231
93869729,10731,-0.0659,-0.1279,1.0117,0.2441,0.6714,-0.1831,1,466,863,231
93874727,10732,-0.0669,-0.1284,1.0098,0.3052,0.6104,-0.1831,1,484,875,231
93879728,10733,-0.0674,-0.1274,1.0117,0.3662,0.6104,-0.1221,1,469,898,231
93884731,10734,-0.0659,-0.1265,1.0146,0.4883,0.4272,-0.2441,1,475,867,231
93889733,10735,-0.0640,-0.1260,1.0151,0.3052,0.6104,-0.2441,1,479,873,231
93894725,10736,-0.0640,-0.1270,1.0132,0.1831,0.6714,-0.3052,1,481,874,231
93899728,10737,-0.0649,-0.1284,1.0117,0.3052,0.5493,-0.2441,1,477,857,231
93904732,10738,-0.0645,-0.1274,1.0122,0.3662,0.4883,-0.1831,1,475,865,231
93909732,10739,-0.0635,-0.1250,1.0146,0.3662,0.6714,-0.2441,1,483,866,231
93914727,10740,-0.0635,-0.1255,1.0176,0.2441,0.8545,-0.2441,1,466,861,231
93919729,10741,-0.0645,-0.1279,1.0166,0.2441,0.7935,-0.1831,1,466,878,231
93924725,10742,-0.0664,-0.1294,1.0137,0.3662,0.7935,-0.1831,1,494,882,231
93929728,10743,-0.0664,-0.1274,1.0132,0.4272,0.7935,-0.1831,1,481,806,231
93934733,10744,-0.0640,-0.1245,1.0156,0.2441,0.9155,-0.1831,1,478,864,231
93939732,10745,-0.0625,-0.1255,1.0171,0.1831,0.9766,-0.2441,1,483,857,231
93944730,10746,-0.0635,-0.1270,1.0166,0.1831,0.9155,-0.2441,1,471,868,231
93949728,10747,-0.0654,-0.1260,1.0161,0.1831,0.8545,-0.1831,1,484,856,231
93954733,10748,-0.0664,-0.1240,1.0161,0.1221,0.9155,-0.2441,1,471,855,231
93959749,10749,-0.0649,-0.1245,1.0156,0.0610,1.0376,-0.1221,1,493,853,231
93964729,10750,-0.0635,-0.1265,1.0166,0.1221,0.9155,-0.0610,1,493,848,231
93969729,10751,-0.0630,-0.1270,1.0176,-0.0610,1.0986,-0.2441,1,465,874,231
93974726,10752,-0.0625,-0.1255,1.0181,-0.0610,1.2817,-0.1831,1,481,868,231
93979726,10753,-0.0635,-0.1255,1.0176,-0.1221,1.4038,-0.1831,1,465,876,231
93984731,10754,-0.0654,-0.1265,1.0166,-0.0610,1.4648,-0.1831,1,479,930,231
93989729,10755,-0.0645,-0.1265,1.0171,-0.1831,1.5259,-0.1221,1,476,873,231
93994733,10756,-0.0620,-0.1255,1.0181,-0.4272,1.6479,-0.1221,1,482,863,231
93999732,10757,-0.0625,-0.1260,1.0176,-0.5493,1.8311,-0.0610,1,481,875,231
94004725,10758,-0.0664,-0.1270,1.0146,-0.4883,1.7700,0.0000,1,465,859,231
94009726,10759,-0.0693,-0.1270,1.0117,-0.4883,1.5259,-0.0610,1,483,816,231
94014731,10760,-0.0688,-0.1270,1.0107,-0.4883,1.4648,-0.1831,1,466,860,231
94019734,10761,-0.0669,-0.1270,1.0127,-0.4883,1.5869,-0.1831,1,492,883,231
94024732,10762,-0.0669,-0.1279,1.0132,-0.3662,1.7090,-0.1831,1,466,881,231
94029726,10763,-0.0708,-0.1289,1.0088,-0.4272,1.5869,-0.1831,1,493,881,231
94034727,10764,-0.0732,-0.1299,1.0044,-0.4272,1.0986,-0.1831,1,466,835,231
94039733,10765,-0.0718,-0.1309,1.0049,-0.0610,0.9155,-0.1831,1,476,853,231
94044730,10766,-0.0693,-0.1299,1.0088,-0.0610,0.7935,-0.2441,1,481,845,231
94049729,10767,-0.0664,-0.1284,1.0142,-0.0610,0.7324,-0.1831,1,490,869,231
94054733,10768,-0.0645,-0.1260,1.0171,-0.0610,0.6714,-0.3052,1,483,855,231
94059732,10769,-0.0659,-0.1245,1.0161,-0.1221,0.8545,-0.2441,1,483,841,231
94064726,10770,-0.0684,-0.1255,1.0142,-0.3052,0.7324,-0.2441,1,493,853,231
94069726,10771,-0.0688,-0.1265,1.0137,-0.2441,0.6104,-0.2441,1,484,874,231
94074729,10772,-0.0674,-0.1260,1.0146,-0.2441,0.5493,-0.2441,1,466,880,231
94079727,10773,-0.0654,-0.1250,1.0156,-0.3052,0.6104,-0.3052,1,484,876,231
94084731,10774,-0.0654,-0.1250,1.0161,-0.4883,0.7324,-0.4272,1,466,897,231
94089725,10775,-0.0654,-0.1250,1.0161,-0.5493,0.6104,-0.3052,1,470,872,231
94094730,10776,-0.0649,-0.1265,1.0156,-0.6104,0.5493,-0.1831,1,480,874,231
94099728,10777,-0.0659,-0.1270,1.0146,-0.6104,0.6104,-0.3052,1,481,880,231
94104728,10778,-0.0669,-0.1265,1.0137,-0.6104,0.6714,-0.3662,1,465,855,231
94109728,10779,-0.0684,-0.1279,1.0132,-0.6714,0.6714,-0.3662,1,468,857,231
94114726,10780,-0.0693,-0.1304,1.0127,-0.6714,0.7324,-0.3052,1,483,861,231
94119727,10781,-0.0688,-0.1309,1.0132,-0.5493,0.9155,-0.3052,1,466,873,231
94124725,10782,-0.0679,-0.1279,1.0151,-0.6104,0.9155,-0.2441,1,466,876,231
94129732,10783,-0.0674,-0.1260,1.0151,-0.7324,0.9155,-0.3052,1,494,880,231
94134729,10784,-0.0669,-0.1270,1.0142,-0.6714,0.9766,-0.3052,1,494,809,231
94139733,10785,-0.0679,-0.1299,1.0122,-0.7935,0.9155,-0.4272,1,489,852,231
94144727,10786,-0.0703,-0.1328,1.0093,-0.6104,0.7324,-0.3662,1,472,853,231
94149727,10787,-0.0718,-0.1348,1.0073,-0.4272,0.6714,-0.3662,1,488,849,231
94154728,10788,-0.0703,-0.1328,1.0078,-0.2441,0.4272,-0.3052,1,474,850,231
94159727,10789,-0.0679,-0.1294,1.0122,-0.1831,0.2441,-0.3662,1,481,852,231
94164730,10790,-0.0645,-0.1279,1.0151,-0.3052,0.3662,-0.3052,1,479,855,231
94169727,10791,-0.0630,-0.1289,1.0146,-0.3662,0.4883,-0.3662,1,493,848,231
94174734,10792,-0.0649,-0.1299,1.0132,-0.2441,0.4883,-0.3662,1,483,884,231
94179732,10793,-0.0679,-0.1304,1.0132,-0.1831,0.6104,-0.4272,1,465,882,231
94184728,10794,-0.0693,-0.1294,1.0127,-0.1221,0.4272,-0.3662,1,484,863,231
94189732,10795,-0.0684,-0.1284,1.0137,0.0000,0.4272,-0.3052,1,474,906,231
94194728,10796,-0.0669,-0.1284,1.0151,0.0610,0.6104,-0.3662,1,474,828,231
94199728,10797,-0.0664,-0.1294,1.0142,0.1221,0.5493,-0.3662,1,482,876,231
94204728,10798,-0.0669,-0.1304,1.0112,0.1831,0.5493,-0.3662,1,467,879,231
94209727,10799,-0.0688,-0.1323,1.0098,0.3052,0.4272,-0.3662,1,474,865,231
94214733,10800,-0.0703,-0.1338,1.0088,0.4272,0.2441,-0.3052,1,478,862,231
94219732,10801,-0.0688,-0.1323,1.0088,0.5493,0.1221,-0.3052,1,484,855,231
94224726,10802,-0.0669,-0.1284,1.0107,0.6104,0.2441,-0.5493,1,466,874,231
94229730,10803,-0.0669,-0.1265,1.0127,0.6104,0.2441,-0.5493,1,466,881,231
94234728,10804,-0.0669,-0.1279,1.0132,0.6104,0.2441,-0.5493,1,479,877,231
94239730,10805,-0.0669,-0.1299,1.0142,0.6714,0.1831,-0.4272,1,464,804,231
94244729,10806,-0.0669,-0.1284,1.0151,0.6714,0.3052,-0.4883,1,480,860,231
94249725,10807,-0.0674,-0.1265,1.0146,0.5493,0.2441,-0.4883,1,490,848,231
94254732,10808,-0.0679,-0.1255,1.0142,0.4883,0.2441,-0.5493,1,483,874,231
94259729,10809,-0.0684,-0.1265,1.0146,0.3662,0.3052,-0.4272,1,485,849,231
94264726,10810,-0.0688,-0.1279,1.0151,0.3662,0.3662,-0.4272,1,490,850,231
94269747,10811,-0.0684,-0.1289,1.0142,0.3052,0.1831,-0.4883,1,493,859,231
94274728,10812,-0.0674,-0.1294,1.0132,0.3052,0.1221,-0.4272,1,494,848,231
94279725,10813,-0.0674,-0.1284,1.0122,0.3662,0.3052,-0.3052,1,484,871,231
94284729,10814,-0.0669,-0.1270,1.0122,0.3052,0.1831,-0.3052,1,480,866,231
94289730,10815,-0.0669,-0.1274,1.0137,0.4883,0.1831,-0.3662,1,465,874,231
94294726,10816,-0.0669,-0.1294,1.0146,0.4883,0.1221,-0.3662,1,482,909,231
94299729,10817,-0.0679,-0.1299,1.0142,0.4883,0.1221,-0.3052,1,467,866,231
94304730,10818,-0.0684,-0.1289,1.0146,0.4883,0.2441,-0.3052,1,469,858,231
94309732,10819,-0.0679,-0.1289,1.0142,0.4272,0.1831,-0.3052,1,472,878,231
94314726,10820,-0.0674,-0.1299,1.0122,0.4883,0.1831,-0.2441,1,473,861,231
94319729,10821,-0.0669,-0.1309,1.0117,0.5493,0.1831,-0.2441,1,479,864,231
94324731,10822,-0.0669,-0.1299,1.0127,0.6104,0.2441,-0.2441,1,483,864,231
94329733,10823,-0.0679,-0.1274,1.0142,0.4883,0.1831,-0.4272,1,466,876,231
94334729,10824,-0.0684,-0.1255,1.0142,0.6104,0.1831,-0.4272,1,493,880,231
94339730,10825,-0.0684,-0.1245,1.0132,0.6714,0.1831,-0.4272,1,483,877,231
94344725,10826,-0.0679,-0.1255,1.0127,0.4883,0.1831,-0.3662,1,465,776,231
94349732,10827,-0.0674,-0.1274,1.0132,0.6714,0.0610,-0.3052,1,482,860,231
94354731,10828,-0.0674,-0.1274,1.0122,0.4883,0.1221,-0.4272,1,483,845,231
94359727,10829,-0.0684,-0.1284,1.0112,0.4883,0.1221,-0.5493,1,473,852,231
94364727,10830,-0.0684,-0.1284,1.0117,0.6104,0.1221,-0.4883,1,483,878,231
94369734,10831,-0.0679,-0.1274,1.0146,0.4883,0.1831,-0.3662,1,481,846,231
94374735,10832,-0.0664,-0.1265,1.0166,0.4883,0.1221,-0.5493,1,477,855,231
94379733,10833,-0.0649,-0.1265,1.0171,0.5493,0.1221,-0.4883,1,493,851,231
94384734,10834,-0.0649,-0.1270,1.0171,0.5493,0.3052,-0.4272,1,483,873,231
94389726,10835,-0.0649,-0.1270,1.0171,0.4272,0.3662,-0.4272,1,465,866,231
94394732,10836,-0.0654,-0.1265,1.0181,0.3662,0.4272,-0.3662,1,484,871,231
94399725,10837,-0.0664,-0.1260,1.0176,0.4883,0.4883,-0.4272,1,472,909,231
94404728,10838,-0.0669,-0.1255,1.0151,0.2441,0.3662,-0.3662,1,465,868,231
94409726,10839,-0.0669,-0.1240,1.0146,0.1221,0.3052,-0.3052,1,467,882,231
94414727,10840,-0.0659,-0.1245,1.0151,0.0610,0.4272,-0.3052,1,474,869,231
94419733,10841,-0.0645,-0.1255,1.0161,0.0000,0.3662,-0.1221,1,479,862,231
94424729,10842,-0.0640,-0.1255,1.0166,-0.3052,0.5493,-0.1831,1,474,813,231
94429725,10843,-0.0654,-0.1270,1.0156,-0.3052,0.4272,-0.1831,1,483,861,231
94434733,10844,-0.0664,-0.1279,1.0151,-0.1831,0.4883,-0.1831,1,492,880,231
94439729,10845,-0.0664,-0.1270,1.0156,-0.1831,0.4883,-0.1831,1,493,885,231
94444730,10846,-0.0659,-0.1270,1.0151,-0.5493,0.6714,-0.2441,1,483,883,231
94449729,10847,-0.0664,-0.1279,1.0156,-0.1831,0.6714,-0.2441,1,465,809,231
94454730,10848,-0.0674,-0.1279,1.0151,-0.3662,0.7324,-0.3052,1,482,868,231
94459726,10849,-0.0693,-0.1274,1.0146,-0.3662,0.9155,-0.1831,1,490,853,231
94464730,10850,-0.0693,-0.1270,1.0142,-0.1221,0.7324,-0.1831,1,482,860,231
94469729,10851,-0.0693,-0.1270,1.0132,-0.3052,0.7324,-0.2441,1,478,851,231
94474727,10852,-0.0693,-0.1284,1.0127,0.0610,0.6104,-0.1831,1,488,850,231
94479749,10853,-0.0679,-0.1294,1.0132,0.1221,0.5493,-0.2441,1,493,850,231
94484733,10854,-0.0664,-0.1274,1.0146,-0.1221,0.6714,-0.2441,1,493,849,231
94489729,10855,-0.0659,-0.1260,1.0156,-0.3052,0.8545,-0.3662,1,484,883,231
94494732,10856,-0.0669,-0.1270,1.0166,-0.1831,0.7935,-0.1831,1,477,868,231
94499729,10857,-0.0669,-0.1284,1.0151,0.0000,0.7324,-0.2441,1,465,872,231
94504727,10858,-0.0674,-0.1294,1.0137,-0.2441,0.9766,-0.2441,1,465,829,231
94509727,10859,-0.0684,-0.1294,1.0142,-0.2441,0.8545,-0.2441,1,472,868,231
94514727,10860,-0.0684,-0.1294,1.0146,-0.2441,0.9766,-0.3052,1,475,869,231
94519733,10861,-0.0674,-0.1289,1.0151,-0.4272,1.1597,-0.2441,1,479,876,231
94524729,10862,-0.0664,-0.1270,1.0146,-0.1831,1.0376,-0.1221,1,477,868,231
94529733,10863,-0.0669,-0.1265,1.0156,-0.2441,1.1597,-0.1831,1,478,863,231
94534743,10864,-0.0669,-0.1284,1.0176,-0.4272,1.1597,-0.1831,1,484,863,231
94539727,10865,-0.0674,-0.1284,1.0166,-0.4883,1.2817,-0.1221,1,465,883,231
94544728,10866,-0.0679,-0.1274,1.0146,-0.3662,1.2817,-0.0610,1,493,881,231
94549729,10867,-0.0684,-0.1274,1.0146,-0.5493,1.3428,-0.1831,1,490,884,231
94554732,10868,-0.0698,-0.1279,1.0132,-0.4272,1.4648,-0.0610,1,464,783,231
94559733,10869,-0.0703,-0.1270,1.0117,-0.6104,1.4648,-0.0610,1,483,865,231
94564725,10870,-0.0693,-0.1270,1.0127,-0.4272,1.2207,-0.0610,1,492,850,231
94569725,10871,-0.0674,-0.1284,1.0137,-0.4883,1.2817,-0.1831,1,479,852,231
94574728,10872,-0.0664,-0.1279,1.0132,-0.6104,1.4038,0.0000,1,486,854,231
94579725,10873,-0.0669,-0.1274,1.0132,-0.7324,1.5259,0.0000,1,471,804,231
94584738,10874,-0.0664,-0.1274,1.0171,-0.4883,1.4038,-0.0610,1,492,805,231
94589732,10875,-0.0654,-0.1265,1.0215,-0.5493,1.5259,0.0000,1,466,848,231
94594729,10876,-0.0649,-0.1245,1.0239,-0.9766,1.7090,0.1831,1,483,834,231
94599726,10877,-0.0664,-0.1265,1.0205,-1.0986,2.0142,0.0000,1,475,871,231
94604726,10878,-0.0684,-0.1323,1.0151,-0.9766,2.0142,-0.1221,1,466,875,231
94609725,10879,-0.0703,-0.1333,1.0122,-0.6714,1.9531,-0.1221,1,467,930,231
94614725,10880,-0.0708,-0.1289,1.0127,-0.7935,2.0142,-0.0610,1,472,871,231
94619727,10881,-0.0723,-0.1274,1.0117,-0.8545,1.8311,0.0610,1,478,866,231
94624725,10882,-0.0786,-0.1318,1.0034,-0.6714,1.7700,0.0000,1,481,875,231
94629732,10883,-0.0850,-0.1372,0.9956,-0.3662,1.2817,-0.1221,1,466,816,231
94634731,10884,-0.0840,-0.1411,0.9966,0.1221,0.6714,-0.2441,1,481,865,231
94639757,10885,-0.0757,-0.1377,1.0049,0.4883,0.3662,-0.3052,1,466,857,231
94644728,10886,-0.0674,-0.1299,1.0146,0.5493,0.4883,-0.2441,1,466,870,231
94649726,10887,-0.0649,-0.1250,1.0195,0.3662,0.7324,-0.1831,1,465,881,231
94654728,10888,-0.0688,-0.1255,1.0166,0.3052,0.7324,-0.1831,1,494,882,231
94659733,10889,-0.0728,-0.1289,1.0127,0.2441,0.6714,-0.2441,1,470,827,231
94664730,10890,-0.0732,-0.1313,1.0122,0.3052,0.6104,-0.1831,1,474,863,231
94669731,10891,-0.0708,-0.1294,1.0142,0.3052,0.5493,-0.1831,1,476,851,231
94674726,10892,-0.0684,-0.1279,1.0161,0.2441,0.5493,-0.2441,1,485,848,231
94679730,10893,-0.0684,-0.1274,1.0161,0.3052,0.6104,-0.0610,1,477,859,231
94684726,10894,-0.0703,-0.1284,1.0146,0.2441,0.6714,-0.0610,1,482,844,231
94689730,10895,-0.0713,-0.1309,1.0122,0.3052,0.6104,0.0610,1,492,852,231
94694728,10896,-0.0708,-0.1304,1.0112,0.2441,0.5493,-0.0610,1,466,838,231
94699732,10897,-0.0693,-0.1294,1.0112,0.1831,0.4272,-0.0610,1,466,878,231
94704730,10898,-0.0688,-0.1289,1.0122,0.1831,0.4883,0.0000,1,484,871,231
94709732,10899,-0.0703,-0.1284,1.0117,0.2441,0.5493,-0.0610,1,465,879,231
94714729,10900,-0.0728,-0.1304,1.0122,0.4883,0.4272,-0.1221,1,473,923,231
94719731,10901,-0.0718,-0.1318,1.0132,0.7324,0.2441,-0.0610,1,477,864,231
94724727,10902,-0.0688,-0.1313,1.0137,0.3052,0.4883,-0.2441,1,481,869,231
94729725,10903,-0.0688,-0.1309,1.0156,0.3052,0.3052,-0.3052,1,466,861,231
94734730,10904,-0.0698,-0.1304,1.0166,0.4883,0.4272,-0.2441,1,472,851,231
94739733,10905,-0.0718,-0.1294,1.0161,0.5493,0.4883,-0.1831,1,484,863,231
94744730,10906,-0.0713,-0.1274,1.0156,0.4272,0.4272,-0.2441,1,466,862,231
94749725,10907,-0.0693,-0.1274,1.0142,0.4883,0.4883,-0.2441,1,466,885,231
94754725,10908,-0.0698,-0.1284,1.0127,0.4883,0.4883,-0.1221,1,466,880,231
94759729,10909,-0.0723,-0.1294,1.0103,0.4883,0.3662,-0.1831,1,494,875,231
94764728,10910,-0.0747,-0.1313,1.0093,0.5493,0.2441,-0.3052,1,478,803,231
94769730,10911,-0.0752,-0.1313,1.0098,0.5493,0.1221,-0.2441,1,482,861,231
94774726,10912,-0.0737,-0.1299,1.0107,0.6104,0.1221,-0.1831,1,488,849,231
94779729,10913,-0.0713,-0.1294,1.0112,0.7324,0.1221,-0.1221,1,482,867,231
94784727,10914,-0.0708,-0.1299,1.0122,0.7324,0.1221,-0.1221,1,486,846,231
94789728,10915,-0.0718,-0.1309,1.0132,0.7324,0.0000,-0.2441,1,472,846,231
94794730,10916,-0.0713,-0.1304,1.0127,0.7324,0.0000,-0.1831,1,493,801,231
94799731,10917,-0.0698,-0.1299,1.0122,0.7935,-0.0610,-0.2441,1,483,829,231
94804727,10918,-0.0693,-0.1299,1.0127,0.9155,-0.1831,-0.2441,1,466,878,231
94809727,10919,-0.0698,-0.1274,1.0137,0.7935,0.0610,-0.3052,1,484,874,231
94814730,10920,-0.0693,-0.1255,1.0151,0.7935,-0.0610,-0.3052,1,467,904,231
94819726,10921,-0.0693,-0.1255,1.0156,0.7935,0.0610,-0.3052,1,470,865,231
94824732,10922,-0.0688,-0.1270,1.0151,0.6714,0.1831,-0.2441,1,483,872,231
94829733,10923,-0.0698,-0.1279,1.0142,0.6714,0.0000,-0.3052,1,466,838,231
94834730,10924,-0.0713,-0.1284,1.0132,0.7324,-0.0610,-0.1831,1,469,813,231
94839730,10925,-0.0718,-0.1279,1.0146,0.6714,0.1221,-0.3052,1,474,863,231
94844740,10926,-0.0723,-0.1255,1.0166,0.6714,0.0610,-0.3662,1,483,855,231
94849734,10927,-0.0718,-0.1230,1.0166,0.6104,0.0000,-0.2441,1,465,877,231
94854729,10928,-0.0693,-0.1221,1.0156,0.5493,-0.0610,-0.2441,1,493,829,231
94859732,10929,-0.0679,-0.1235,1.0146,0.3052,0.0610,-0.1831,1,488,880,231
94864732,10930,-0.0688,-0.1250,1.0142,0.1831,0.3662,-0.2441,1,464,774,231
94869725,10931,-0.0708,-0.1260,1.0151,0.3662,0.3052,-0.3052,1,489,815,231
94874733,10932,-0.0723,-0.1265,1.0156,0.3662,0.3052,-0.3052,1,476,846,231
94879729,10933,-0.0718,-0.1274,1.0146,0.3052,0.2441,-0.3052,1,479,845,231
94884725,10934,-0.0698,-0.1284,1.0146,0.2441,0.3052,-0.3662,1,477,847,231
94889727,10935,-0.0679,-0.1270,1.0156,0.1831,0.3662,-0.2441,1,491,855,231
94894726,10936,-0.0669,-0.1245,1.0156,0.1221,0.4272,-0.1831,1,492,855,231
94899730,10937,-0.0674,-0.1245,1.0142,0.1221,0.4272,-0.1831,1,483,878,231
94904726,10938,-0.0693,-0.1260,1.0132,0.0610,0.4883,-0.1831,1,466,875,231
94909728,10939,-0.0703,-0.1270,1.0137,0.0610,0.4272,-0.2441,1,484,867,231
94914732,10940,-0.0708,-0.1265,1.0151,0.2441,0.2441,-0.1221,1,466,905,231
94919729,10941,-0.0703,-0.1260,1.0151,0.2441,0.5493,-0.2441,1,483,920,231
94924731,10942,-0.0698,-0.1260,1.0137,0.4272,0.6104,-0.3052,1,467,874,231
94929727,10943,-0.0713,-0.1265,1.0112,0.1831,0.4883,-0.3662,1,468,873,231
94934731,10944,-0.0728,-0.1270,1.0107,0.3052,0.3052,-0.4883,1,479,863,231
94939733,10945,-0.0737,-0.1274,1.0117,0.2441,0.1831,-0.3662,1,479,851,231
94944728,10946,-0.0713,-0.1279,1.0142,0.3662,0.2441,-0.3052,1,483,870,231
94949730,10947,-0.0684,-0.1279,1.0156,0.4883,0.3662,-0.3662,1,465,878,231
94954730,10948,-0.0679,-0.1279,1.0156,0.3662,0.4883,-0.3662,1,492,882,231
94959732,10949,-0.0688,-0.1279,1.0137,0.3662,0.5493,-0.2441,1,466,883,231
94964728,10950,-0.0713,-0.1274,1.0122,0.3662,0.5493,-0.1831,1,494,884,231
94969728,10951,-0.0732,-0.1265,1.0132,0.3052,0.3662,-0.3052,1,486,812,231
94974730,10952,-0.0723,-0.1255,1.0151,0.2441,0.3662,-0.3662,1,487,844,231
94979733,10953,-0.0698,-0.1260,1.0171,0.1831,0.5493,-0.1831,1,473,855,231
94984726,10954,-0.0688,-0.1274,1.0166,0.1831,0.4883,-0.1831,1,480,873,231
94989725,10955,-0.0703,-0.1279,1.0142,0.3052,0.4883,-0.1831,1,475,859,231
94994731,10956,-0.0723,-0.1274,1.0122,0.1831,0.4883,-0.1831,1,484,847,231
94999734,10957,-0.0718,-0.1270,1.0132,0.0610,0.6104,-0.3052,1,493,855,231
95004725,10958,-0.0708,-0.1274,1.0146,0.1221,0.7324,-0.1831,1,510,838,231
95009733,10959,-0.0703,-0.1274,1.0146,0.1221,0.5493,-0.1831,1,473,872,231
95014731,10960,-0.0703,-0.1284,1.0137,0.0000,0.6104,-0.2441,1,483,818,231
95019732,10961,-0.0713,-0.1284,1.0127,0.1831,0.5493,-0.1831,1,482,821,231
95024729,10962,-0.0728,-0.1265,1.0137,0.1221,0.5493,-0.1831,1,466,874,231
95029728,10963,-0.0728,-0.1255,1.0142,0.1831,0.7935,-0.1221,1,475,867,231
95034733,10964,-0.0713,-0.1260,1.0142,0.1221,0.5493,-0.1221,1,480,873,231
95039725,10965,-0.0713,-0.1265,1.0142,0.0000,0.5493,-0.1221,1,482,854,231
95044727,10966,-0.0718,-0.1260,1.0132,0.0000,0.5493,-0.1221,1,483,812,231
95049754,10967,-0.0718,-0.1245,1.0122,0.0000,0.6104,-0.2441,1,466,810,231
95054725,10968,-0.0718,-0.1245,1.0132,-0.0610,0.7324,-0.2441,1,466,835,231
95059728,10969,-0.0708,-0.1250,1.0151,-0.0610,0.7324,-0.1831,1,466,877,231
95064732,10970,-0.0698,-0.1255,1.0156,-0.0610,0.7324,-0.0610,1,494,878,231
95069727,10971,-0.0688,-0.1260,1.0151,-0.1831,0.8545,-0.0610,1,468,803,231
95074725,10972,-0.0688,-0.1255,1.0142,-0.1831,0.6714,-0.1831,1,477,863,231
95079728,10973,-0.0693,-0.1270,1.0146,-0.3052,0.7935,-0.0610,1,488,854,231
95084729,10974,-0.0698,-0.1284,1.0156,-0.2441,0.7935,-0.1221,1,477,868,231
95089731,10975,-0.0698,-0.1270,1.0166,-0.1831,0.9155,-0.0610,1,488,853,231
95094733,10976,-0.0693,-0.1250,1.0171,-0.1831,0.9766,-0.1221,1,472,854,231
95099733,10977,-0.0693,-0.1245,1.0161,-0.4272,0.9155,-0.1221,1,493,844,231
95104731,10978,-0.0703,-0.1265,1.0146,-0.3662,1.0376,-0.0610,1,511,854,231
95109729,10979,-0.0698,-0.1274,1.0146,-0.3662,1.2207,0.0000,1,465,867,231
95114732,10980,-0.0688,-0.1270,1.0146,-0.3662,1.2817,0.0610,1,484,840,231
95119728,10981,-0.0693,-0.1265,1.0117,-0.3052,1.3428,0.0000,1,482,912,231
95124726,10982,-0.0757,-0.1270,1.0063,-0.4272,1.3428,-0.1221,1,470,823,231
95129727,10983,-0.0815,-0.1289,1.0044,-0.1831,0.9766,-0.0610,1,481,865,231
95134729,10984,-0.0791,-0.1309,1.0078,-0.1831,0.6714,-0.1221,1,466,859,231
95139732,10985,-0.0732,-0.1304,1.0127,-0.0610,0.6104,-0.1831,1,467,856,231
95144725,10986,-0.0693,-0.1289,1.0151,-0.0610,0.6714,0.0000,1,484,855,231
95149725,10987,-0.0698,-0.1274,1.0151,0.0000,0.6714,-0.0610,1,466,833,231
95154730,10988,-0.0723,-0.1274,1.0137,0.0000,0.5493,-0.0610,1,466,834,231
95159726,10989,-0.0742,-0.1279,1.0132,0.0610,0.6104,-0.1221,1,466,755,231
95164726,10990,-0.0732,-0.1284,1.0132,0.1831,0.5493,-0.0610,1,494,871,231
95169733,10991,-0.0713,-0.1274,1.0137,0.1221,0.4883,0.0000,1,473,779,231
95174733,10992,-0.0713,-0.1265,1.0137,0.2441,0.5493,-0.0610,1,490,801,231
95179731,10993,-0.0718,-0.1265,1.0142,0.1831,0.4272,0.0000,1,481,849,231
95184730,10994,-0.0718,-0.1245,1.0142,-0.0610,0.5493,0.0000,1,474,804,231
95189726,10995,-0.0723,-0.1240,1.0146,-0.0610,0.5493,0.0000,1,486,803,231
95194726,10996,-0.0728,-0.1250,1.0146,-0.0610,0.6104,-0.0610,1,476,803,231
95199726,10997,-0.0737,-0.1270,1.0122,-0.0610,0.5493,-0.0610,1,493,841,231
95204728,10998,-0.0747,-0.1284,1.0103,0.0000,0.5493,-0.0610,1,510,852,231
95209725,10999,-0.0747,-0.1289,1.0098,0.0610,0.6104,-0.1831,1,467,822,231
95214726,11000,-0.0737,-0.1294,1.0093,0.0610,0.4272,-0.1831,1,465,828,231
95219730,11001,-0.0723,-0.1289,1.0103,0.2441,0.3662,-0.1831,1,465,919,231
95224726,11002,-0.0723,-0.1270,1.0127,0.1831,0.4883,-0.1831,1,467,872,231
95229732,11003,-0.0728,-0.1250,1.0146,0.1831,0.6104,-0.1221,1,479,869,231
95234728,11004,-0.0732,-0.1260,1.0146,0.1221,0.4883,-0.1221,1,479,872,231
95239731,11005,-0.0737,-0.1274,1.0137,0.1221,0.4883,-0.1831,1,469,856,231
95244727,11006,-0.0742,-0.1279,1.0127,0.1221,0.4272,-0.1221,1,484,862,231
95249759,11007,-0.0737,-0.1279,1.0112,0.2441,0.2441,0.0000,1,466,876,231
95254731,11008,-0.0728,-0.1279,1.0107,0.3662,0.3052,-0.1221,1,466,842,231
95259729,11009,-0.0732,-0.1279,1.0112,0.3052,0.1831,-0.1221,1,466,875,231
95264732,11010,-0.0728,-0.1289,1.0117,0.3662,0.2441,-0.1221,1,494,877,231
95269726,11011,-0.0718,-0.1299,1.0122,0.3052,0.1831,-0.0610,1,471,777,231
95274727,11012,-0.0718,-0.1299,1.0132,0.4883,0.3052,0.0000,1,480,847,231
95279726,11013,-0.0732,-0.1279,1.0146,0.4883,0.2441,-0.1221,1,488,797,231
95284729,11014,-0.0728,-0.1260,1.0176,0.4883,0.1831,0.0000,1,476,873,231
95289732,11015,-0.0708,-0.1245,1.0210,0.1221,0.3052,-0.1221,1,485,803,231
95294727,11016,-0.0698,-0.1245,1.0205,0.0000,0.5493,-0.1221,1,491,839,231
95299730,11017,-0.0708,-0.1270,1.0171,0.2441,0.6104,-0.0610,1,493,805,231
95304725,11018,-0.0732,-0.1284,1.0137,0.2441,0.3662,-0.0610,1,483,871,231
95309725,11019,-0.0747,-0.1274,1.0127,0.1221,0.3052,-0.1221,1,466,871,231
95314727,11020,-0.0757,-0.1284,1.0103,0.1831,0.3662,-0.0610,1,484,815,231
95319727,11021,-0.0732,-0.1284,1.0107,0.4272,0.1831,-0.0610,1,473,906,231
95324731,11022,-0.0688,-0.1250,1.0166,0.1831,0.5493,-0.1221,1,479,872,231
95329733,11023,-0.0698,-0.1250,1.0176,0.1221,0.7324,-0.1831,1,479,877,231
95334726,11024,-0.0718,-0.1279,1.0142,0.2441,0.2441,-0.1831,1,480,876,231
95339726,11025,-0.0703,-0.1284,1.0142,0.1831,0.5493,-0.0610,1,472,866,231
95344732,11026,-0.0684,-0.1270,1.0181,0.2441,0.4883,-0.1221,1,471,862,231
95349733,11027,-0.0684,-0.1274,1.0190,0.0610,0.6714,-0.1831,1,483,855,231
95354730,11028,-0.0718,-0.1284,1.0171,0.1221,0.6714,-0.3052,1,466,881,231
95359733,11029,-0.0732,-0.1279,1.0151,0.1221,0.6104,-0.1831,1,492,869,231
95364725,11030,-0.0723,-0.1265,1.0146,0.0610,0.6104,-0.1221,1,469,878,231
95369729,11031,-0.0703,-0.1255,1.0156,0.0610,0.7324,-0.2441,1,466,796,231
95374734,11032,-0.0693,-0.1270,1.0166,-0.1221,0.7935,-0.1831,1,492,804,231
95379729,11033,-0.0703,-0.1284,1.0171,-0.1221,1.0376,-0.0610,1,490,861,231
95384732,11034,-0.0713,-0.1279,1.0156,-0.1831,1.0376,0.0000,1,483,843,231
95389726,11035,-0.0698,-0.1265,1.0142,-0.1221,0.9766,-0.0610,1,489,808,231
95394726,11036,-0.0684,-0.1255,1.0151,-0.1831,1.1597,0.0610,1,483,842,231
95399741,11037,-0.0693,-0.1250,1.0176,-0.2441,1.4038,0.0000,1,488,850,231
95404728,11038,-0.0703,-0.1250,1.0190,-0.4272,1.5259,0.0000,1,493,805,231
95409728,11039,-0.0708,-0.1255,1.0205,-0.4883,1.5869,0.0000,1,465,819,231
95414731,11040,-0.0713,-0.1255,1.0195,-0.4883,1.8311,0.0610,1,482,767,231
95419728,11041,-0.0718,-0.1265,1.0166,-0.5493,1.8921,0.1221,1,466,871,231
95424733,11042,-0.0723,-0.1284,1.0146,-0.6104,1.8921,0.0610,1,473,930,231
95429730,11043,-0.0737,-0.1289,1.0127,-0.6104,1.8921,-0.0610,1,472,864,231
95434726,11044,-0.0752,-0.1270,1.0122,-0.5493,1.8921,-0.0610,1,481,865,231
95439727,11045,-0.0747,-0.1245,1.0117,-0.5493,1.8921,0.0000,1,467,860,231
95444730,11046,-0.0742,-0.1240,1.0117,-0.5493,1.9531,-0.0610,1,468,820,231
95449733,11047,-0.0762,-0.1265,1.0117,-0.5493,1.7700,0.0000,1,484,866,231
95454749,11048,-0.0781,-0.1289,1.0107,-0.4883,1.6479,0.0610,1,466,814,231
95459730,11049,-0.0781,-0.1294,1.0107,-0.4883,1.7090,-0.0610,1,466,882,231
95464726,11050,-0.0747,-0.1279,1.0132,-0.4883,1.7090,0.0000,1,493,875,231
95469733,11051,-0.0723,-0.1260,1.0151,-0.5493,1.6479,-0.0610,1,494,833,231
95474729,11052,-0.0728,-0.1265,1.0156,-0.6714,1.6479,-0.0610,1,466,806,231
95479730,11053,-0.0737,-0.1284,1.0132,-0.6104,1.7090,-0.0610,1,482,858,231
95484728,11054,-0.0752,-0.1289,1.0107,-0.5493,1.6479,0.0000,1,471,847,231
95489732,11055,-0.0771,-0.1274,1.0103,-0.5493,1.5259,0.0000,1,485,810,231
95494732,11056,-0.0767,-0.1260,1.0117,-0.5493,1.5259,-0.0610,1,473,807,231
95499725,11057,-0.0747,-0.1265,1.0132,-0.5493,1.6479,-0.1221,1,483,851,231
95504733,11058,-0.0747,-0.1289,1.0122,-0.4883,1.5869,0.0610,1,493,851,231
95509730,11059,-0.0762,-0.1299,1.0112,-0.3662,1.5869,0.0610,1,510,854,231
95514730,11060,-0.0781,-0.1294,1.0112,-0.3052,1.4648,-0.0610,1,466,868,231
95519728,11061,-0.0786,-0.1294,1.0112,-0.3662,1.4038,-0.0610,1,484,867,231
95524729,11062,-0.0776,-0.1294,1.0107,-0.3052,1.5869,-0.1831,1,470,911,231
95529725,11063,-0.0762,-0.1284,1.0127,-0.3662,1.5259,-0.1831,1,477,870,231
95534729,11064,-0.0752,-0.1274,1.0151,-0.3662,1.4648,-0.0610,1,465,881,231
95539729,11065,-0.0747,-0.1274,1.0156,-0.3052,1.5869,0.0000,1,465,837,231
95544726,11066,-0.0747,-0.1274,1.0137,-0.4272,1.6479,-0.1221,1,469,819,231
95549731,11067,-0.0757,-0.1289,1.0103,-0.4883,1.8311,-0.1831,1,473,864,231
95554725,11068,-0.0781,-0.1323,1.0078,-0.3662,1.5869,-0.0610,1,484,858,231
95559732,11069,-0.0796,-0.1343,1.0078,-0.2441,1.3428,0.0000,1,466,884,231
95564729,11070,-0.0796,-0.1309,1.0103,-0.1221,1.4038,-0.1221,1,492,832,231
95569727,11071,-0.0801,-0.1270,1.0117,-0.1221,1.3428,-0.0610,1,469,866,231
95574733,11072,-0.0801,-0.1274,1.0107,-0.1221,1.0376,-0.1221,1,493,870,231
95579728,11073,-0.0776,-0.1294,1.0107,-0.1221,1.1597,-0.0610,1,464,862,231
95584726,11074,-0.0776,-0.1279,1.0117,0.0000,1.0986,-0.0610,1,489,847,231
95589725,11075,-0.0767,-0.1270,1.0132,-0.1221,1.2207,-0.1831,1,479,830,231
95594732,11076,-0.0762,-0.1279,1.0142,-0.1221,1.2817,-0.1831,1,489,869,231
95599727,11077,-0.0767,-0.1313,1.0127,-0.0610,1.3428,-0.0610,1,475,852,231
95604744,11078,-0.0767,-0.1338,1.0098,0.0000,1.2207,-0.1221,1,484,847,231
95609729,11079,-0.0776,-0.1323,1.0088,0.1831,1.0986,-0.1221,1,489,798,231
95614729,11080,-0.0786,-0.1294,1.0107,0.0000,1.1597,-0.0610,1,484,850,231
95619732,11081,-0.0791,-0.1279,1.0132,0.1221,1.2817,-0.0610,1,478,773,231
95624734,11082,-0.0786,-0.1299,1.0146,0.1221,1.2207,-0.3052,1,466,831,231
95629728,11083,-0.0776,-0.1323,1.0151,0.1831,1.2207,-0.2441,1,465,931,231
95634730,11084,-0.0786,-0.1309,1.0146,0.2441,1.2817,0.0000,1,476,877,231
95639733,11085,-0.0791,-0.1284,1.0127,0.1221,1.2817,-0.1221,1,479,792,231
95644731,11086,-0.0786,-0.1279,1.0103,0.0000,1.1597,-0.0610,1,481,875,231
95649730,11087,-0.0786,-0.1279,1.0103,0.0610,1.1597,-0.1221,1,467,813,231
95654726,11088,-0.0776,-0.1284,1.0127,0.1221,1.1597,-0.0610,1,483,857,231
95659749,11089,-0.0757,-0.1274,1.0146,0.1221,1.2817,-0.0610,1,466,877,231
95664730,11090,-0.0762,-0.1274,1.0156,0.1831,1.4038,0.0000,1,466,880,231
95669730,11091,-0.0776,-0.1294,1.0151,0.1221,1.5259,0.0000,1,466,781,231
95674726,11092,-0.0796,-0.1333,1.0117,0.0000,1.4648,-0.0610,1,494,830,231
95679726,11093,-0.0806,-0.1353,1.0078,0.2441,1.4648,0.0000,1,494,760,231
95684730,11094,-0.0811,-0.1328,1.0083,0.5493,1.4038,0.1831,1,488,804,231
95689730,11095,-0.0796,-0.1294,1.0122,0.3662,1.2207,0.1221,1,472,853,231
95694727,11096,-0.0767,-0.1284,1.0156,0.3662,1.2207,0.1831,1,487,849,231
95699729,11097,-0.0747,-0.1274,1.0151,0.4883,1.4038,0.2441,1,478,856,231
95704725,11098,-0.0757,-0.1270,1.0132,0.4272,1.6479,0.2441,1,486,856,231
95709732,11099,-0.0786,-0.1294,1.0112,0.4272,1.5259,0.1831,1,488,853,231
95714728,11100,-0.0811,-0.1323,1.0088,0.5493,1.3428,0.1221,1,510,854,231
95719726,11101,-0.0830,-0.1348,1.0073,0.7935,1.4038,0.2441,1,465,860,231
95724729,11102,-0.0830,-0.1338,1.0093,1.0986,1.3428,0.3052,1,484,867,231
95729725,11103,-0.0811,-0.1309,1.0107,1.1597,1.4648,0.1831,1,472,900,231
95734732,11104,-0.0825,-0.1294,1.0093,1.0986,1.4038,0.2441,1,481,866,231
95739727,11105,-0.0840,-0.1284,1.0068,1.1597,1.2207,0.2441,1,478,878,231
95744733,11106,-0.0840,-0.1274,1.0078,1.2207,0.9766,0.2441,1,467,835,231
95749725,11107,-0.0825,-0.1255,1.0098,1.2207,1.0986,0.2441,1,465,861,231
95754730,11108,-0.0801,-0.1240,1.0117,1.2207,1.0376,0.2441,1,476,862,231
95759730,11109,-0.0791,-0.1255,1.0122,1.2207,1.0986,0.2441,1,484,856,231
95764732,11110,-0.0791,-0.1284,1.0107,1.2207,1.1597,0.4272,1,466,886,231
95769729,11111,-0.0791,-0.1304,1.0088,1.3428,1.2207,0.4272,1,492,882,231
95774725,11112,-0.0801,-0.1270,1.0059,1.3428,1.4648,0.4883,1,475,877,231
95779731,11113,-0.0815,-0.1221,1.0054,1.0376,1.3428,0.5493,1,494,872,231
95784731,11114,-0.0806,-0.1211,1.0078,0.9766,1.2817,0.6104,1,465,855,231
95789733,11115,-0.0806,-0.1255,1.0088,0.8545,1.5869,0.6104,1,474,840,231
95794733,11116,-0.0840,-0.1304,1.0073,0.6714,1.4038,0.6104,1,478,842,231
95799726,11117,-0.0801,-0.1338,1.0103,0.9155,0.7935,0.8545,1,486,870,231
95804727,11118,-0.0708,-0.1313,1.0195,1.1597,1.4038,0.9766,1,484,839,231
95809743,11119,-0.0713,-0.1245,1.0244,1.0376,1.9531,0.9155,1,486,852,231
95814725,11120,-0.0737,-0.1260,1.0225,0.8545,1.5259,0.9766,1,489,855,231
95819731,11121,-0.0718,-0.1348,1.0205,0.9155,1.8921,1.1597,1,484,846,231
95824734,11122,-0.0718,-0.1367,1.0195,1.3428,2.5024,1.2207,1,469,864,231
95829733,11123,-0.0752,-0.1279,1.0200,1.2817,2.5635,1.4038,1,484,873,231
95834730,11124,-0.0762,-0.1191,1.0205,0.9155,2.5635,1.5259,1,474,910,231
95839725,11125,-0.0747,-0.1191,1.0171,0.6714,3.0518,1.5869,1,482,870,231
95844728,11126,-0.0791,-0.1250,1.0083,0.6714,3.4790,1.5869,1,470,869,231
95849732,11127,-0.0850,-0.1289,1.0024,0.8545,3.2349,1.7700,1,471,878,231
95854730,11128,-0.0806,-0.1265,1.0088,0.7324,3.1128,2.0142,1,472,861,231
95859734,11129,-0.0688,-0.1201,1.0220,0.3662,3.9062,2.0752,1,477,856,231
95864736,11130,-0.0640,-0.1157,1.0283,0.0000,4.9438,2.2583,1,483,864,231
95869733,11131,-0.0684,-0.1147,1.0244,-0.4272,5.6152,2.4414,1,466,844,231
95874729,11132,-0.0752,-0.1128,1.0176,-0.7324,6.0425,2.6855,1,493,889,231
95879727,11133,-0.0801,-0.1113,1.0151,-1.2207,6.5308,2.6855,1,475,879,231
95884733,11134,-0.0791,-0.1162,1.0181,-1.6479,6.7749,2.7466,1,494,881,231
95889728,11135,-0.0757,-0.1240,1.0239,-1.9531,7.3853,2.9297,1,466,820,231
95894726,11136,-0.0747,-0.1294,1.0254,-2.0142,7.6904,3.0518,1,480,857,231
95899726,11137,-0.0781,-0.1299,1.0215,-2.0142,8.1177,3.2349,1,491,851,231
95904725,11138,-0.0830,-0.1270,1.0225,-1.9531,8.3008,3.1128,1,481,852,231
95909732,11139,-0.0815,-0.1274,1.0259,-2.1362,8.5449,3.1128,1,490,849,231
95914727,11140,-0.0767,-0.1343,1.0269,-2.1362,9.3994,2.9297,1,485,862,231
95919733,11141,-0.0762,-0.1436,1.0229,-1.3428,9.9487,2.9297,1,493,858,231
95924725,11142,-0.0806,-0.1431,1.0137,-0.6104,10.6201,2.9297,1,465,884,231
95929734,11143,-0.0903,-0.1323,1.0034,-0.1831,11.1694,2.6245,1,484,877,231
95934734,11144,-0.0977,-0.1235,1.0000,-0.0610,10.9863,2.3804,1,465,849,231
95939732,11145,-0.1001,-0.1240,0.9990,0.3662,11.1084,2.1362,1,475,918,231
95944732,11146,-0.1021,-0.1323,0.9951,0.7935,11.1694,2.0142,1,482,885,231
95949729,11147,-0.1040,-0.1372,0.9941,1.6479,10.6812,1.9531,1,468,889,231
95954728,11148,-0.1055,-0.1304,0.9985,2.1362,10.4980,1.6479,1,478,901,231
95959725,11149,-0.1069,-0.1167,1.0059,2.0142,10.4370,1.4648,1,465,883,231
95964730,11150,-0.1079,-0.1074,1.0132,1.5259,10.1929,1.3428,1,484,878,231
95969732,11151,-0.1069,-0.1079,1.0195,1.0986,9.8267,1.3428,1,466,896,231
95974728,11152,-0.1045,-0.1108,1.0205,0.9155,9.6436,1.4038,1,466,887,231
95979726,11153,-0.1055,-0.1138,1.0171,-0.1831,9.7046,1.2207,1,466,881,231
95984727,11154,-0.1104,-0.1162,1.0146,-0.4883,9.2163,1.4038,1,486,875,231
95989731,11155,-0.1147,-0.1147,1.0142,-0.9155,8.6670,1.3428,1,464,781,231
95994728,11156,-0.1177,-0.1118,1.0107,-1.4648,8.2397,1.2817,1,481,869,231
95999730,11157,-0.1191,-0.1157,1.0029,-1.5869,7.7515,1.1597,1,473,862,231
96004728,11158,-0.1240,-0.1265,0.9922,-1.5259,7.3242,0.9766,1,482,859,231
96009728,11159,-0.1304,-0.1294,0.9863,-1.4648,6.4697,0.9155,1,474,853,231
96014740,11160,-0.1294,-0.1221,0.9902,-1.3428,5.3711,0.7324,1,475,859,231
96019730,11161,-0.1230,-0.1152,0.9976,-1.4648,5.0659,0.3052,1,489,850,231
96024727,11162,-0.1216,-0.1143,0.9985,-1.5869,4.8218,0.0610,1,511,855,231
96029731,11163,-0.1255,-0.1191,0.9893,-1.4648,4.3945,-0.2441,1,476,870,231
96034725,11164,-0.1353,-0.1255,0.9771,-1.2817,3.9062,-0.7324,1,466,880,231
96039729,11165,-0.1377,-0.1313,0.9746,-0.7935,2.5635,-1.1597,1,470,925,231
96044727,11166,-0.1255,-0.1333,0.9785,-0.3052,1.8921,-1.2817,1,474,874,231
96049728,11167,-0.1196,-0.1318,0.9790,-0.3052,2.2583,-1.2817,1,481,881,231
96054732,11168,-0.1274,-0.1333,0.9771,0.0610,1.8311,-1.4648,1,483,840,231
96059727,11169,-0.1323,-0.1396,0.9746,1.0376,0.5493,-1.7700,1,482,863,231
96064726,11170,-0.1294,-0.1431,0.9717,2.0142,0.0610,-1.9531,1,483,868,231
96069744,11171,-0.1255,-0.1440,0.9668,2.5635,-0.1831,-2.0142,1,466,875,231
96074728,11172,-0.1328,-0.1484,0.9512,3.3569,-0.2441,-2.2583,1,465,882,231
96079729,11173,-0.1533,-0.1533,0.9360,4.8218,-1.2207,-2.3804,1,493,895,231
96084725,11174,-0.1562,-0.1538,0.9473,6.1646,-3.6621,-2.8076,1,466,887,231
96089731,11175,-0.1299,-0.1504,0.9810,7.2021,-4.2725,-2.9297,1,493,919,231
96094729,11176,-0.1011,-0.1426,1.0161,7.5684,-3.6011,-2.9297,1,483,826,231
96099729,11177,-0.0864,-0.1353,1.0361,7.6904,-3.0518,-2.8076,1,473,850,231
96104732,11178,-0.0879,-0.1323,1.0381,7.6904,-2.2583,-2.6245,1,485,857,231
96109731,11179,-0.0933,-0.1294,1.0327,7.9346,-2.0752,-2.5635,1,492,859,231
96114727,11180,-0.0933,-0.1191,1.0308,7.8125,-1.4038,-2.4414,1,491,852,231
96119728,11181,-0.0918,-0.1084,1.0322,7.4463,-0.6104,-2.2583,1,481,854,231
96124727,11182,-0.0938,-0.1099,1.0298,6.6528,0.0610,-2.0752,1,510,849,231
96129728,11183,-0.0996,-0.1201,1.0225,6.2866,0.1831,-2.0752,1,465,900,231
96134730,11184,-0.1045,-0.1230,1.0171,6.5308,0.1831,-1.7700,1,484,873,231
96139725,11185,-0.1064,-0.1167,1.0142,6.1035,0.6104,-1.9531,1,465,902,231
