t_us, seq, ax, ay, az, gx, gy, gz, valid, t_imu_us, t_serial_us, missed
2129968929,419941,-0.0210,0.0103,1.0229,-0.5493,1.0376,-0.4883,1,492,850,2908
2129973929,419942,-0.0205,0.0107,1.0225,-0.4883,1.0376,-0.3662,1,492,847,2908
2129978925,419943,-0.0205,0.0112,1.0234,-0.5493,1.0376,-0.4272,1,474,847,2908
2129983924,419944,-0.0215,0.0107,1.0234,-0.6104,1.0376,-0.4883,1,493,855,2908
2129988930,419945,-0.0244,0.0098,1.0225,-0.6714,0.9766,-0.4883,1,466,873,2908
2129993928,419946,-0.0244,0.0093,1.0229,-0.6104,0.9766,-0.4272,1,466,871,2908
2129998924,419947,-0.0215,0.0103,1.0229,-0.6104,0.9766,-0.4883,1,466,875,2908
2130003923,419948,-0.0200,0.0098,1.0220,-0.6104,1.0376,-0.5493,1,466,871,2908
2130008927,419949,-0.0215,0.0078,1.0220,-0.6714,1.0986,-0.4272,1,465,869,2908
2130013930,419950,-0.0234,0.0073,1.0220,-0.6104,1.0376,-0.4883,1,484,866,2908
2130018931,419951,-0.0244,0.0083,1.0220,-0.5493,1.0376,-0.5493,1,465,870,2908
2130023926,419952,-0.0249,0.0093,1.0215,-0.6104,1.0376,-0.5493,1,470,921,2908
2130028930,419953,-0.0239,0.0088,1.0215,-0.5493,0.9155,-0.5493,1,477,863,2908
2130033945,419954,-0.0225,0.0083,1.0234,-0.6104,1.0986,-0.5493,1,476,879,2908
2130038929,419955,-0.0220,0.0088,1.0244,-0.6104,1.0376,-0.5493,1,465,876,2908
2130043928,419956,-0.0220,0.0093,1.0239,-0.5493,1.0376,-0.4883,1,503,855,2908
2130048926,419957,-0.0234,0.0098,1.0215,-0.4272,0.9766,-0.4272,1,478,856,2908
2130053922,419958,-0.0234,0.0093,1.0195,-0.6104,0.9766,-0.4272,1,511,855,2908
2130058925,419959,-0.0229,0.0093,1.0205,-0.6104,1.0376,-0.4883,1,478,854,2908
2130063922,419960,-0.0234,0.0098,1.0225,-0.4883,1.0986,-0.5493,1,479,842,2908
2130068928,419961,-0.0234,0.0098,1.0239,-0.4883,0.9766,-0.3662,1,490,846,2908
2130073922,419962,-0.0234,0.0093,1.0249,-0.4272,0.9155,-0.4883,1,482,845,2908
2130078926,419963,-0.0234,0.0088,1.0244,-0.6104,1.0986,-0.4272,1,492,849,2908
2130083927,419964,-0.0225,0.0093,1.0234,-0.5493,0.9155,-0.4272,1,471,848,2908
2130088923,419965,-0.0215,0.0088,1.0234,-0.5493,0.7935,-0.3052,1,493,851,2908
2130093924,419966,-0.0210,0.0078,1.0244,-0.6104,1.0376,-0.3052,1,466,872,2908
2130098930,419967,-0.0215,0.0078,1.0249,-0.5493,0.9766,-0.3662,1,466,868,2908
2130103930,419968,-0.0225,0.0083,1.0249,-0.4883,1.0376,-0.3052,1,466,879,2908
2130108929,419969,-0.0234,0.0078,1.0239,-0.4883,0.9766,-0.4272,1,466,872,2908
2130113922,419970,-0.0244,0.0073,1.0229,-0.4272,1.0376,-0.4272,1,466,876,2908
2130118924,419971,-0.0239,0.0078,1.0225,-0.4272,0.9155,-0.3662,1,466,881,2908
2130123924,419972,-0.0244,0.0083,1.0220,-0.4883,1.0376,-0.4272,1,484,870,2908
2130128930,419973,-0.0254,0.0088,1.0220,-0.3662,1.0376,-0.4272,1,465,876,2908
2130133923,419974,-0.0264,0.0088,1.0225,-0.3662,1.0376,-0.3052,1,467,931,2908
2130138922,419975,-0.0269,0.0073,1.0220,-0.4272,0.8545,-0.3662,1,475,860,2908
2130143929,419976,-0.0254,0.0078,1.0225,-0.3662,0.7324,-0.3662,1,481,868,2908
2130148929,419977,-0.0244,0.0107,1.0234,-0.3662,0.8545,-0.4272,1,476,877,2908
2130153925,419978,-0.0254,0.0117,1.0229,-0.5493,0.9155,-0.4272,1,502,863,2908
2130158926,419979,-0.0259,0.0098,1.0229,-0.4272,0.7324,-0.4883,1,478,864,2908
2130163926,419980,-0.0234,0.0083,1.0239,-0.2441,0.7324,-0.3052,1,511,795,2908
2130168928,419981,-0.0220,0.0078,1.0234,-0.6104,0.7324,-0.3662,1,479,803,2908
2130173928,419982,-0.0239,0.0068,1.0225,-0.6104,0.8545,-0.3662,1,477,849,2908
2130178923,419983,-0.0254,0.0059,1.0220,-0.4272,0.7324,-0.3662,1,485,846,2908
2130183923,419984,-0.0234,0.0063,1.0234,-0.3662,0.6714,-0.3662,1,473,866,2908
2130188928,419985,-0.0215,0.0083,1.0249,-0.4883,0.7935,-0.3662,1,482,851,2908
2130193924,419986,-0.0229,0.0088,1.0244,-0.6104,0.8545,-0.4272,1,484,850,2908
2130198930,419987,-0.0244,0.0078,1.0225,-0.4883,1.0376,-0.4272,1,493,847,2908
2130203930,419988,-0.0259,0.0073,1.0205,-0.4883,0.9155,-0.3662,1,466,875,2908
2130208924,419989,-0.0264,0.0068,1.0210,-0.4272,0.8545,-0.4883,1,466,879,2908
2130213927,419990,-0.0239,0.0068,1.0229,-0.3662,0.7935,-0.3662,1,466,874,2908
2130218928,419991,-0.0229,0.0078,1.0244,-0.4883,1.0376,-0.3662,1,466,884,2908
2130223927,419992,-0.0234,0.0078,1.0239,-0.5493,0.9155,-0.3662,1,483,880,2908
2130228927,419993,-0.0239,0.0078,1.0234,-0.5493,1.0986,-0.3662,1,465,872,2908
2130233925,419994,-0.0249,0.0078,1.0229,-0.4883,1.0376,-0.3662,1,484,873,2908
2130238930,419995,-0.0254,0.0073,1.0229,-0.3052,1.0376,-0.3662,1,467,909,2908
2130243927,419996,-0.0259,0.0059,1.0229,-0.3662,1.1597,-0.3662,1,468,864,2908
2130248930,419997,-0.0269,0.0059,1.0229,-0.4272,1.0986,-0.3662,1,474,874,2908
2130253955,419998,-0.0269,0.0063,1.0220,-0.3662,0.9766,-0.3662,1,472,876,2908
2130258929,419999,-0.0269,0.0068,1.0210,-0.4272,0.9766,-0.3662,1,472,874,2908
2130263925,420000,-0.0269,0.0078,1.0220,-0.4272,0.9766,-0.3052,1,503,856,2908
2130268922,420001,-0.0259,0.0068,1.0225,-0.3662,0.9155,-0.3052,1,506,852,2908
2130273929,420002,-0.0264,0.0059,1.0220,-0.2441,0.8545,-0.4272,1,464,770,2908
2130278924,420003,-0.0273,0.0068,1.0210,-0.1221,0.7935,-0.4883,1,479,853,2908
2130283928,420004,-0.0273,0.0078,1.0205,-0.2441,0.6714,-0.4272,1,490,842,2908
2130288929,420005,-0.0269,0.0073,1.0220,-0.1831,0.7324,-0.4272,1,476,852,2908
2130293929,420006,-0.0254,0.0059,1.0234,-0.0610,0.7324,-0.3052,1,484,851,2908
2130298922,420007,-0.0239,0.0063,1.0249,-0.2441,0.6714,-0.2441,1,489,841,2908
2130303924,420008,-0.0244,0.0078,1.0249,-0.1831,0.7935,-0.4883,1,493,855,2908
2130308927,420009,-0.0259,0.0083,1.0229,-0.1831,0.8545,-0.4883,1,493,851,2908
2130313923,420010,-0.0269,0.0083,1.0220,-0.3052,0.7935,-0.3662,1,466,878,2908
2130318927,420011,-0.0264,0.0078,1.0215,-0.2441,0.7935,-0.3662,1,466,875,2908
2130323926,420012,-0.0259,0.0063,1.0225,-0.2441,0.8545,-0.4883,1,466,878,2908
2130328930,420013,-0.0264,0.0059,1.0229,-0.3662,0.7324,-0.3052,1,483,876,2908
2130333929,420014,-0.0273,0.0073,1.0229,-0.3052,0.6104,-0.3662,1,465,873,2908
2130338927,420015,-0.0278,0.0078,1.0234,-0.3052,0.6714,-0.3662,1,484,865,2908
2130343923,420016,-0.0273,0.0073,1.0234,-0.1831,0.7324,-0.2441,1,465,876,2908
2130348924,420017,-0.0264,0.0063,1.0234,-0.2441,0.5493,-0.3052,1,474,926,2908
2130353927,420018,-0.0254,0.0063,1.0225,-0.3662,0.6104,-0.4883,1,474,868,2908
2130358924,420019,-0.0259,0.0068,1.0215,-0.4272,0.6104,-0.4272,1,474,862,2908
2130363925,420020,-0.0273,0.0059,1.0220,-0.3052,0.4883,-0.4272,1,479,872,2908
2130368923,420021,-0.0273,0.0054,1.0225,-0.2441,0.5493,-0.4883,1,502,851,2908
2130373926,420022,-0.0273,0.0063,1.0215,-0.3662,0.6104,-0.3662,1,478,858,2908
2130378926,420023,-0.0278,0.0068,1.0210,-0.4272,0.6104,-0.4272,1,506,857,2908
2130383930,420024,-0.0288,0.0073,1.0205,-0.3052,0.5493,-0.4272,1,465,811,2908
2130388926,420025,-0.0283,0.0063,1.0210,-0.3662,0.5493,-0.4883,1,476,850,2908
2130393928,420026,-0.0264,0.0063,1.0215,-0.2441,0.5493,-0.5493,1,488,850,2908
2130398930,420027,-0.0264,0.0059,1.0210,-0.3052,0.6714,-0.3662,1,492,874,2908
2130403931,420028,-0.0269,0.0054,1.0210,-0.3662,0.6104,-0.3662,1,473,838,2908
2130408929,420029,-0.0264,0.0054,1.0225,-0.1831,0.5493,-0.3662,1,491,843,2908
2130413927,420030,-0.0254,0.0054,1.0229,-0.3052,0.6104,-0.3662,1,473,849,2908
2130418923,420031,-0.0244,0.0063,1.0239,-0.3052,0.7324,-0.3662,1,493,842,2908
2130423922,420032,-0.0244,0.0073,1.0239,-0.1831,0.7935,-0.4272,1,466,880,2908
2130428923,420033,-0.0239,0.0073,1.0234,-0.1831,0.7935,-0.4272,1,466,884,2908
2130433927,420034,-0.0239,0.0088,1.0244,-0.3052,0.8545,-0.4883,1,466,883,2908
2130438926,420035,-0.0259,0.0073,1.0234,-0.3662,0.7324,-0.4883,1,466,873,2908
2130443927,420036,-0.0273,0.0063,1.0229,-0.1831,0.7935,-0.4272,1,466,880,2908
2130448926,420037,-0.0278,0.0059,1.0215,-0.2441,0.9155,-0.3052,1,484,872,2908
2130453930,420038,-0.0273,0.0054,1.0215,-0.1831,0.7324,-0.3052,1,465,873,2908
2130458929,420039,-0.0288,0.0059,1.0220,-0.2441,0.5493,-0.4883,1,470,930,2908
2130463928,420040,-0.0293,0.0063,1.0220,-0.3662,0.7324,-0.3662,1,470,867,2908
2130468938,420041,-0.0273,0.0063,1.0234,-0.2441,0.7935,-0.3052,1,476,879,2908
2130473955,420042,-0.0254,0.0059,1.0234,-0.3052,0.8545,-0.3662,1,467,875,2908
2130478930,420043,-0.0249,0.0063,1.0229,-0.4272,0.9766,-0.3052,1,475,851,2908
2130483929,420044,-0.0244,0.0063,1.0234,-0.3052,0.7324,-0.3662,1,478,856,2908
2130488922,420045,-0.0249,0.0068,1.0244,-0.1221,0.7324,-0.4272,1,512,859,2908
2130493930,420046,-0.0259,0.0083,1.0249,-0.3662,0.7324,-0.3052,1,471,873,2908
2130498930,420047,-0.0278,0.0078,1.0234,-0.3662,0.7935,-0.3052,1,475,850,2908
2130503928,420048,-0.0293,0.0063,1.0220,-0.2441,0.7324,-0.2441,1,479,852,2908
2130508924,420049,-0.0293,0.0059,1.0210,-0.1831,0.6714,-0.4272,1,482,853,2908
2130513931,420050,-0.0283,0.0059,1.0215,-0.1831,0.6714,-0.4883,1,492,843,2908
2130518931,420051,-0.0273,0.0059,1.0229,-0.0610,0.6104,-0.4272,1,471,846,2908
2130523929,420052,-0.0269,0.0068,1.0225,-0.1221,0.6104,-0.3662,1,493,844,2908
2130528922,420053,-0.0283,0.0078,1.0215,-0.0610,0.5493,-0.3662,1,466,870,2908
2130533925,420054,-0.0303,0.0073,1.0215,-0.1831,0.7324,-0.4883,1,466,880,2908
2130538931,420055,-0.0298,0.0054,1.0220,-0.1221,0.4883,-0.4272,1,466,877,2908
2130543923,420056,-0.0288,0.0049,1.0220,-0.0610,0.3052,-0.3662,1,466,871,2908
2130548924,420057,-0.0278,0.0059,1.0225,-0.0610,0.3662,-0.4883,1,484,872,2908
2130553928,420058,-0.0269,0.0063,1.0239,-0.0610,0.3662,-0.3052,1,469,862,2908
2130558922,420059,-0.0273,0.0063,1.0239,-0.0610,0.3052,-0.2441,1,484,818,2908
2130563926,420060,-0.0278,0.0059,1.0225,-0.0610,0.2441,-0.3662,1,482,903,2908
2130568928,420061,-0.0278,0.0063,1.0215,-0.1831,0.3052,-0.4883,1,482,865,2908
2130573928,420062,-0.0273,0.0068,1.0215,-0.0610,0.3052,-0.3662,1,465,865,2908
2130578952,420063,-0.0269,0.0073,1.0225,-0.0610,0.3662,-0.3662,1,469,872,2908
2130583923,420064,-0.0269,0.0073,1.0234,-0.2441,0.4272,-0.4272,1,473,857,2908
2130588923,420065,-0.0278,0.0068,1.0239,-0.3052,0.6104,-0.4883,1,478,863,2908
2130593925,420066,-0.0288,0.0068,1.0225,-0.3662,0.5493,-0.3662,1,512,853,2908
2130598927,420067,-0.0288,0.0063,1.0215,-0.1831,0.6104,-0.3052,1,466,834,2908
2130603923,420068,-0.0293,0.0063,1.0215,-0.3662,0.6714,-0.2441,1,474,855,2908
2130608924,420069,-0.0283,0.0054,1.0225,-0.3662,0.6104,-0.3052,1,485,849,2908
2130613931,420070,-0.0269,0.0039,1.0229,-0.3052,0.5493,-0.2441,1,485,842,2908
2130618925,420071,-0.0264,0.0044,1.0244,-0.4272,0.6714,-0.2441,1,486,849,2908
2130623927,420072,-0.0254,0.0059,1.0244,-0.3662,0.7324,-0.3662,1,479,850,2908
2130628928,420073,-0.0254,0.0054,1.0229,-0.3052,0.6714,-0.4272,1,492,850,2908
2130633925,420074,-0.0264,0.0039,1.0210,-0.3052,0.6104,-0.3052,1,465,872,2908
2130638927,420075,-0.0288,0.0029,1.0200,-0.2441,0.7324,-0.3662,1,466,865,2908
2130643926,420076,-0.0303,0.0034,1.0205,-0.2441,0.7935,-0.4272,1,466,881,2908
2130648929,420077,-0.0303,0.0039,1.0215,-0.3052,0.8545,-0.4272,1,466,877,2908
2130653926,420078,-0.0293,0.0039,1.0205,-0.2441,0.7324,-0.4272,1,483,871,2908
2130658926,420079,-0.0293,0.0039,1.0195,-0.1831,0.7324,-0.3052,1,466,870,2908
2130663927,420080,-0.0288,0.0034,1.0190,-0.2441,0.5493,-0.2441,1,484,866,2908
2130668928,420081,-0.0283,0.0034,1.0190,-0.2441,0.4883,-0.4272,1,465,912,2908
2130673930,420082,-0.0283,0.0054,1.0215,-0.1221,0.4272,-0.3662,1,467,871,2908
2130678926,420083,-0.0283,0.0063,1.0239,-0.1221,0.4883,-0.2441,1,469,873,2908
2130683937,420084,-0.0288,0.0063,1.0244,-0.0610,0.6104,-0.3052,1,474,876,2908
2130688923,420085,-0.0283,0.0054,1.0239,-0.1221,0.4883,-0.3662,1,466,853,2908
2130693925,420086,-0.0283,0.0054,1.0215,-0.1221,0.4883,-0.3662,1,504,857,2908
2130698929,420087,-0.0283,0.0063,1.0205,-0.1221,0.6714,-0.4883,1,493,853,2908
2130703924,420088,-0.0283,0.0063,1.0215,-0.2441,0.4883,-0.4272,1,512,854,2908
2130708925,420089,-0.0278,0.0059,1.0215,-0.1221,0.4883,-0.3662,1,489,777,2908
2130713931,420090,-0.0278,0.0049,1.0205,0.0000,0.4272,-0.3662,1,485,842,2908
2130718923,420091,-0.0283,0.0044,1.0205,-0.0610,0.3662,-0.3662,1,484,804,2908
2130723923,420092,-0.0283,0.0044,1.0210,-0.1221,0.2441,-0.3052,1,476,870,2908
2130728923,420093,-0.0278,0.0049,1.0220,-0.1831,0.2441,-0.3052,1,484,842,2908
2130733922,420094,-0.0278,0.0054,1.0229,0.0000,0.3662,-0.3662,1,492,847,2908
2130738922,420095,-0.0273,0.0049,1.0244,-0.0610,0.3662,-0.3662,1,493,807,2908
2130743924,420096,-0.0269,0.0049,1.0249,-0.1221,0.3052,-0.2441,1,466,850,2908
2130748922,420097,-0.0269,0.0054,1.0249,-0.0610,0.4272,-0.2441,1,466,872,2908
2130753927,420098,-0.0273,0.0063,1.0244,0.0000,0.4883,-0.2441,1,466,878,2908
2130758928,420099,-0.0288,0.0059,1.0234,0.0000,0.3662,-0.2441,1,466,834,2908
2130763922,420100,-0.0298,0.0049,1.0234,0.0000,0.2441,-0.1831,1,484,832,2908
2130768922,420101,-0.0293,0.0044,1.0220,-0.0610,0.3052,-0.2441,1,466,766,2908
2130773929,420102,-0.0288,0.0049,1.0195,-0.0610,0.2441,-0.3052,1,484,859,2908
2130778923,420103,-0.0283,0.0054,1.0195,0.1831,0.2441,-0.2441,1,466,902,2908
2130783924,420104,-0.0288,0.0054,1.0210,0.0000,0.2441,-0.3052,1,471,872,2908
2130788928,420105,-0.0308,0.0054,1.0225,-0.1221,0.3662,-0.4272,1,469,824,2908
2130793928,420106,-0.0303,0.0049,1.0234,0.0610,0.1221,-0.3662,1,465,869,2908
2130798931,420107,-0.0288,0.0049,1.0239,0.0610,0.2441,-0.2441,1,465,851,2908
2130803925,420108,-0.0273,0.0049,1.0239,0.0000,0.2441,-0.1831,1,507,861,2908
2130808928,420109,-0.0259,0.0054,1.0234,0.0000,0.2441,-0.1831,1,484,814,2908
2130813931,420110,-0.0254,0.0049,1.0225,-0.0610,0.2441,-0.1831,1,504,711,2908
2130818931,420111,-0.0259,0.0044,1.0225,0.0000,0.4272,-0.3052,1,466,807,2908
2130823930,420112,-0.0269,0.0049,1.0229,0.0000,0.4883,-0.2441,1,476,797,2908
2130828926,420113,-0.0283,0.0054,1.0234,0.1221,0.3052,-0.2441,1,482,800,2908
2130833926,420114,-0.0278,0.0059,1.0234,0.0610,0.3052,-0.3662,1,491,845,2908
2130838930,420115,-0.0269,0.0068,1.0225,-0.0610,0.4272,-0.1831,1,478,843,2908
2130843926,420116,-0.0269,0.0063,1.0220,-0.0610,0.4883,-0.1221,1,473,848,2908
2130848925,420117,-0.0278,0.0054,1.0220,-0.0610,0.4883,-0.0610,1,479,842,2908
2130853924,420118,-0.0283,0.0049,1.0229,-0.0610,0.5493,-0.1831,1,494,843,2908
2130858923,420119,-0.0278,0.0039,1.0239,-0.1831,0.4272,-0.3052,1,466,880,2908
2130863930,420120,-0.0264,0.0034,1.0239,-0.1221,0.4272,-0.2441,1,465,881,2908
2130868925,420121,-0.0259,0.0039,1.0239,-0.1221,0.4883,-0.2441,1,466,878,2908
2130873930,420122,-0.0264,0.0054,1.0239,-0.1221,0.5493,-0.1831,1,484,876,2908
2130878931,420123,-0.0273,0.0054,1.0229,-0.0610,0.4883,-0.0610,1,465,876,2908
2130883924,420124,-0.0283,0.0044,1.0215,-0.1221,0.5493,-0.1831,1,484,861,2908
2130888923,420125,-0.0293,0.0044,1.0200,0.0000,0.4883,-0.1221,1,466,904,2908
2130893926,420126,-0.0293,0.0054,1.0200,-0.1221,0.4883,-0.1831,1,483,812,2908
2130898923,420127,-0.0269,0.0063,1.0210,-0.0610,0.3662,-0.2441,1,482,860,2908
2130903939,420128,-0.0259,0.0063,1.0229,0.0610,0.4883,-0.0610,1,467,874,2908
2130908929,420129,-0.0288,0.0054,1.0239,-0.0610,0.4883,-0.1831,1,477,870,2908
2130913930,420130,-0.0312,0.0044,1.0220,-0.0610,0.4272,-0.1221,1,467,858,2908
2130918922,420131,-0.0298,0.0034,1.0210,-0.1831,0.3662,-0.2441,1,483,878,2908
2130923923,420132,-0.0269,0.0044,1.0229,0.0000,0.4272,-0.3052,1,511,861,2908
2130928925,420133,-0.0259,0.0073,1.0249,0.0000,0.4883,-0.3662,1,477,797,2908
2130933922,420134,-0.0283,0.0054,1.0234,-0.1221,0.6104,-0.3662,1,485,804,2908
2130938924,420135,-0.0298,0.0010,1.0215,-0.0610,0.4883,-0.1831,1,475,845,2908
2130943925,420136,-0.0288,0.0010,1.0215,0.1221,0.4272,-0.3052,1,474,867,2908
2130948928,420137,-0.0288,0.0044,1.0215,0.0610,0.4883,-0.3662,1,482,838,2908
2130953927,420138,-0.0312,0.0049,1.0205,-0.0610,0.5493,-0.4272,1,485,845,2908
2130958927,420139,-0.0312,0.0044,1.0200,0.0610,0.3662,-0.4272,1,493,871,2908
2130963926,420140,-0.0293,0.0059,1.0200,0.1831,0.4272,-0.1831,1,466,898,2908
2130968923,420141,-0.0293,0.0039,1.0210,0.1221,0.4272,-0.2441,1,466,874,2908
2130973944,420142,-0.0283,0.0034,1.0234,0.1221,0.2441,-0.3052,1,466,873,2908
2130978922,420143,-0.0259,0.0068,1.0239,0.1221,0.4272,-0.3052,1,466,876,2908
2130983931,420144,-0.0269,0.0073,1.0215,0.0610,0.5493,-0.1831,1,466,872,2908
2130988923,420145,-0.0278,0.0049,1.0210,0.0000,0.4883,-0.2441,1,469,866,2908
2130993928,420146,-0.0283,0.0054,1.0220,0.0000,0.5493,-0.2441,1,466,869,2908
2130998926,420147,-0.0283,0.0059,1.0239,-0.3052,0.5493,-0.1831,1,474,823,2908
2131003924,420148,-0.0273,0.0044,1.0254,-0.2441,0.5493,-0.1831,1,477,867,2908
2131008925,420149,-0.0264,0.0024,1.0254,-0.0610,0.5493,-0.1221,1,481,879,2908
2131013932,420150,-0.0273,0.0020,1.0239,0.0000,0.5493,-0.2441,1,480,826,2908
2131018930,420151,-0.0293,0.0034,1.0225,0.0000,0.6104,-0.2441,1,480,817,2908
2131023930,420152,-0.0298,0.0039,1.0220,0.0000,0.6104,-0.1221,1,508,808,2908
2131028924,420153,-0.0288,0.0044,1.0225,0.0000,0.6714,-0.1831,1,489,729,2908
2131033928,420154,-0.0288,0.0039,1.0225,-0.1831,0.7324,-0.2441,1,511,763,2908
2131038928,420155,-0.0288,0.0029,1.0215,-0.1221,0.6714,-0.3052,1,488,778,2908
2131043923,420156,-0.0298,0.0039,1.0210,0.0610,0.5493,-0.1831,1,473,841,2908
2131048930,420157,-0.0308,0.0034,1.0229,-0.1221,0.4883,-0.2441,1,476,847,2908
2131053930,420158,-0.0308,0.0029,1.0249,0.0000,0.6104,-0.3052,1,472,866,2908
2131058926,420159,-0.0303,0.0049,1.0249,0.0610,0.6104,-0.2441,1,478,793,2908
2131063922,420160,-0.0298,0.0059,1.0244,-0.0610,0.5493,-0.3052,1,486,841,2908
2131068922,420161,-0.0303,0.0049,1.0244,-0.1221,0.6104,-0.3052,1,493,842,2908
2131073928,420162,-0.0303,0.0039,1.0244,-0.0610,0.5493,-0.3052,1,466,863,2908
2131078925,420163,-0.0293,0.0044,1.0239,-0.1221,0.5493,-0.3052,1,466,872,2908
2131083939,420164,-0.0288,0.0059,1.0225,0.0610,0.5493,-0.3052,1,466,872,2908
2131088930,420165,-0.0288,0.0059,1.0210,0.0000,0.4883,-0.3052,1,466,871,2908
2131093926,420166,-0.0293,0.0054,1.0205,-0.0610,0.3662,-0.4272,1,484,811,2908
2131098930,420167,-0.0288,0.0059,1.0220,-0.1221,0.4883,-0.3662,1,467,864,2908
2131103927,420168,-0.0293,0.0054,1.0234,-0.0610,0.3662,-0.0610,1,484,814,2908
2131108928,420169,-0.0298,0.0039,1.0239,0.0000,0.4272,-0.1221,1,474,901,2908
2131113925,420170,-0.0288,0.0034,1.0234,-0.0610,0.5493,-0.1831,1,478,827,2908
2131118923,420171,-0.0288,0.0044,1.0234,-0.0610,0.6104,-0.3052,1,466,881,2908
2131123944,420172,-0.0283,0.0044,1.0229,-0.0610,0.6714,-0.1831,1,470,869,2908
2131128922,420173,-0.0283,0.0039,1.0225,-0.1221,0.6714,-0.1831,1,474,858,2908
2131133922,420174,-0.0293,0.0044,1.0210,-0.1221,0.6104,-0.2441,1,498,858,2908
2131138927,420175,-0.0303,0.0054,1.0220,-0.1221,0.4883,-0.2441,1,508,847,2908
2131143925,420176,-0.0303,0.0049,1.0229,-0.1831,0.5493,-0.1221,1,465,764,2908
2131148926,420177,-0.0288,0.0049,1.0229,-0.1831,0.5493,-0.3052,1,475,854,2908
2131153927,420178,-0.0278,0.0059,1.0234,-0.1831,0.6104,-0.2441,1,485,850,2908
2131158924,420179,-0.0288,0.0063,1.0239,-0.2441,0.6104,-0.1831,1,492,848,2908
2131163923,420180,-0.0298,0.0059,1.0244,-0.1831,0.7935,-0.3052,1,483,852,2908
2131168928,420181,-0.0293,0.0044,1.0249,-0.1831,0.7324,-0.2441,1,490,842,2908
2131173922,420182,-0.0283,0.0039,1.0254,-0.1831,0.7324,-0.2441,1,489,852,2908
2131178922,420183,-0.0288,0.0049,1.0239,-0.1831,0.6104,-0.2441,1,493,854,2908
2131183925,420184,-0.0293,0.0059,1.0220,-0.1221,0.6104,-0.3052,1,466,879,2908
2131188925,420185,-0.0293,0.0054,1.0215,-0.3052,0.7935,-0.3662,1,466,862,2908
2131193928,420186,-0.0288,0.0049,1.0225,-0.2441,0.8545,-0.3052,1,466,871,2908
2131198930,420187,-0.0288,0.0049,1.0234,-0.2441,0.8545,-0.1831,1,483,873,2908
2131203931,420188,-0.0288,0.0059,1.0239,-0.2441,0.7935,-0.2441,1,465,871,2908
2131208929,420189,-0.0283,0.0059,1.0229,-0.2441,0.8545,-0.1831,1,484,869,2908
2131213929,420190,-0.0283,0.0049,1.0220,-0.3052,0.9155,-0.3052,1,467,906,2908
2131218926,420191,-0.0293,0.0034,1.0234,-0.3662,1.0376,-0.4272,1,475,859,2908
2131223925,420192,-0.0298,0.0020,1.0244,-0.3052,0.9766,-0.1831,1,479,878,2908
2131228946,420193,-0.0298,0.0024,1.0244,-0.1831,0.9766,-0.2441,1,465,870,2908
2131233925,420194,-0.0303,0.0044,1.0234,-0.3052,0.9155,-0.2441,1,469,861,2908
2131238923,420195,-0.0303,0.0059,1.0234,-0.2441,0.8545,-0.3662,1,495,855,2908
2131243928,420196,-0.0288,0.0044,1.0239,-0.4272,1.0376,-0.2441,1,509,854,2908
2131248928,420197,-0.0283,0.0029,1.0234,-0.4272,1.0986,-0.2441,1,494,859,2908
2131253923,420198,-0.0273,0.0039,1.0234,-0.4272,1.0986,-0.2441,1,474,835,2908
2131258923,420199,-0.0278,0.0049,1.0244,-0.4272,0.9766,-0.3052,1,488,856,2908
2131263923,420200,-0.0288,0.0049,1.0254,-0.4883,1.1597,-0.1221,1,491,846,2908
2131268927,420201,-0.0298,0.0054,1.0249,-0.5493,1.2207,-0.1831,1,480,844,2908
2131273924,420202,-0.0303,0.0044,1.0234,-0.4883,1.2817,-0.1221,1,483,852,2908
2131278927,420203,-0.0308,0.0020,1.0215,-0.5493,1.1597,-0.1221,1,486,844,2908
2131283927,420204,-0.0322,0.0000,1.0195,-0.4883,1.2817,-0.2441,1,493,841,2908
2131288923,420205,-0.0342,0.0000,1.0186,-0.3662,0.9766,-0.2441,1,466,842,2908
2131293922,420206,-0.0347,0.0005,1.0190,-0.3662,0.9155,-0.2441,1,466,836,2908
2131298927,420207,-0.0337,0.0020,1.0205,-0.2441,0.8545,-0.1831,1,466,875,2908
2131303923,420208,-0.0317,0.0039,1.0210,-0.0610,0.9766,-0.1831,1,483,877,2908
2131308929,420209,-0.0298,0.0049,1.0220,-0.2441,0.8545,-0.1831,1,466,872,2908
2131313929,420210,-0.0308,0.0044,1.0220,-0.3052,0.9155,-0.1831,1,484,866,2908
2131318925,420211,-0.0317,0.0034,1.0215,-0.1831,0.7324,-0.2441,1,465,900,2908
2131323925,420212,-0.0308,0.0024,1.0205,-0.1831,0.7935,-0.1221,1,479,925,2908
2131328923,420213,-0.0298,0.0029,1.0220,-0.1831,0.9155,-0.1221,1,482,862,2908
2131333926,420214,-0.0298,0.0034,1.0234,-0.2441,0.7935,-0.2441,1,465,873,2908
2131338927,420215,-0.0298,0.0034,1.0239,-0.2441,0.9155,-0.1831,1,465,863,2908
2131343928,420216,-0.0303,0.0024,1.0239,-0.1221,1.0376,-0.3052,1,509,865,2908
2131348929,420217,-0.0317,0.0015,1.0225,-0.1831,0.8545,-0.3052,1,493,850,2908
2131353928,420218,-0.0332,0.0020,1.0205,-0.1221,0.8545,-0.2441,1,500,851,2908
2131358925,420219,-0.0332,0.0034,1.0205,-0.0610,0.7935,-0.1831,1,464,809,2908
2131363922,420220,-0.0312,0.0039,1.0215,0.0000,0.8545,-0.3052,1,481,850,2908
2131368929,420221,-0.0303,0.0044,1.0225,0.0000,0.7324,-0.2441,1,491,822,2908
2131373931,420222,-0.0312,0.0039,1.0225,-0.0610,0.7324,-0.1831,1,472,798,2908
2131378931,420223,-0.0327,0.0029,1.0225,0.0610,0.7324,-0.2441,1,488,874,2908
2131383923,420224,-0.0337,0.0020,1.0225,0.1831,0.6104,-0.2441,1,473,849,2908
2131388926,420225,-0.0322,0.0010,1.0229,0.1221,0.6104,-0.2441,1,484,846,2908
2131393925,420226,-0.0298,0.0020,1.0249,0.0000,0.4883,-0.2441,1,493,843,2908
2131398930,420227,-0.0288,0.0049,1.0254,0.0000,0.6104,-0.1831,1,466,830,2908
2131403929,420228,-0.0308,0.0059,1.0229,0.0000,0.5493,-0.1831,1,465,829,2908
2131408924,420229,-0.0327,0.0044,1.0205,0.0000,0.7324,-0.2441,1,466,829,2908
2131413923,420230,-0.0342,0.0024,1.0186,0.0610,0.6714,-0.3052,1,483,833,2908
2131418925,420231,-0.0352,0.0024,1.0166,0.0610,0.3662,-0.3052,1,466,858,2908
2131423924,420232,-0.0347,0.0039,1.0171,0.1221,0.1831,-0.2441,1,484,863,2908
2131428922,420233,-0.0337,0.0044,1.0200,0.0610,0.1831,-0.2441,1,465,901,2908
2131433922,420234,-0.0332,0.0024,1.0225,0.0000,0.3662,-0.1831,1,469,862,2908
2131438931,420235,-0.0322,0.0010,1.0229,0.1221,0.3662,-0.3052,1,472,834,2908
2131443925,420236,-0.0317,0.0020,1.0220,0.3052,0.3052,-0.2441,1,465,869,2908
2131448923,420237,-0.0322,0.0049,1.0215,0.0610,0.3662,-0.2441,1,474,851,2908
2131453922,420238,-0.0327,0.0049,1.0205,0.0610,0.2441,-0.2441,1,472,858,2908
2131458926,420239,-0.0337,0.0044,1.0210,0.1221,0.1221,-0.2441,1,483,858,2908
2131463922,420240,-0.0332,0.0034,1.0220,0.1831,0.1221,-0.2441,1,512,847,2908
2131468931,420241,-0.0312,0.0039,1.0229,0.1221,0.2441,-0.1831,1,466,830,2908
2131473926,420242,-0.0293,0.0049,1.0249,0.1221,0.3662,-0.1831,1,479,829,2908
2131478930,420243,-0.0298,0.0044,1.0254,0.1221,0.3662,-0.3662,1,491,847,2908
2131483928,420244,-0.0312,0.0034,1.0225,0.0000,0.1831,-0.2441,1,487,845,2908
2131488927,420245,-0.0322,0.0024,1.0200,0.1831,0.1831,-0.2441,1,476,830,2908
2131493927,420246,-0.0317,0.0024,1.0205,0.1831,0.2441,-0.1831,1,485,853,2908
2131498929,420247,-0.0303,0.0039,1.0229,0.1221,0.2441,-0.2441,1,487,855,2908
2131503923,420248,-0.0308,0.0049,1.0244,0.0610,0.2441,-0.2441,1,493,847,2908
2131508923,420249,-0.0327,0.0044,1.0229,0.0610,0.3052,-0.2441,1,466,876,2908
2131513929,420250,-0.0342,0.0039,1.0210,0.0000,0.3052,-0.3052,1,466,874,2908
2131518927,420251,-0.0337,0.0034,1.0205,-0.0610,0.1831,-0.2441,1,465,821,2908
2131523929,420252,-0.0308,0.0044,1.0215,0.1221,0.1221,-0.2441,1,483,878,2908
2131528929,420253,-0.0308,0.0044,1.0225,0.0000,0.0610,-0.1831,1,466,857,2908
2131533925,420254,-0.0322,0.0044,1.0220,0.0610,0.0610,-0.1831,1,484,822,2908
2131538925,420255,-0.0332,0.0044,1.0210,0.0610,0.1221,-0.3052,1,470,902,2908
2131543927,420256,-0.0337,0.0034,1.0220,0.0610,0.2441,-0.4272,1,471,855,2908
2131548925,420257,-0.0332,0.0029,1.0225,0.0610,0.2441,-0.3662,1,469,875,2908
2131553924,420258,-0.0317,0.0024,1.0225,-0.0610,0.0610,-0.4272,1,472,876,2908
2131558925,420259,-0.0312,0.0029,1.0225,0.0000,0.1221,-0.3662,1,477,856,2908
2131563923,420260,-0.0317,0.0024,1.0234,0.0610,0.1221,-0.3052,1,474,834,2908
2131568922,420261,-0.0317,0.0020,1.0225,0.1221,0.1221,-0.3662,1,483,852,2908
2131573924,420262,-0.0317,0.0024,1.0210,0.1221,0.0610,-0.3662,1,511,851,2908
2131578923,420263,-0.0317,0.0029,1.0220,0.0610,0.2441,-0.3052,1,471,797,2908
2131583925,420264,-0.0312,0.0029,1.0220,0.0000,0.2441,-0.3052,1,492,853,2908
2131588929,420265,-0.0312,0.0034,1.0225,-0.1221,0.2441,-0.3662,1,475,826,2908
2131593925,420266,-0.0308,0.0039,1.0234,0.0610,0.2441,-0.3052,1,480,873,2908
2131598925,420267,-0.0308,0.0044,1.0239,0.0610,0.3052,-0.3662,1,490,844,2908
2131603929,420268,-0.0317,0.0039,1.0239,-0.0610,0.2441,-0.3052,1,475,840,2908
2131608925,420269,-0.0322,0.0034,1.0225,0.0000,0.1831,-0.3662,1,493,849,2908
2131613925,420270,-0.0312,0.0034,1.0215,-0.0610,0.1831,-0.3662,1,493,807,2908
2131618922,420271,-0.0308,0.0044,1.0215,-0.1221,0.1831,-0.3052,1,466,904,2908
2131623936,420272,-0.0308,0.0054,1.0229,0.0000,0.1831,-0.3052,1,465,867,2908
2131628928,420273,-0.0308,0.0054,1.0244,0.0000,0.1831,-0.2441,1,465,826,2908
2131633924,420274,-0.0317,0.0049,1.0239,0.0000,0.3052,-0.3662,1,483,830,2908
2131638926,420275,-0.0322,0.0044,1.0225,0.1221,0.2441,-0.3052,1,467,772,2908
2131643925,420276,-0.0317,0.0034,1.0200,0.1221,0.2441,-0.2441,1,484,860,2908
2131648930,420277,-0.0317,0.0020,1.0186,0.1221,0.1831,-0.3662,1,473,906,2908
2131653929,420278,-0.0317,0.0015,1.0200,0.1221,0.1221,-0.3052,1,470,865,2908
2131658925,420279,-0.0322,0.0024,1.0225,0.1221,0.1221,-0.3662,1,472,862,2908
2131663930,420280,-0.0317,0.0024,1.0234,0.2441,0.1221,-0.3662,1,477,872,2908
2131668925,420281,-0.0303,0.0024,1.0234,0.3662,0.1221,-0.3052,1,475,863,2908
2131673927,420282,-0.0293,0.0034,1.0234,0.1831,0.1831,-0.4272,1,506,852,2908
2131678923,420283,-0.0298,0.0034,1.0239,0.1831,0.1221,-0.3662,1,484,864,2908
2131683927,420284,-0.0308,0.0034,1.0234,0.2441,0.1831,-0.3052,1,504,859,2908
2131688929,420285,-0.0303,0.0029,1.0229,0.3662,0.2441,-0.2441,1,465,808,2908
2131693927,420286,-0.0288,0.0034,1.0234,0.1831,0.1831,-0.3052,1,473,862,2908
2131698931,420287,-0.0288,0.0044,1.0225,0.1221,0.2441,-0.4272,1,480,852,2908
2131703927,420288,-0.0308,0.0049,1.0210,0.3052,0.2441,-0.2441,1,483,847,2908
2131708928,420289,-0.0312,0.0044,1.0215,0.1831,0.1831,-0.3052,1,473,840,2908
2131713923,420290,-0.0308,0.0039,1.0229,0.1831,0.0000,-0.3662,1,491,871,2908
2131718931,420291,-0.0303,0.0039,1.0234,0.1831,0.1831,-0.4272,1,477,804,2908
2131723927,420292,-0.0298,0.0034,1.0234,0.1831,0.3052,-0.3052,1,493,851,2908
2131728926,420293,-0.0293,0.0034,1.0234,0.1221,0.1221,-0.3662,1,466,872,2908
2131733934,420294,-0.0288,0.0034,1.0234,0.0610,0.3052,-0.3052,1,466,873,2908
2131738925,420295,-0.0298,0.0034,1.0220,0.1221,0.2441,-0.2441,1,466,872,2908
2131743926,420296,-0.0308,0.0029,1.0215,0.1221,0.1831,-0.3052,1,484,876,2908
2131748928,420297,-0.0312,0.0024,1.0225,0.1831,0.1831,-0.3052,1,467,856,2908
2131753930,420298,-0.0317,0.0029,1.0234,0.1831,0.1831,-0.2441,1,484,892,2908
2131758927,420299,-0.0327,0.0044,1.0244,0.1831,0.2441,-0.2441,1,477,912,2908
2131763930,420300,-0.0327,0.0049,1.0239,0.1221,0.3662,-0.3662,1,465,873,2908
2131768930,420301,-0.0332,0.0044,1.0215,0.1221,0.3052,-0.3662,1,467,868,2908
2131773923,420302,-0.0337,0.0029,1.0195,0.1831,0.2441,-0.4272,1,471,869,2908
2131778926,420303,-0.0337,0.0020,1.0195,0.0610,0.3052,-0.3662,1,479,862,2908
2131783926,420304,-0.0327,0.0020,1.0205,0.2441,0.1831,-0.3662,1,507,854,2908
2131788930,420305,-0.0312,0.0024,1.0220,0.2441,0.1831,-0.3052,1,487,862,2908
2131793925,420306,-0.0308,0.0039,1.0229,0.2441,0.3052,-0.2441,1,494,900,2908
2131798930,420307,-0.0317,0.0049,1.0234,0.2441,0.2441,-0.2441,1,492,856,2908
2131803926,420308,-0.0317,0.0049,1.0225,0.1221,0.1831,-0.3052,1,472,855,2908
2131808928,420309,-0.0308,0.0054,1.0225,0.1831,0.1221,-0.3052,1,485,842,2908
2131813925,420310,-0.0293,0.0049,1.0234,0.0610,0.1831,-0.3052,1,478,837,2908
2131818927,420311,-0.0283,0.0039,1.0234,0.1221,0.0610,-0.2441,1,492,842,2908
2131823929,420312,-0.0283,0.0029,1.0225,0.1221,0.2441,-0.3662,1,472,849,2908
2131828924,420313,-0.0308,0.0029,1.0220,0.0000,0.4272,-0.3052,1,492,848,2908
2131833928,420314,-0.0332,0.0029,1.0220,0.0000,0.3662,-0.3052,1,466,824,2908
2131838925,420315,-0.0332,0.0039,1.0220,0.0610,0.2441,-0.2441,1,466,829,2908
2131843931,420316,-0.0308,0.0044,1.0225,0.1221,0.1221,-0.3662,1,466,880,2908
2131848930,420317,-0.0293,0.0049,1.0239,0.0610,0.1221,-0.2441,1,483,867,2908
2131853925,420318,-0.0298,0.0039,1.0234,0.0000,0.1221,-0.3662,1,465,861,2908
2131858923,420319,-0.0308,0.0024,1.0215,0.1221,0.1221,-0.3662,1,484,828,2908
2131863923,420320,-0.0308,0.0029,1.0215,0.1831,0.3052,-0.3662,1,466,897,2908
2131868927,420321,-0.0308,0.0044,1.0225,0.3052,0.1831,-0.2441,1,465,861,2908
2131873923,420322,-0.0312,0.0049,1.0229,0.1221,0.1831,-0.2441,1,482,860,2908
2131878923,420323,-0.0308,0.0039,1.0225,0.1221,0.3662,-0.3052,1,467,901,2908
2131883934,420324,-0.0308,0.0039,1.0210,0.2441,0.3052,-0.3052,1,468,849,2908
2131888928,420325,-0.0308,0.0044,1.0205,0.1221,0.1221,-0.2441,1,481,846,2908
2131893928,420326,-0.0308,0.0044,1.0210,0.1831,0.1831,-0.2441,1,506,848,2908
2131898930,420327,-0.0322,0.0039,1.0205,0.1831,0.3052,-0.2441,1,490,854,2908
2131903925,420328,-0.0337,0.0034,1.0200,0.1831,0.0000,-0.3052,1,494,752,2908
2131908924,420329,-0.0327,0.0024,1.0205,0.1831,-0.0610,-0.3052,1,488,808,2908
2131913927,420330,-0.0317,0.0024,1.0220,0.3662,-0.0610,-0.2441,1,474,848,2908
2131918925,420331,-0.0317,0.0034,1.0234,0.3662,-0.0610,-0.3052,1,490,852,2908
2131923925,420332,-0.0317,0.0039,1.0239,0.3662,-0.1831,-0.3052,1,474,869,2908
2131928923,420333,-0.0288,0.0039,1.0249,0.3052,-0.3662,-0.2441,1,479,852,2908
2131933924,420334,-0.0278,0.0044,1.0254,0.1831,0.0000,-0.3662,1,486,851,2908
2131938930,420335,-0.0303,0.0054,1.0234,0.1221,0.0610,-0.4272,1,492,805,2908
2131943923,420336,-0.0332,0.0059,1.0205,0.3052,0.0000,-0.2441,1,466,868,2908
2131948924,420337,-0.0342,0.0044,1.0200,0.2441,0.0000,-0.3052,1,466,826,2908
2131953924,420338,-0.0317,0.0029,1.0225,0.1831,0.0000,-0.3662,1,466,825,2908
2131958922,420339,-0.0288,0.0034,1.0249,0.2441,0.0000,-0.4272,1,466,833,2908
2131963924,420340,-0.0283,0.0039,1.0254,0.2441,0.0610,-0.3662,1,466,826,2908
2131968931,420341,-0.0298,0.0049,1.0239,0.2441,0.0610,-0.3662,1,485,868,2908
2131973923,420342,-0.0308,0.0059,1.0234,0.2441,0.1221,-0.3662,1,465,875,2908
2131978929,420343,-0.0308,0.0049,1.0229,0.2441,0.1831,-0.2441,1,481,861,2908
2131983931,420344,-0.0298,0.0029,1.0229,0.1221,0.2441,-0.3052,1,477,868,2908
2131988929,420345,-0.0298,0.0034,1.0220,0.1831,0.3052,-0.3052,1,479,863,2908
2131993947,420346,-0.0312,0.0039,1.0200,0.1831,0.2441,-0.3662,1,481,868,2908
2131998925,420347,-0.0327,0.0044,1.0190,0.1831,0.0610,-0.3052,1,465,886,2908
2132003928,420348,-0.0327,0.0049,1.0195,0.1831,0.0000,-0.1831,1,493,853,2908
2132008925,420349,-0.0308,0.0044,1.0220,0.1831,0.1221,-0.3052,1,505,813,2908
2132013924,420350,-0.0298,0.0049,1.0249,0.1831,0.1221,-0.3052,1,466,762,2908
2132018929,420351,-0.0298,0.0054,1.0264,0.1221,0.1221,-0.3052,1,479,852,2908
2132023925,420352,-0.0308,0.0049,1.0249,0.1221,0.0610,-0.3662,1,485,836,2908
2132028930,420353,-0.0303,0.0049,1.0229,0.1831,0.1221,-0.3662,1,475,841,2908
2132033929,420354,-0.0288,0.0044,1.0229,0.2441,0.1221,-0.2441,1,478,845,2908
2132038923,420355,-0.0303,0.0054,1.0225,0.1221,0.2441,-0.3052,1,490,850,2908
2132043923,420356,-0.0303,0.0059,1.0229,0.0000,0.3052,-0.1831,1,493,837,2908
2132048930,420357,-0.0293,0.0059,1.0239,0.0000,0.2441,-0.3052,1,493,795,2908
2132053923,420358,-0.0298,0.0054,1.0239,0.0000,0.3052,-0.3052,1,466,825,2908
2132058927,420359,-0.0308,0.0049,1.0234,0.0000,0.3052,-0.3662,1,466,823,2908
2132063927,420360,-0.0312,0.0049,1.0225,0.0610,0.3052,-0.3052,1,466,826,2908
2132068927,420361,-0.0312,0.0049,1.0229,-0.0610,0.1831,-0.1831,1,465,891,2908
2132073922,420362,-0.0293,0.0049,1.0234,0.0000,0.3052,-0.3052,1,484,903,2908
2132078927,420363,-0.0288,0.0054,1.0229,-0.0610,0.3052,-0.1831,1,465,811,2908
2132083924,420364,-0.0298,0.0063,1.0215,0.0000,0.1831,-0.1831,1,479,932,2908
2132088927,420365,-0.0303,0.0054,1.0205,0.0000,0.1831,-0.3662,1,466,830,2908
2132093924,420366,-0.0298,0.0044,1.0205,0.0000,0.2441,-0.2441,1,465,810,2908
2132098956,420367,-0.0298,0.0034,1.0215,0.0000,0.3052,-0.2441,1,472,813,2908
2132103923,420368,-0.0303,0.0024,1.0220,-0.1221,0.3052,-0.3662,1,467,809,2908
2132108929,420369,-0.0298,0.0029,1.0220,-0.0610,0.3052,-0.3662,1,484,850,2908
2132113926,420370,-0.0288,0.0034,1.0215,0.0000,0.2441,-0.3052,1,512,850,2908
2132118927,420371,-0.0298,0.0044,1.0210,0.1221,0.1831,-0.2441,1,493,776,2908
2132123922,420372,-0.0312,0.0049,1.0220,-0.0610,0.1831,-0.2441,1,490,852,2908
2132128923,420373,-0.0312,0.0044,1.0225,0.0000,0.0610,-0.2441,1,481,873,2908
2132133925,420374,-0.0298,0.0039,1.0229,0.0000,0.1221,-0.3662,1,492,846,2908
2132138925,420375,-0.0288,0.0029,1.0249,-0.0610,0.1831,-0.3662,1,478,802,2908
2132143925,420376,-0.0293,0.0034,1.0244,0.0000,0.1221,-0.3052,1,485,853,2908
2132148930,420377,-0.0293,0.0044,1.0225,0.0000,0.0610,-0.3052,1,483,796,2908
2132153925,420378,-0.0303,0.0049,1.0215,-0.0610,0.1831,-0.3052,1,493,794,2908
2132158928,420379,-0.0312,0.0044,1.0239,0.0000,0.1221,-0.3052,1,466,866,2908
2132163924,420380,-0.0312,0.0044,1.0259,0.0610,0.2441,-0.3052,1,466,848,2908
2132168922,420381,-0.0293,0.0039,1.0254,-0.0610,0.3052,-0.3052,1,483,895,2908
2132173928,420382,-0.0273,0.0034,1.0254,0.0000,0.3052,-0.2441,1,466,855,2908
2132178926,420383,-0.0278,0.0034,1.0244,0.0610,0.4883,-0.2441,1,484,830,2908
2132183930,420384,-0.0293,0.0039,1.0229,0.0000,0.4272,-0.2441,1,466,906,2908
2132188923,420385,-0.0303,0.0044,1.0234,0.0000,0.4883,-0.3052,1,467,832,2908
2132193925,420386,-0.0303,0.0054,1.0234,-0.0610,0.4272,-0.3052,1,479,776,2908
2132198926,420387,-0.0298,0.0054,1.0229,-0.0610,0.4883,-0.1831,1,479,822,2908
2132203930,420388,-0.0303,0.0063,1.0229,-0.0610,0.6104,-0.3052,1,481,856,2908
2132208928,420389,-0.0312,0.0068,1.0225,-0.1221,0.4883,-0.3052,1,474,849,2908
2132213927,420390,-0.0312,0.0059,1.0210,-0.1221,0.4883,-0.3052,1,484,876,2908
2132218928,420391,-0.0312,0.0049,1.0200,-0.1221,0.4272,-0.2441,1,475,869,2908
2132223928,420392,-0.0308,0.0049,1.0205,-0.0610,0.4883,-0.3052,1,493,844,2908
2132228925,420393,-0.0303,0.0054,1.0210,-0.0610,0.4883,-0.2441,1,489,846,2908
2132233930,420394,-0.0303,0.0054,1.0225,0.0610,0.4272,-0.2441,1,479,869,2908
2132238925,420395,-0.0303,0.0059,1.0234,-0.0610,0.4883,-0.3052,1,483,843,2908
2132243928,420396,-0.0308,0.0059,1.0244,-0.1221,0.6104,-0.3052,1,474,838,2908
2132248922,420397,-0.0308,0.0054,1.0239,-0.1221,0.4883,-0.3662,1,478,833,2908
2132253925,420398,-0.0308,0.0049,1.0225,-0.1221,0.5493,-0.2441,1,479,843,2908
2132258922,420399,-0.0308,0.0049,1.0220,-0.0610,0.5493,-0.1831,1,493,843,2908
2132263925,420400,-0.0308,0.0049,1.0229,-0.0610,0.4883,-0.2441,1,466,872,2908
2132268947,420401,-0.0303,0.0039,1.0225,-0.1831,0.6104,-0.3052,1,466,872,2908
2132273926,420402,-0.0308,0.0020,1.0210,-0.0610,0.6104,-0.1221,1,466,869,2908
2132278925,420403,-0.0312,0.0015,1.0210,-0.1831,0.4883,-0.2441,1,465,861,2908
2132283929,420404,-0.0312,0.0029,1.0229,-0.0610,0.4883,-0.3662,1,478,899,2908
2132288922,420405,-0.0312,0.0039,1.0229,-0.1221,0.5493,-0.2441,1,466,844,2908
2132293928,420406,-0.0317,0.0044,1.0229,-0.1831,0.7324,-0.2441,1,471,932,2908
2132298931,420407,-0.0317,0.0044,1.0239,-0.1221,0.7324,-0.3662,1,467,873,2908
2132303929,420408,-0.0322,0.0049,1.0239,-0.1221,0.6104,-0.3052,1,469,869,2908
2132308937,420409,-0.0327,0.0049,1.0229,-0.2441,0.5493,-0.3052,1,472,867,2908
2132313922,420410,-0.0317,0.0044,1.0210,-0.1221,0.6104,-0.3662,1,466,859,2908
2132318922,420411,-0.0312,0.0039,1.0190,0.0000,0.6714,-0.2441,1,472,850,2908
2132323928,420412,-0.0332,0.0034,1.0176,0.0000,0.5493,-0.3052,1,483,837,2908
2132328927,420413,-0.0342,0.0029,1.0186,0.0000,0.2441,-0.2441,1,490,736,2908
2132333923,420414,-0.0342,0.0024,1.0205,0.1221,0.3662,-0.1831,1,467,803,2908
2132338923,420415,-0.0327,0.0039,1.0225,0.0000,0.4272,-0.2441,1,487,847,2908
2132343928,420416,-0.0312,0.0049,1.0234,-0.0610,0.4883,-0.3052,1,492,805,2908
2132348925,420417,-0.0312,0.0059,1.0234,-0.0610,0.4272,-0.3052,1,475,866,2908
2132353930,420418,-0.0312,0.0049,1.0234,-0.1221,0.4272,-0.3052,1,473,888,2908
2132358928,420419,-0.0298,0.0024,1.0234,0.0000,0.3662,-0.1831,1,474,869,2908
2132363924,420420,-0.0298,0.0015,1.0234,0.0000,0.4272,-0.1221,1,481,807,2908
2132368924,420421,-0.0308,0.0029,1.0229,0.0610,0.4272,-0.3052,1,494,798,2908
2132373928,420422,-0.0308,0.0039,1.0229,0.0610,0.4272,-0.2441,1,466,870,2908
2132378943,420423,-0.0298,0.0039,1.0229,0.0000,0.5493,-0.3052,1,466,877,2908
2132383928,420424,-0.0308,0.0044,1.0225,-0.1221,0.6104,-0.1831,1,466,830,2908
2132388923,420425,-0.0312,0.0044,1.0220,-0.0610,0.4883,-0.2441,1,483,868,2908
2132393930,420426,-0.0322,0.0044,1.0225,0.0610,0.4272,-0.2441,1,476,898,2908
2132398922,420427,-0.0322,0.0054,1.0220,0.0610,0.3662,-0.1831,1,484,819,2908
2132403925,420428,-0.0317,0.0049,1.0220,-0.1221,0.3662,-0.3052,1,482,905,2908
2132408927,420429,-0.0312,0.0029,1.0215,-0.1221,0.4883,-0.3052,1,481,861,2908
2132413930,420430,-0.0303,0.0024,1.0205,-0.0610,0.4272,-0.1831,1,478,883,2908
2132418931,420431,-0.0293,0.0039,1.0220,-0.1831,0.3662,-0.2441,1,476,874,2908
2132423950,420432,-0.0293,0.0044,1.0234,-0.1221,0.4272,-0.1831,1,477,862,2908
2132428925,420433,-0.0303,0.0034,1.0239,0.0610,0.4883,-0.2441,1,483,856,2908
2132433930,420434,-0.0308,0.0029,1.0225,-0.0610,0.4883,-0.2441,1,504,856,2908
2132438923,420435,-0.0312,0.0039,1.0215,-0.0610,0.4883,-0.1221,1,504,851,2908
2132443924,420436,-0.0317,0.0044,1.0220,-0.1221,0.4883,-0.2441,1,466,792,2908
2132448927,420437,-0.0312,0.0039,1.0229,-0.0610,0.4883,-0.3052,1,487,817,2908
2132453931,420438,-0.0317,0.0034,1.0234,-0.0610,0.4883,-0.2441,1,483,870,2908
2132458922,420439,-0.0327,0.0034,1.0225,0.0000,0.3662,-0.3052,1,486,851,2908
2132463926,420440,-0.0317,0.0039,1.0215,0.1221,0.4272,-0.3052,1,479,801,2908
2132468930,420441,-0.0303,0.0054,1.0215,0.1221,0.5493,-0.3052,1,483,842,2908
2132473926,420442,-0.0308,0.0039,1.0220,0.1221,0.3662,-0.3052,1,478,838,2908
2132478926,420443,-0.0312,0.0020,1.0225,0.0610,0.3662,-0.1831,1,493,839,2908
2132483930,420444,-0.0322,0.0029,1.0225,0.0000,0.4272,-0.1831,1,466,899,2908
2132488941,420445,-0.0322,0.0029,1.0225,0.0000,0.3052,-0.1831,1,466,831,2908
2132493931,420446,-0.0308,0.0034,1.0234,0.1221,0.3052,-0.1831,1,466,830,2908
2132498927,420447,-0.0298,0.0044,1.0249,0.0610,0.4272,-0.2441,1,483,872,2908
2132503930,420448,-0.0308,0.0049,1.0244,0.0610,0.4272,-0.1831,1,469,865,2908
2132508930,420449,-0.0317,0.0044,1.0239,0.0610,0.3662,-0.2441,1,484,808,2908
2132513927,420450,-0.0322,0.0044,1.0225,0.0000,0.3662,-0.3052,1,474,906,2908
2132518924,420451,-0.0327,0.0044,1.0205,0.0610,0.3662,-0.2441,1,481,824,2908
2132523923,420452,-0.0327,0.0034,1.0200,0.0610,0.1221,-0.2441,1,466,876,2908
2132528931,420453,-0.0322,0.0029,1.0200,0.0610,0.2441,-0.3662,1,467,872,2908
2132533929,420454,-0.0327,0.0034,1.0205,0.0000,0.2441,-0.1831,1,482,858,2908
2132538928,420455,-0.0322,0.0039,1.0215,-0.1221,0.1831,-0.1831,1,482,817,2908
2132543923,420456,-0.0312,0.0034,1.0234,-0.1221,0.1831,-0.1831,1,483,859,2908
2132548922,420457,-0.0317,0.0024,1.0229,0.1221,0.1831,-0.3052,1,512,886,2908
2132553923,420458,-0.0317,0.0024,1.0225,0.1221,0.1831,-0.3052,1,493,804,2908
2132558925,420459,-0.0312,0.0034,1.0225,0.1221,0.2441,-0.1831,1,488,854,2908
2132563931,420460,-0.0312,0.0034,1.0220,0.1221,0.2441,-0.1831,1,490,873,2908
2132568923,420461,-0.0312,0.0024,1.0215,0.1831,0.0610,-0.2441,1,490,874,2908
2132573931,420462,-0.0312,0.0039,1.0215,0.1831,0.1221,-0.2441,1,481,895,2908
2132578925,420463,-0.0308,0.0044,1.0225,0.0610,0.3662,-0.3662,1,481,900,2908
2132583922,420464,-0.0308,0.0039,1.0225,0.1221,0.1831,-0.3662,1,481,844,2908
2132588927,420465,-0.0317,0.0039,1.0225,0.2441,0.1221,-0.2441,1,492,843,2908
2132593922,420466,-0.0317,0.0044,1.0225,0.2441,0.1221,-0.3052,1,465,877,2908
2132598928,420467,-0.0317,0.0054,1.0220,0.1221,0.1831,-0.2441,1,466,869,2908
2132603929,420468,-0.0317,0.0063,1.0225,0.2441,0.0000,-0.3052,1,465,876,2908
2132608929,420469,-0.0317,0.0059,1.0225,0.1831,0.0000,-0.1831,1,483,830,2908
2132613927,420470,-0.0308,0.0049,1.0225,0.1831,0.1221,-0.3052,1,466,772,2908
2132618930,420471,-0.0303,0.0049,1.0229,0.1831,0.0610,-0.3052,1,484,808,2908
2132623928,420472,-0.0308,0.0044,1.0229,0.0610,0.0000,-0.3662,1,466,896,2908
2132628925,420473,-0.0312,0.0039,1.0210,0.0610,0.1221,-0.4272,1,481,815,2908
2132633928,420474,-0.0322,0.0029,1.0205,0.1221,0.1221,-0.2441,1,482,885,2908
2132638925,420475,-0.0327,0.0029,1.0220,0.1221,0.0610,-0.2441,1,465,872,2908
2132643951,420476,-0.0327,0.0034,1.0220,0.0000,0.0610,-0.3662,1,467,855,2908
2132648926,420477,-0.0322,0.0039,1.0215,0.1221,0.0610,-0.1831,1,467,813,2908
2132653927,420478,-0.0317,0.0039,1.0225,0.1831,0.1221,-0.2441,1,492,855,2908
2132658926,420479,-0.0327,0.0049,1.0229,0.1221,0.1221,-0.3052,1,466,859,2908
2132663925,420480,-0.0327,0.0054,1.0225,0.1221,-0.0610,-0.2441,1,494,791,2908
2132668928,420481,-0.0312,0.0044,1.0225,0.0610,-0.0610,-0.3052,1,476,844,2908
2132673927,420482,-0.0308,0.0029,1.0225,0.0000,0.0000,-0.3052,1,482,863,2908
2132678929,420483,-0.0322,0.0034,1.0220,0.1221,0.1221,-0.2441,1,488,748,2908
2132683925,420484,-0.0332,0.0044,1.0215,0.1221,0.0610,-0.2441,1,490,845,2908
2132688924,420485,-0.0322,0.0044,1.0225,0.1221,-0.1221,-0.1831,1,492,843,2908
2132693926,420486,-0.0303,0.0049,1.0234,0.1221,-0.0610,-0.2441,1,474,844,2908
2132698929,420487,-0.0298,0.0059,1.0234,0.0610,0.0610,-0.3052,1,493,842,2908
2132703928,420488,-0.0308,0.0049,1.0215,0.0610,0.0000,-0.1831,1,466,837,2908
2132708925,420489,-0.0308,0.0039,1.0200,0.1221,0.0000,-0.3052,1,466,823,2908
2132713929,420490,-0.0303,0.0039,1.0205,0.0610,-0.1221,-0.4883,1,465,819,2908
2132718928,420491,-0.0308,0.0039,1.0225,0.1221,-0.0610,-0.3052,1,466,868,2908
2132723930,420492,-0.0312,0.0044,1.0234,0.1221,-0.0610,-0.2441,1,465,854,2908
2132728926,420493,-0.0308,0.0054,1.0220,0.1221,-0.0610,-0.3052,1,484,900,2908
2132733925,420494,-0.0303,0.0044,1.0210,0.0000,-0.0610,-0.3662,1,465,889,2908
2132738925,420495,-0.0298,0.0034,1.0220,0.0610,-0.0610,-0.3052,1,470,812,2908
2132743922,420496,-0.0293,0.0034,1.0229,0.1221,0.0610,-0.2441,1,470,858,2908
2132748927,420497,-0.0303,0.0044,1.0229,0.0000,0.2441,-0.3052,1,474,864,2908
2132753923,420498,-0.0317,0.0044,1.0225,0.0000,0.1221,-0.2441,1,471,807,2908
2132758923,420499,-0.0327,0.0029,1.0225,0.0610,0.1831,-0.1831,1,477,810,2908
2132763923,420500,-0.0317,0.0024,1.0234,0.0610,0.1221,-0.1831,1,470,859,2908
2132768926,420501,-0.0293,0.0039,1.0234,-0.0610,0.0610,-0.2441,1,483,858,2908
2132773923,420502,-0.0288,0.0044,1.0225,-0.0610,0.1831,-0.2441,1,494,856,2908
2132778925,420503,-0.0298,0.0034,1.0225,0.0610,0.0610,-0.3052,1,464,774,2908
2132783925,420504,-0.0312,0.0034,1.0225,0.1221,0.0000,-0.3662,1,486,862,2908
2132788927,420505,-0.0308,0.0039,1.0220,0.0610,0.0610,-0.3052,1,483,825,2908
2132793927,420506,-0.0293,0.0029,1.0215,0.0610,0.1221,-0.2441,1,488,838,2908
2132798929,420507,-0.0293,0.0029,1.0215,0.0000,0.1221,-0.2441,1,475,843,2908
2132803930,420508,-0.0298,0.0029,1.0225,0.1221,0.0000,-0.2441,1,482,798,2908
2132808928,420509,-0.0308,0.0034,1.0225,0.1221,0.0000,-0.4272,1,481,798,2908
2132813927,420510,-0.0308,0.0044,1.0225,0.0610,0.1221,-0.3662,1,493,797,2908
2132818927,420511,-0.0308,0.0054,1.0234,0.1221,0.0000,-0.3052,1,466,866,2908
2132823942,420512,-0.0312,0.0054,1.0229,0.0000,0.1221,-0.3662,1,466,819,2908
2132828922,420513,-0.0322,0.0044,1.0205,-0.1221,0.0000,-0.3662,1,466,854,2908
2132833923,420514,-0.0317,0.0034,1.0215,0.0610,0.0610,-0.3052,1,484,819,2908
2132838931,420515,-0.0308,0.0044,1.0215,0.0610,0.0000,-0.2441,1,474,859,2908
2132843926,420516,-0.0312,0.0054,1.0205,0.0610,0.1221,-0.3052,1,484,852,2908
2132848924,420517,-0.0322,0.0049,1.0220,0.0000,0.0000,-0.3052,1,476,889,2908
2132853925,420518,-0.0312,0.0034,1.0239,0.0610,-0.0610,-0.3662,1,481,732,2908
2132858922,420519,-0.0298,0.0029,1.0254,0.1221,0.0610,-0.2441,1,483,891,2908
2132863922,420520,-0.0298,0.0039,1.0259,0.0610,0.1221,-0.1831,1,469,869,2908
2132868924,420521,-0.0298,0.0044,1.0249,0.0000,0.2441,-0.3052,1,472,852,2908
2132873923,420522,-0.0308,0.0039,1.0244,-0.0610,0.2441,-0.2441,1,471,807,2908
2132878926,420523,-0.0312,0.0049,1.0234,0.0000,0.1831,-0.2441,1,484,858,2908
2132883925,420524,-0.0303,0.0054,1.0220,0.0000,0.1221,-0.2441,1,494,840,2908
2132888922,420525,-0.0283,0.0054,1.0225,0.0000,0.1831,-0.3052,1,493,804,2908
2132893925,420526,-0.0273,0.0049,1.0239,0.0000,0.1831,-0.3052,1,475,800,2908
2132898930,420527,-0.0293,0.0034,1.0234,-0.0610,0.3052,-0.2441,1,477,800,2908
2132903928,420528,-0.0308,0.0024,1.0229,-0.0610,0.4272,-0.2441,1,478,846,2908
2132908929,420529,-0.0308,0.0034,1.0225,0.0000,0.4272,-0.1831,1,484,850,2908
2132913925,420530,-0.0303,0.0044,1.0210,0.0000,0.4883,-0.3662,1,492,801,2908
2132918926,420531,-0.0303,0.0044,1.0210,0.0000,0.3662,-0.2441,1,491,795,2908
2132923925,420532,-0.0288,0.0039,1.0215,0.1221,0.2441,-0.3052,1,493,797,2908
2132928930,420533,-0.0293,0.0024,1.0210,0.1831,0.4883,-0.3052,1,466,872,2908
2132933924,420534,-0.0317,0.0015,1.0205,0.1221,0.4272,-0.3052,1,466,872,2908
2132938926,420535,-0.0317,0.0039,1.0215,0.1831,0.1831,-0.2441,1,483,868,2908
2132943923,420536,-0.0303,0.0054,1.0229,0.1221,0.2441,-0.2441,1,466,881,2908
2132948922,420537,-0.0303,0.0039,1.0229,0.0610,0.4883,-0.1831,1,484,864,2908
2132953926,420538,-0.0308,0.0044,1.0229,0.1831,0.2441,-0.1831,1,465,901,2908
2132958929,420539,-0.0317,0.0059,1.0234,0.0000,0.2441,-0.2441,1,466,868,2908
2132963931,420540,-0.0317,0.0054,1.0229,0.1221,0.2441,-0.2441,1,465,833,2908
2132968923,420541,-0.0308,0.0044,1.0225,0.0610,0.2441,-0.3052,1,465,877,2908
2132973947,420542,-0.0308,0.0044,1.0229,0.1221,0.3662,-0.2441,1,476,848,2908
2132978928,420543,-0.0293,0.0044,1.0229,0.0610,0.2441,-0.3052,1,479,854,2908
2132983926,420544,-0.0288,0.0044,1.0229,-0.0610,0.1831,-0.2441,1,499,854,2908
2132988927,420545,-0.0288,0.0044,1.0234,0.0000,0.2441,-0.3052,1,466,878,2908
2132993927,420546,-0.0293,0.0044,1.0239,-0.0610,0.3052,-0.3662,1,494,726,2908
2132998924,420547,-0.0298,0.0049,1.0239,-0.1221,0.4883,-0.3052,1,477,854,2908
2133003924,420548,-0.0288,0.0044,1.0234,0.0000,0.6104,-0.3662,1,490,839,2908
2133008927,420549,-0.0293,0.0034,1.0229,0.1221,0.4883,-0.3052,1,480,802,2908
2133013924,420550,-0.0303,0.0034,1.0215,0.0610,0.4883,-0.3052,1,485,863,2908
2133018931,420551,-0.0298,0.0034,1.0205,0.0610,0.3662,-0.3662,1,490,838,2908
2133023924,420552,-0.0293,0.0044,1.0215,0.0000,0.3662,-0.3052,1,491,849,2908
2133028922,420553,-0.0288,0.0049,1.0229,-0.0610,0.3662,-0.2441,1,493,795,2908
2133033930,420554,-0.0283,0.0059,1.0234,-0.1221,0.4272,-0.4272,1,466,880,2908
2133038927,420555,-0.0288,0.0059,1.0220,0.0000,0.4272,-0.3662,1,466,877,2908
2133043922,420556,-0.0298,0.0054,1.0210,0.0000,0.4272,-0.3662,1,483,830,2908
2133048923,420557,-0.0298,0.0049,1.0225,0.0000,0.4883,-0.2441,1,466,769,2908
2133053928,420558,-0.0298,0.0039,1.0234,-0.0610,0.3662,-0.2441,1,484,825,2908
2133058922,420559,-0.0303,0.0034,1.0234,0.0000,0.4272,-0.2441,1,465,906,2908
2133063926,420560,-0.0308,0.0029,1.0220,0.0000,0.4272,-0.3052,1,468,829,2908
2133068927,420561,-0.0312,0.0034,1.0220,-0.0610,0.4272,-0.3052,1,467,777,2908
2133073929,420562,-0.0317,0.0044,1.0220,0.0000,0.4883,-0.3662,1,472,889,2908
2133078952,420563,-0.0308,0.0044,1.0225,0.0000,0.4272,-0.3052,1,475,810,2908
2133083931,420564,-0.0303,0.0039,1.0220,-0.1221,0.4272,-0.2441,1,481,803,2908
2133088926,420565,-0.0303,0.0034,1.0225,-0.0610,0.4272,-0.2441,1,501,855,2908
2133093925,420566,-0.0312,0.0029,1.0229,0.0000,0.4883,-0.2441,1,466,872,2908
2133098930,420567,-0.0308,0.0029,1.0234,-0.1221,0.4272,-0.2441,1,494,754,2908
2133103925,420568,-0.0303,0.0039,1.0239,-0.1221,0.4272,-0.3052,1,483,856,2908
2133108928,420569,-0.0303,0.0039,1.0239,-0.1221,0.4272,-0.2441,1,477,842,2908
2133113929,420570,-0.0308,0.0044,1.0234,-0.0610,0.3662,-0.2441,1,483,847,2908
2133118930,420571,-0.0312,0.0049,1.0239,-0.1831,0.5493,-0.2441,1,490,867,2908
2133123931,420572,-0.0317,0.0044,1.0229,0.0000,0.4883,-0.2441,1,488,878,2908
2133128930,420573,-0.0327,0.0039,1.0215,0.0610,0.5493,-0.2441,1,469,806,2908
2133133930,420574,-0.0322,0.0039,1.0205,-0.0610,0.5493,-0.1221,1,493,851,2908
2133138926,420575,-0.0317,0.0029,1.0200,-0.1221,0.4272,-0.2441,1,466,875,2908
2133143928,420576,-0.0317,0.0015,1.0200,-0.0610,0.3662,-0.3052,1,466,877,2908
2133148926,420577,-0.0322,0.0024,1.0210,0.0000,0.4272,-0.3052,1,483,869,2908
2133153928,420578,-0.0322,0.0039,1.0210,0.0610,0.3662,-0.3662,1,465,818,2908
2133158927,420579,-0.0308,0.0044,1.0205,-0.0610,0.3052,-0.2441,1,484,867,2908
2133163923,420580,-0.0298,0.0044,1.0215,-0.0610,0.2441,-0.2441,1,465,896,2908
2133168929,420581,-0.0303,0.0044,1.0225,0.0610,0.3662,-0.2441,1,482,865,2908
2133173925,420582,-0.0317,0.0039,1.0229,0.0000,0.3052,-0.1831,1,482,861,2908
2133178928,420583,-0.0327,0.0024,1.0225,-0.0610,0.1831,-0.3662,1,468,813,2908
2133183945,420584,-0.0322,0.0024,1.0220,0.0000,0.1831,-0.3052,1,466,862,2908
2133188930,420585,-0.0312,0.0044,1.0215,-0.0610,0.3662,-0.3052,1,474,811,2908
2133193924,420586,-0.0303,0.0044,1.0220,-0.1831,0.4272,-0.3052,1,465,877,2908
2133198931,420587,-0.0308,0.0044,1.0220,-0.0610,0.3052,-0.3052,1,466,851,2908
2133203923,420588,-0.0312,0.0044,1.0215,0.0000,0.2441,-0.2441,1,494,860,2908
2133208923,420589,-0.0312,0.0044,1.0210,0.0610,0.1831,-0.2441,1,469,828,2908
2133213927,420590,-0.0308,0.0039,1.0220,-0.1221,0.2441,-0.3052,1,478,842,2908
2133218925,420591,-0.0303,0.0029,1.0229,-0.0610,0.1831,-0.2441,1,482,841,2908
2133223929,420592,-0.0312,0.0034,1.0234,0.0000,0.2441,-0.3052,1,484,848,2908
2133228925,420593,-0.0322,0.0044,1.0220,-0.0610,0.3052,-0.2441,1,486,827,2908
2133233927,420594,-0.0312,0.0049,1.0205,-0.0610,0.2441,-0.2441,1,477,845,2908
2133238927,420595,-0.0298,0.0039,1.0200,0.0000,0.3052,-0.2441,1,493,873,2908
2133243923,420596,-0.0298,0.0034,1.0200,0.0610,0.3052,-0.2441,1,466,798,2908
2133248926,420597,-0.0298,0.0034,1.0210,0.0000,0.2441,-0.1831,1,466,869,2908
2133253923,420598,-0.0303,0.0039,1.0239,0.0000,0.2441,-0.2441,1,466,831,2908
2133258930,420599,-0.0312,0.0054,1.0239,0.0610,0.3052,-0.3052,1,484,832,2908
2133263928,420600,-0.0322,0.0054,1.0229,0.0000,0.2441,-0.2441,1,466,892,2908
2133268925,420601,-0.0327,0.0044,1.0239,0.0000,0.1831,-0.3052,1,484,834,2908
2133273928,420602,-0.0317,0.0029,1.0239,0.0000,0.2441,-0.3052,1,466,818,2908
2133278922,420603,-0.0308,0.0024,1.0229,-0.0610,0.2441,-0.2441,1,466,828,2908
2133283931,420604,-0.0308,0.0029,1.0225,0.0000,0.1221,-0.3052,1,473,875,2908
2133288924,420605,-0.0298,0.0034,1.0225,0.0000,0.1831,-0.1831,1,465,801,2908
2133293926,420606,-0.0293,0.0039,1.0225,0.0000,0.1831,-0.1831,1,479,814,2908
2133298927,420607,-0.0303,0.0044,1.0220,-0.0610,0.3662,-0.2441,1,479,813,2908
2133303926,420608,-0.0298,0.0049,1.0225,0.0610,0.3052,-0.2441,1,498,855,2908
2133308923,420609,-0.0288,0.0044,1.0229,0.1831,0.3052,-0.1831,1,468,867,2908
2133313929,420610,-0.0283,0.0039,1.0220,0.0610,0.4272,-0.2441,1,493,773,2908
2133318926,420611,-0.0293,0.0039,1.0210,-0.0610,0.4883,-0.3052,1,482,803,2908
2133323929,420612,-0.0303,0.0034,1.0205,0.1221,0.3052,-0.3662,1,485,839,2908
2133328923,420613,-0.0308,0.0039,1.0205,0.1221,0.3052,-0.3662,1,490,841,2908
2133333930,420614,-0.0308,0.0049,1.0220,0.0000,0.3662,-0.3052,1,482,866,2908
2133338926,420615,-0.0298,0.0059,1.0234,0.1221,0.2441,-0.3662,1,483,793,2908
2133343930,420616,-0.0288,0.0049,1.0244,-0.0610,0.4272,-0.3662,1,472,846,2908
2133348926,420617,-0.0293,0.0049,1.0234,0.0000,0.4272,-0.2441,1,493,850,2908
2133353923,420618,-0.0308,0.0059,1.0225,0.0000,0.4883,-0.2441,1,466,804,2908
2133358925,420619,-0.0317,0.0044,1.0220,0.0000,0.4272,-0.3052,1,466,822,2908
2133363927,420620,-0.0317,0.0039,1.0215,0.1221,0.4272,-0.3662,1,465,827,2908
2133368928,420621,-0.0312,0.0039,1.0210,0.0610,0.3662,-0.2441,1,484,877,2908
2133373930,420622,-0.0303,0.0039,1.0215,0.0610,0.4272,-0.2441,1,475,902,2908
2133378928,420623,-0.0293,0.0034,1.0229,0.0000,0.3052,-0.3052,1,466,872,2908
2133383930,420624,-0.0293,0.0029,1.0225,0.0610,0.3052,-0.2441,1,465,814,2908
2133388923,420625,-0.0308,0.0039,1.0215,0.0610,0.3662,-0.3662,1,465,860,2908
2133393929,420626,-0.0312,0.0049,1.0205,0.0610,0.3052,-0.3052,1,476,864,2908
2133398928,420627,-0.0308,0.0049,1.0215,-0.0610,0.1221,-0.3662,1,470,890,2908
2133403955,420628,-0.0303,0.0059,1.0229,0.0610,0.3052,-0.3052,1,472,849,2908
2133408928,420629,-0.0308,0.0059,1.0244,0.0610,0.3052,-0.1831,1,467,843,2908
2133413923,420630,-0.0312,0.0044,1.0249,0.0610,0.1221,-0.2441,1,507,849,2908
2133418924,420631,-0.0312,0.0034,1.0244,0.1221,0.1831,-0.2441,1,490,880,2908
2133423928,420632,-0.0303,0.0029,1.0234,0.0000,0.2441,-0.2441,1,494,904,2908
2133428927,420633,-0.0298,0.0029,1.0225,-0.0610,0.2441,-0.3052,1,470,803,2908
2133433929,420634,-0.0303,0.0039,1.0215,0.0610,0.2441,-0.3052,1,477,842,2908
2133438929,420635,-0.0308,0.0044,1.0210,0.0000,0.3052,-0.2441,1,481,841,2908
2133443925,420636,-0.0308,0.0039,1.0220,0.0610,0.3052,-0.3052,1,489,792,2908
2133448930,420637,-0.0308,0.0039,1.0229,-0.0610,0.3052,-0.3662,1,480,834,2908
2133453924,420638,-0.0312,0.0039,1.0225,0.0000,0.3662,-0.3052,1,473,844,2908
2133458928,420639,-0.0312,0.0039,1.0220,-0.0610,0.2441,-0.3662,1,492,825,2908
2133463923,420640,-0.0303,0.0034,1.0225,0.0000,0.4883,-0.3052,1,466,902,2908
2133468929,420641,-0.0308,0.0034,1.0225,0.0610,0.3052,-0.2441,1,466,822,2908
2133473923,420642,-0.0312,0.0044,1.0220,0.0000,0.3052,-0.3662,1,466,870,2908
2133478924,420643,-0.0312,0.0054,1.0210,0.0000,0.3662,-0.4272,1,465,841,2908
2133483925,420644,-0.0303,0.0054,1.0210,0.1221,0.2441,-0.3052,1,484,788,2908
2133488922,420645,-0.0308,0.0049,1.0215,0.0610,0.1831,-0.3052,1,465,891,2908
2133493923,420646,-0.0308,0.0054,1.0215,-0.0610,0.1831,-0.2441,1,482,856,2908
2133498927,420647,-0.0303,0.0054,1.0229,-0.0610,0.2441,-0.2441,1,465,870,2908
2133503927,420648,-0.0293,0.0059,1.0239,-0.1221,0.3662,-0.2441,1,465,875,2908
2133508928,420649,-0.0298,0.0054,1.0249,0.0000,0.4272,-0.3662,1,471,855,2908
2133513923,420650,-0.0308,0.0044,1.0239,0.1221,0.3662,-0.3052,1,469,813,2908
2133518925,420651,-0.0322,0.0034,1.0225,0.0610,0.3662,-0.2441,1,493,849,2908
2133523926,420652,-0.0327,0.0029,1.0229,0.0000,0.2441,-0.1221,1,511,861,2908
2133528923,420653,-0.0308,0.0034,1.0229,0.1221,0.3052,-0.2441,1,484,729,2908
2133533926,420654,-0.0288,0.0034,1.0229,0.1221,0.3052,-0.2441,1,466,823,2908
2133538925,420655,-0.0288,0.0034,1.0234,0.0000,0.3662,-0.3662,1,480,847,2908
2133543929,420656,-0.0298,0.0034,1.0229,0.0610,0.3662,-0.3052,1,487,808,2908
2133548927,420657,-0.0308,0.0039,1.0215,0.1221,0.3052,-0.3052,1,489,845,2908
2133553923,420658,-0.0312,0.0049,1.0220,0.0610,0.3662,-0.3052,1,475,834,2908
2133558925,420659,-0.0308,0.0049,1.0234,0.1831,0.3662,-0.2441,1,476,865,2908
2133563924,420660,-0.0308,0.0039,1.0234,0.0610,0.3052,-0.3052,1,475,850,2908
2133568925,420661,-0.0303,0.0039,1.0234,0.0000,0.3662,-0.3052,1,493,838,2908
2133573923,420662,-0.0298,0.0044,1.0229,0.0000,0.2441,-0.3662,1,466,827,2908
2133578927,420663,-0.0312,0.0044,1.0234,0.0610,0.3662,-0.3052,1,465,834,2908
2133583923,420664,-0.0327,0.0034,1.0244,0.0000,0.3052,-0.3052,1,483,897,2908
2133588924,420665,-0.0332,0.0029,1.0239,0.1221,0.1221,-0.1831,1,466,817,2908
2133593929,420666,-0.0322,0.0034,1.0220,0.0610,0.1831,-0.2441,1,485,864,2908
2133598925,420667,-0.0312,0.0044,1.0215,0.0000,0.2441,-0.2441,1,465,878,2908
2133603926,420668,-0.0312,0.0049,1.0225,0.0000,0.1831,-0.1221,1,482,846,2908
2133608926,420669,-0.0312,0.0054,1.0234,0.0610,0.1221,-0.1221,1,483,848,2908
2133613926,420670,-0.0312,0.0054,1.0239,0.0610,0.1221,-0.2441,1,466,883,2908
2133618932,420671,-0.0308,0.0039,1.0234,0.0610,0.2441,-0.3052,1,467,898,2908
2133623947,420672,-0.0308,0.0029,1.0234,0.1221,0.2441,-0.2441,1,466,853,2908
2133628930,420673,-0.0312,0.0034,1.0234,0.0610,0.2441,-0.3662,1,467,855,2908
2133633925,420674,-0.0317,0.0044,1.0229,0.0000,0.3052,-0.2441,1,511,886,2908
2133638930,420675,-0.0317,0.0039,1.0215,0.0000,0.3052,-0.3052,1,490,726,2908
2133643926,420676,-0.0322,0.0039,1.0220,0.0610,0.2441,-0.3662,1,465,796,2908
2133648930,420677,-0.0312,0.0049,1.0220,0.1221,0.1831,-0.3052,1,482,822,2908
2133653928,420678,-0.0308,0.0049,1.0229,0.1221,0.3052,-0.2441,1,483,875,2908
2133658925,420679,-0.0303,0.0039,1.0239,0.1221,0.3052,-0.2441,1,483,840,2908
2133663931,420680,-0.0308,0.0029,1.0225,0.0610,0.3052,-0.2441,1,471,844,2908
2133668924,420681,-0.0317,0.0029,1.0205,-0.0610,0.3052,-0.2441,1,473,839,2908
2133673926,420682,-0.0317,0.0034,1.0205,0.0000,0.2441,-0.1831,1,479,845,2908
2133678930,420683,-0.0308,0.0034,1.0220,0.1221,0.1831,-0.2441,1,493,807,2908
2133683923,420684,-0.0303,0.0029,1.0229,0.0610,0.1831,-0.2441,1,466,875,2908
2133688923,420685,-0.0303,0.0029,1.0234,0.0610,0.1831,-0.3052,1,466,875,2908
2133693926,420686,-0.0303,0.0034,1.0229,0.0000,0.3052,-0.3662,1,483,871,2908
2133698929,420687,-0.0308,0.0034,1.0225,0.0610,0.3052,-0.1831,1,465,772,2908
2133703922,420688,-0.0312,0.0039,1.0220,0.1221,0.3662,-0.2441,1,484,858,2908
2133708929,420689,-0.0312,0.0044,1.0215,0.0610,0.2441,-0.1831,1,465,901,2908
2133713924,420690,-0.0308,0.0044,1.0205,0.0000,0.4272,-0.2441,1,482,927,2908
2133718926,420691,-0.0308,0.0039,1.0200,0.0000,0.3662,-0.3662,1,468,827,2908
2133723925,420692,-0.0308,0.0034,1.0200,0.0610,0.2441,-0.3662,1,470,811,2908
2133728929,420693,-0.0308,0.0039,1.0205,0.0000,0.3052,-0.2441,1,474,856,2908
2133733928,420694,-0.0303,0.0054,1.0210,-0.0610,0.2441,-0.1831,1,469,807,2908
2133738922,420695,-0.0298,0.0063,1.0225,0.0000,0.3052,-0.2441,1,464,853,2908
2133743927,420696,-0.0298,0.0059,1.0229,0.0000,0.2441,-0.2441,1,466,722,2908
2133748928,420697,-0.0303,0.0044,1.0225,0.0610,0.1831,-0.3052,1,494,726,2908
2133753925,420698,-0.0303,0.0034,1.0225,-0.0610,0.3052,-0.3052,1,464,763,2908
2133758926,420699,-0.0303,0.0034,1.0225,0.0000,0.3662,-0.1831,1,488,847,2908
2133763930,420700,-0.0303,0.0044,1.0220,0.0000,0.4883,-0.3052,1,490,802,2908
2133768928,420701,-0.0303,0.0049,1.0215,-0.1221,0.3662,-0.2441,1,473,791,2908
2133773924,420702,-0.0303,0.0044,1.0210,-0.0610,0.3052,-0.1221,1,480,845,2908
2133778924,420703,-0.0312,0.0029,1.0210,-0.0610,0.2441,-0.3052,1,490,833,2908
2133783929,420704,-0.0312,0.0039,1.0215,0.0610,0.3662,-0.3662,1,488,867,2908
2133788931,420705,-0.0312,0.0039,1.0215,0.0610,0.3662,-0.2441,1,492,873,2908
2133793922,420706,-0.0312,0.0034,1.0225,0.0610,0.3052,-0.2441,1,466,901,2908
2133798922,420707,-0.0303,0.0029,1.0229,0.0610,0.1831,-0.3052,1,466,898,2908
2133803925,420708,-0.0293,0.0034,1.0229,0.1221,0.0610,-0.2441,1,483,871,2908
2133808923,420709,-0.0293,0.0039,1.0220,0.1831,0.1831,-0.2441,1,465,874,2908
2133813927,420710,-0.0303,0.0044,1.0210,0.1831,0.0610,-0.3052,1,484,869,2908
2133818924,420711,-0.0308,0.0044,1.0220,0.0610,0.1831,-0.3662,1,465,863,2908
2133823922,420712,-0.0312,0.0044,1.0225,-0.1221,0.1221,-0.3052,1,466,928,2908
2133828922,420713,-0.0312,0.0044,1.0220,0.0610,0.1221,-0.1831,1,466,879,2908
2133833925,420714,-0.0303,0.0049,1.0215,0.0000,0.1221,-0.2441,1,466,893,2908
2133838927,420715,-0.0303,0.0044,1.0225,0.0000,0.2441,-0.3662,1,479,805,2908
2133843930,420716,-0.0308,0.0039,1.0234,-0.0610,0.1831,-0.1831,1,475,809,2908
2133848922,420717,-0.0303,0.0039,1.0239,0.0610,0.1831,-0.3052,1,472,858,2908
2133853924,420718,-0.0298,0.0054,1.0239,0.0000,0.2441,-0.3052,1,497,852,2908
2133858928,420719,-0.0303,0.0068,1.0244,0.0000,0.1831,-0.3662,1,510,808,2908
2133863930,420720,-0.0303,0.0063,1.0234,0.0610,0.1831,-0.3662,1,477,760,2908
2133868931,420721,-0.0303,0.0039,1.0229,0.0000,0.3052,-0.2441,1,493,805,2908
2133873930,420722,-0.0303,0.0034,1.0234,-0.0610,0.2441,-0.2441,1,488,799,2908
2133878924,420723,-0.0298,0.0044,1.0239,-0.0610,0.2441,-0.2441,1,474,850,2908
2133883929,420724,-0.0303,0.0054,1.0229,0.0000,0.1221,-0.3052,1,487,849,2908
2133888922,420725,-0.0308,0.0044,1.0220,0.0610,0.1831,-0.2441,1,487,791,2908
2133893924,420726,-0.0308,0.0034,1.0220,0.0610,0.3052,-0.3052,1,492,844,2908
2133898925,420727,-0.0303,0.0024,1.0220,-0.0610,0.1831,-0.3052,1,492,836,2908
2133903927,420728,-0.0298,0.0024,1.0220,0.0000,0.1831,-0.2441,1,493,841,2908
2133908923,420729,-0.0303,0.0034,1.0215,0.0610,0.1831,-0.2441,1,465,832,2908
2133913929,420730,-0.0312,0.0039,1.0210,0.1831,0.0610,-0.2441,1,466,875,2908
2133918930,420731,-0.0312,0.0039,1.0210,0.1221,0.0000,-0.3052,1,465,901,2908
2133923928,420732,-0.0308,0.0039,1.0225,0.1221,0.1831,-0.4272,1,484,846,2908
2133928923,420733,-0.0308,0.0034,1.0234,0.1831,0.1831,-0.3052,1,475,861,2908
2133933924,420734,-0.0308,0.0044,1.0225,0.1221,0.1221,-0.3052,1,466,874,2908
2133938928,420735,-0.0298,0.0049,1.0220,0.0610,0.1221,-0.3052,1,482,902,2908
2133943925,420736,-0.0303,0.0049,1.0225,0.1221,0.1831,-0.1221,1,480,855,2908
2133948925,420737,-0.0312,0.0054,1.0225,0.0610,0.3662,-0.2441,1,482,863,2908
2133953923,420738,-0.0312,0.0044,1.0225,0.0610,0.0610,-0.2441,1,480,890,2908
2133958929,420739,-0.0303,0.0034,1.0225,0.1831,0.0610,-0.3052,1,466,879,2908
2133963931,420740,-0.0288,0.0039,1.0239,0.0610,0.1831,-0.2441,1,478,851,2908
2133968930,420741,-0.0293,0.0054,1.0239,0.0000,0.1831,-0.2441,1,470,862,2908
2133973926,420742,-0.0298,0.0063,1.0234,0.0000,0.1831,-0.2441,1,466,765,2908
2133978922,420743,-0.0303,0.0059,1.0234,0.0610,0.1831,-0.1831,1,494,731,2908
2133983928,420744,-0.0308,0.0049,1.0234,0.0610,0.1831,0.0000,1,468,768,2908
2133988923,420745,-0.0317,0.0039,1.0229,-0.0610,0.1831,-0.1831,1,490,799,2908
2133993926,420746,-0.0312,0.0044,1.0234,0.0000,0.2441,-0.3052,1,490,852,2908
2133998930,420747,-0.0312,0.0044,1.0229,0.0610,0.1831,-0.3052,1,473,846,2908
2134003925,420748,-0.0308,0.0029,1.0225,0.0610,0.1831,-0.3052,1,471,890,2908
2134008930,420749,-0.0303,0.0020,1.0215,0.1221,0.1831,-0.3052,1,485,839,2908
2134013924,420750,-0.0308,0.0034,1.0215,0.0610,0.0000,-0.3662,1,480,837,2908
2134018925,420751,-0.0317,0.0049,1.0215,0.0000,0.1221,-0.3662,1,493,798,2908
2134023928,420752,-0.0303,0.0039,1.0215,0.0000,0.1221,-0.3662,1,466,826,2908
2134028930,420753,-0.0293,0.0044,1.0220,0.0610,0.2441,-0.2441,1,466,824,2908
2134033923,420754,-0.0298,0.0054,1.0229,0.0610,0.3052,-0.3662,1,483,875,2908
2134038931,420755,-0.0298,0.0049,1.0229,0.0000,0.1221,-0.3662,1,465,862,2908
2134043927,420756,-0.0298,0.0049,1.0225,0.0610,0.2441,-0.3052,1,484,818,2908
2134048928,420757,-0.0303,0.0049,1.0225,-0.0610,0.2441,-0.3052,1,465,896,2908
2134053926,420758,-0.0308,0.0039,1.0220,0.0000,0.2441,-0.3052,1,469,856,2908
2134058928,420759,-0.0317,0.0029,1.0215,0.1221,0.0610,-0.2441,1,472,815,2908
2134063928,420760,-0.0322,0.0034,1.0210,0.0610,0.0610,-0.3052,1,470,863,2908
2134068929,420761,-0.0312,0.0039,1.0229,0.1831,0.1221,-0.2441,1,468,868,2908
2134073941,420762,-0.0298,0.0044,1.0239,0.0610,0.0000,-0.2441,1,471,886,2908
2134078930,420763,-0.0293,0.0049,1.0234,0.0610,0.1831,-0.3052,1,479,811,2908
2134083927,420764,-0.0298,0.0044,1.0229,0.0000,0.1831,-0.3662,1,507,851,2908
2134088929,420765,-0.0298,0.0044,1.0220,-0.1221,0.4272,-0.3662,1,475,784,2908
2134093924,420766,-0.0298,0.0049,1.0220,-0.1221,0.3052,-0.1831,1,490,872,2908
2134098931,420767,-0.0303,0.0039,1.0225,-0.1221,0.3052,-0.2441,1,464,848,2908
2134103929,420768,-0.0312,0.0024,1.0229,-0.1221,0.3052,-0.2441,1,478,839,2908
2134108929,420769,-0.0308,0.0020,1.0229,-0.1221,0.3052,-0.2441,1,484,873,2908
2134113929,420770,-0.0312,0.0024,1.0215,0.0000,0.3052,-0.2441,1,489,841,2908
2134118922,420771,-0.0317,0.0029,1.0205,0.0610,0.1831,-0.3662,1,475,824,2908
2134123923,420772,-0.0312,0.0034,1.0220,0.1831,0.1831,-0.3052,1,479,850,2908
2134128930,420773,-0.0298,0.0049,1.0239,0.0000,0.0610,-0.3662,1,481,875,2908
2134133927,420774,-0.0283,0.0054,1.0249,0.0610,0.1221,-0.3052,1,493,800,2908
2134138933,420775,-0.0288,0.0049,1.0249,0.0000,0.1221,-0.3052,1,466,869,2908
2134143924,420776,-0.0298,0.0044,1.0239,0.1831,0.1831,-0.3662,1,465,825,2908
2134148928,420777,-0.0293,0.0049,1.0225,0.1221,0.2441,-0.3662,1,483,881,2908
2134153924,420778,-0.0283,0.0049,1.0234,0.0610,0.1831,-0.3052,1,465,862,2908
2134158924,420779,-0.0283,0.0044,1.0249,-0.1221,0.1831,-0.3052,1,483,863,2908
2134163930,420780,-0.0288,0.0039,1.0234,0.0000,0.2441,-0.3662,1,466,901,2908
2134168929,420781,-0.0298,0.0039,1.0225,0.0610,0.3052,-0.3052,1,482,826,2908
2134173926,420782,-0.0298,0.0029,1.0225,0.0000,0.3662,-0.1831,1,482,856,2908
2134178925,420783,-0.0293,0.0034,1.0234,0.0610,0.1831,-0.2441,1,465,812,2908
2134183923,420784,-0.0293,0.0044,1.0249,-0.0610,0.3052,-0.3662,1,467,861,2908
2134188929,420785,-0.0293,0.0054,1.0244,-0.1221,0.3052,-0.3662,1,469,854,2908
2134193931,420786,-0.0303,0.0063,1.0229,0.0000,0.4272,-0.2441,1,478,851,2908
2134198925,420787,-0.0312,0.0063,1.0215,0.0610,0.4883,-0.2441,1,510,813,2908
2134203924,420788,-0.0303,0.0044,1.0210,0.0000,0.3662,-0.2441,1,472,898,2908
2134208922,420789,-0.0293,0.0034,1.0220,-0.1221,0.3052,-0.3662,1,493,777,2908
2134213925,420790,-0.0293,0.0029,1.0229,0.0000,0.4272,-0.3052,1,489,852,2908
2134218926,420791,-0.0298,0.0034,1.0229,-0.0610,0.5493,-0.3052,1,490,800,2908
2134223931,420792,-0.0303,0.0039,1.0225,-0.0610,0.4883,-0.3052,1,490,847,2908
2134228928,420793,-0.0308,0.0034,1.0215,0.0000,0.4883,-0.3052,1,490,837,2908
2134233925,420794,-0.0312,0.0029,1.0215,0.0000,0.5493,-0.1831,1,476,794,2908
2134238926,420795,-0.0317,0.0039,1.0205,0.0000,0.5493,-0.2441,1,483,827,2908
2134243929,420796,-0.0308,0.0044,1.0205,0.0000,0.5493,-0.2441,1,492,806,2908
2134248927,420797,-0.0293,0.0044,1.0220,0.0610,0.4272,-0.1831,1,466,827,2908
2134253924,420798,-0.0293,0.0044,1.0220,0.0610,0.4883,-0.1831,1,466,872,2908
2134258922,420799,-0.0298,0.0044,1.0200,0.0000,0.3052,-0.3052,1,465,871,2908
2134263924,420800,-0.0312,0.0039,1.0190,0.1221,0.2441,-0.3662,1,466,809,2908
2134268926,420801,-0.0308,0.0034,1.0210,0.0610,0.2441,-0.2441,1,484,901,2908
2134273923,420802,-0.0298,0.0029,1.0225,0.0000,0.3052,-0.2441,1,465,873,2908
2134278928,420803,-0.0303,0.0039,1.0234,0.0000,0.5493,-0.1831,1,470,815,2908
2134283930,420804,-0.0308,0.0044,1.0229,0.0000,0.3662,-0.1831,1,467,823,2908
2134288928,420805,-0.0303,0.0049,1.0220,0.0610,0.2441,-0.2441,1,467,830,2908
2134293923,420806,-0.0303,0.0063,1.0225,0.0610,0.2441,-0.2441,1,467,872,2908
2134298928,420807,-0.0298,0.0068,1.0225,0.0000,0.3052,-0.2441,1,474,857,2908
2134303923,420808,-0.0298,0.0049,1.0220,0.0610,0.3662,-0.3052,1,466,809,2908
2134308930,420809,-0.0298,0.0039,1.0215,0.0610,0.1831,-0.1831,1,509,851,2908
2134313927,420810,-0.0298,0.0039,1.0210,0.0000,0.3662,-0.3052,1,466,875,2908
2134318931,420811,-0.0308,0.0029,1.0205,-0.0610,0.3052,-0.3052,1,493,752,2908
2134323926,420812,-0.0312,0.0024,1.0205,0.0000,0.3662,-0.3052,1,475,797,2908
2134328926,420813,-0.0303,0.0029,1.0205,0.0610,0.3052,-0.2441,1,476,825,2908
2134333931,420814,-0.0298,0.0029,1.0200,0.1221,0.3662,-0.1831,1,482,840,2908
2134338929,420815,-0.0303,0.0034,1.0205,0.0000,0.3052,-0.3052,1,483,845,2908
2134343924,420816,-0.0308,0.0034,1.0210,0.0610,0.3052,-0.3662,1,490,791,2908
2134348922,420817,-0.0312,0.0034,1.0220,0.1221,0.2441,-0.3052,1,478,839,2908
2134353923,420818,-0.0312,0.0049,1.0225,0.0610,0.1831,-0.1831,1,493,870,2908
2134358931,420819,-0.0312,0.0059,1.0229,0.0610,0.1831,-0.1831,1,493,872,2908
2134363935,420820,-0.0312,0.0049,1.0234,0.0000,0.3662,-0.3052,1,466,899,2908
2134368923,420821,-0.0312,0.0039,1.0234,0.0000,0.3052,-0.2441,1,466,852,2908
2134373924,420822,-0.0312,0.0034,1.0234,0.0000,0.2441,-0.1221,1,483,854,2908
2134378926,420823,-0.0303,0.0029,1.0229,0.0610,0.3662,-0.2441,1,465,847,2908
2134383927,420824,-0.0293,0.0034,1.0225,-0.0610,0.3662,-0.3052,1,484,820,2908
2134388925,420825,-0.0298,0.0039,1.0220,0.0000,0.3662,-0.3662,1,465,898,2908
2134393923,420826,-0.0312,0.0044,1.0215,0.0000,0.3052,-0.3052,1,469,829,2908
2134398929,420827,-0.0308,0.0039,1.0220,0.0610,0.2441,-0.3052,1,469,835,2908
2134403922,420828,-0.0298,0.0039,1.0225,0.0610,0.1831,-0.1831,1,466,867,2908
2134408926,420829,-0.0298,0.0044,1.0234,0.0610,0.3052,-0.3052,1,472,858,2908
2134413924,420830,-0.0303,0.0044,1.0239,0.0000,0.2441,-0.3052,1,470,847,2908
2134418928,420831,-0.0308,0.0034,1.0239,-0.0610,0.3662,-0.3052,1,467,807,2908
2134423923,420832,-0.0308,0.0024,1.0239,0.0000,0.3052,-0.2441,1,466,855,2908
2134428928,420833,-0.0303,0.0034,1.0229,-0.0610,0.2441,-0.3052,1,473,753,2908
2134433924,420834,-0.0298,0.0044,1.0220,0.0000,0.3662,-0.3052,1,493,764,2908
2134438928,420835,-0.0298,0.0054,1.0215,0.0610,0.4883,-0.3052,1,489,798,2908
2134443929,420836,-0.0303,0.0049,1.0215,-0.0610,0.3052,-0.2441,1,492,837,2908
2134448922,420837,-0.0317,0.0044,1.0210,-0.0610,0.3052,-0.2441,1,474,839,2908
2134453923,420838,-0.0317,0.0044,1.0220,0.0000,0.3052,-0.2441,1,485,862,2908
2134458928,420839,-0.0312,0.0049,1.0225,-0.1221,0.3662,-0.2441,1,482,798,2908
2134463926,420840,-0.0312,0.0049,1.0215,0.0610,0.3052,-0.1831,1,481,872,2908
2134468928,420841,-0.0312,0.0049,1.0215,-0.0610,0.1831,-0.3052,1,493,866,2908
2134473931,420842,-0.0317,0.0044,1.0220,-0.0610,0.3052,-0.3052,1,466,894,2908
2134478930,420843,-0.0322,0.0044,1.0229,0.0000,0.4272,-0.3052,1,466,865,2908
2134483931,420844,-0.0308,0.0034,1.0225,0.1221,0.3662,-0.2441,1,483,831,2908
2134488928,420845,-0.0298,0.0029,1.0225,0.0000,0.3052,-0.1831,1,465,873,2908
2134493929,420846,-0.0298,0.0034,1.0225,-0.0610,0.3052,-0.2441,1,485,825,2908
2134498925,420847,-0.0298,0.0044,1.0215,-0.1221,0.3662,-0.3052,1,465,901,2908
2134503927,420848,-0.0293,0.0044,1.0215,-0.0610,0.3662,-0.3662,1,483,857,2908
2134508929,420849,-0.0283,0.0049,1.0239,-0.0610,0.3662,-0.3052,1,482,864,2908
2134513926,420850,-0.0278,0.0049,1.0249,-0.1221,0.4883,-0.2441,1,465,872,2908
2134518927,420851,-0.0293,0.0039,1.0220,-0.0610,0.6104,-0.2441,1,467,858,2908
2134523934,420852,-0.0317,0.0034,1.0195,-0.1221,0.5493,-0.2441,1,469,882,2908
2134528924,420853,-0.0317,0.0039,1.0200,-0.1221,0.4272,-0.1221,1,480,863,2908
2134533925,420854,-0.0303,0.0034,1.0229,-0.0610,0.5493,-0.2441,1,510,854,2908
2134538925,420855,-0.0298,0.0039,1.0249,0.0000,0.4883,-0.2441,1,474,877,2908
2134543924,420856,-0.0298,0.0049,1.0244,0.0000,0.6714,-0.1221,1,494,774,2908
2134548923,420857,-0.0303,0.0044,1.0220,-0.0610,0.4883,-0.1221,1,488,796,2908
2134553923,420858,-0.0308,0.0029,1.0205,0.0000,0.6104,-0.1831,1,472,836,2908
2134558926,420859,-0.0308,0.0029,1.0205,-0.1221,0.4883,-0.1831,1,488,796,2908
2134563930,420860,-0.0303,0.0044,1.0215,-0.1221,0.6714,-0.1831,1,492,842,2908
2134568922,420861,-0.0298,0.0039,1.0225,-0.1221,0.6104,-0.3052,1,490,840,2908
2134573930,420862,-0.0273,0.0034,1.0234,-0.0610,0.6104,-0.2441,1,481,837,2908
2134578930,420863,-0.0273,0.0039,1.0249,0.0000,0.7324,-0.1221,1,493,849,2908
2134583923,420864,-0.0288,0.0044,1.0249,-0.1221,0.8545,-0.1831,1,466,804,2908
2134588944,420865,-0.0303,0.0039,1.0254,-0.1831,0.9155,-0.1831,1,466,876,2908
2134593924,420866,-0.0317,0.0034,1.0239,-0.1221,0.8545,-0.1831,1,466,876,2908
2134598927,420867,-0.0337,0.0034,1.0205,-0.1831,0.7935,-0.1221,1,465,879,2908
2134603930,420868,-0.0337,0.0029,1.0200,-0.1221,0.6714,-0.1831,1,473,864,2908
2134608925,420869,-0.0322,0.0024,1.0215,-0.0610,0.6104,-0.3052,1,484,861,2908
2134613926,420870,-0.0308,0.0029,1.0229,-0.1831,0.6714,-0.3052,1,479,897,2908
2134618923,420871,-0.0308,0.0039,1.0249,-0.2441,0.6714,-0.1831,1,477,861,2908
2134623927,420872,-0.0317,0.0049,1.0249,-0.2441,0.7324,-0.2441,1,478,876,2908
2134628922,420873,-0.0322,0.0059,1.0234,-0.0610,0.7935,-0.3052,1,471,881,2908
2134633925,420874,-0.0317,0.0044,1.0225,-0.0610,0.6714,-0.2441,1,477,852,2908
2134638942,420875,-0.0303,0.0034,1.0234,-0.1221,0.7324,-0.1831,1,472,855,2908
2134643930,420876,-0.0288,0.0044,1.0239,-0.1831,0.8545,-0.1831,1,473,857,2908
2134648928,420877,-0.0298,0.0054,1.0234,-0.1831,0.7324,-0.2441,1,511,862,2908
2134653930,420878,-0.0322,0.0054,1.0220,-0.1221,0.8545,-0.1831,1,475,880,2908
2134658930,420879,-0.0332,0.0049,1.0220,-0.1831,0.7324,-0.2441,1,491,872,2908
2134663924,420880,-0.0327,0.0029,1.0215,-0.0610,0.7324,-0.2441,1,464,779,2908
2134668927,420881,-0.0322,0.0029,1.0215,-0.0610,0.7324,-0.2441,1,482,859,2908
2134673929,420882,-0.0322,0.0044,1.0200,-0.1831,0.7935,-0.3052,1,479,852,2908
2134678927,420883,-0.0327,0.0044,1.0190,-0.1831,0.6714,-0.1831,1,482,843,2908
2134683930,420884,-0.0327,0.0029,1.0190,-0.0610,0.6104,-0.2441,1,487,850,2908
2134688928,420885,-0.0322,0.0024,1.0195,0.0610,0.5493,-0.2441,1,490,846,2908
2134693926,420886,-0.0322,0.0029,1.0200,0.0000,0.5493,-0.2441,1,487,853,2908
2134698922,420887,-0.0312,0.0039,1.0220,0.0000,0.3662,-0.1831,1,494,804,2908
2134703931,420888,-0.0308,0.0039,1.0244,0.0000,0.3662,-0.2441,1,466,857,2908
2134708922,420889,-0.0312,0.0044,1.0249,-0.1831,0.4272,-0.3052,1,466,832,2908
2134713922,420890,-0.0312,0.0039,1.0234,-0.0610,0.4883,-0.2441,1,483,902,2908
2134718926,420891,-0.0312,0.0044,1.0225,0.0000,0.4883,-0.2441,1,465,904,2908
2134723928,420892,-0.0312,0.0044,1.0220,-0.1221,0.3662,-0.1831,1,484,844,2908
2134728923,420893,-0.0303,0.0039,1.0210,-0.1221,0.4883,-0.1221,1,465,898,2908
2134733923,420894,-0.0303,0.0044,1.0210,0.0000,0.6104,-0.1831,1,468,854,2908
2134738928,420895,-0.0317,0.0049,1.0220,-0.1831,0.5493,-0.3662,1,469,775,2908
2134743929,420896,-0.0327,0.0044,1.0220,-0.1221,0.4883,-0.1831,1,465,880,2908
2134748927,420897,-0.0327,0.0034,1.0220,-0.0610,0.4883,-0.1831,1,482,872,2908
2134753950,420898,-0.0317,0.0029,1.0220,-0.0610,0.5493,-0.2441,1,466,859,2908
2134758930,420899,-0.0317,0.0034,1.0220,0.0610,0.4883,-0.2441,1,466,860,2908
2134763922,420900,-0.0322,0.0029,1.0220,0.0610,0.4883,-0.2441,1,484,857,2908
2134768924,420901,-0.0322,0.0024,1.0225,0.0000,0.4883,-0.3662,1,466,874,2908
2134773929,420902,-0.0322,0.0034,1.0229,0.1221,0.5493,-0.3662,1,494,756,2908
2134778926,420903,-0.0342,0.0015,1.0205,0.1831,0.5493,-0.3052,1,466,832,2908
2134783922,420904,-0.0352,0.0024,1.0181,0.2441,0.2441,-0.2441,1,473,853,2908
2134788925,420905,-0.0337,0.0039,1.0190,0.3052,0.2441,-0.2441,1,480,850,2908
2134793925,420906,-0.0327,0.0029,1.0205,0.1831,0.3662,-0.2441,1,492,847,2908
2134798925,420907,-0.0312,0.0049,1.0229,0.3052,0.1831,-0.2441,1,476,853,2908
2134803931,420908,-0.0317,0.0044,1.0239,0.1221,0.3662,-0.3662,1,483,872,2908
2134808930,420909,-0.0327,0.0029,1.0229,0.1221,0.2441,-0.3052,1,479,850,2908
2134813928,420910,-0.0317,0.0044,1.0225,0.1221,0.1831,-0.2441,1,494,846,2908
2134818922,420911,-0.0317,0.0059,1.0234,0.0000,0.3052,-0.3662,1,466,875,2908
2134823929,420912,-0.0322,0.0063,1.0244,0.0000,0.2441,-0.2441,1,466,826,2908
2134828922,420913,-0.0322,0.0054,1.0234,0.0000,0.3052,-0.2441,1,484,837,2908
2134833930,420914,-0.0327,0.0044,1.0215,0.1221,0.3052,-0.3052,1,477,772,2908
2134838930,420915,-0.0347,0.0029,1.0200,0.1221,0.3052,-0.2441,1,484,810,2908
2134843930,420916,-0.0361,0.0015,1.0205,0.1221,0.1221,-0.3052,1,474,895,2908
2134848923,420917,-0.0342,0.0015,1.0225,0.2441,0.0000,-0.2441,1,476,855,2908
2134853930,420918,-0.0317,0.0020,1.0220,0.1831,0.1221,-0.2441,1,482,828,2908
2134858928,420919,-0.0327,0.0029,1.0200,0.0610,0.1221,-0.2441,1,474,874,2908
2134863927,420920,-0.0332,0.0039,1.0205,0.0610,0.0000,-0.3052,1,477,855,2908
2134868946,420921,-0.0317,0.0044,1.0220,0.1221,0.0000,-0.3052,1,479,807,2908
2134873924,420922,-0.0322,0.0039,1.0215,0.1221,0.1221,-0.2441,1,476,804,2908
2134878927,420923,-0.0337,0.0034,1.0210,0.0000,0.0610,-0.3052,1,511,854,2908
2134883931,420924,-0.0332,0.0044,1.0229,0.1221,0.0000,-0.3052,1,481,718,2908
2134888925,420925,-0.0312,0.0049,1.0249,0.0610,-0.2441,-0.2441,1,493,749,2908
2134893927,420926,-0.0298,0.0049,1.0244,0.1221,0.0610,-0.3052,1,468,801,2908
2134898926,420927,-0.0308,0.0044,1.0225,0.2441,0.0000,-0.3052,1,473,838,2908
2134903929,420928,-0.0317,0.0039,1.0195,0.1221,-0.1831,-0.2441,1,483,820,2908
2134908924,420929,-0.0327,0.0024,1.0171,0.0610,-0.1831,-0.4272,1,490,872,2908
2134913926,420930,-0.0332,0.0024,1.0176,0.1221,-0.3662,-0.3662,1,481,850,2908
2134918929,420931,-0.0327,0.0034,1.0190,0.2441,-0.3662,-0.2441,1,482,850,2908
2134923930,420932,-0.0317,0.0044,1.0205,0.2441,-0.3052,-0.3052,1,493,857,2908
2134928939,420933,-0.0308,0.0044,1.0220,0.3052,-0.2441,-0.3662,1,466,870,2908
2134933928,420934,-0.0312,0.0049,1.0220,0.2441,-0.3052,-0.3052,1,466,870,2908
2134938928,420935,-0.0322,0.0044,1.0210,0.1221,-0.3662,-0.3662,1,484,895,2908
2134943931,420936,-0.0317,0.0034,1.0205,0.2441,-0.4272,-0.3662,1,469,864,2908
2134948922,420937,-0.0317,0.0039,1.0210,0.4272,-0.5493,-0.2441,1,484,872,2908
2134953926,420938,-0.0312,0.0049,1.0220,0.3052,-0.4883,-0.3662,1,480,908,2908
2134958925,420939,-0.0312,0.0054,1.0229,0.3052,-0.4883,-0.3052,1,479,952,2908
2134963923,420940,-0.0312,0.0059,1.0239,0.3662,-0.4272,-0.1831,1,480,884,2908
2134968928,420941,-0.0308,0.0054,1.0244,0.3052,-0.5493,-0.2441,1,466,902,2908
2134973927,420942,-0.0303,0.0044,1.0249,0.3052,-0.4272,-0.3052,1,482,855,2908
2134978922,420943,-0.0298,0.0049,1.0254,0.3662,-0.3662,-0.3052,1,465,849,2908
2134983930,420944,-0.0293,0.0059,1.0249,0.1831,-0.2441,-0.2441,1,481,853,2908
2134988930,420945,-0.0293,0.0054,1.0229,0.2441,-0.3052,-0.3052,1,466,878,2908
2134993927,420946,-0.0298,0.0034,1.0220,0.2441,-0.3662,-0.3052,1,465,869,2908
2134998922,420947,-0.0303,0.0034,1.0229,0.2441,-0.1221,-0.2441,1,493,800,2908
2135003922,420948,-0.0308,0.0044,1.0239,0.2441,-0.1221,-0.4272,1,488,858,2908
2135008931,420949,-0.0308,0.0054,1.0239,0.1221,-0.1221,-0.3662,1,475,846,2908
2135013922,420950,-0.0298,0.0049,1.0225,0.1221,-0.0610,-0.2441,1,475,841,2908
2135018924,420951,-0.0298,0.0039,1.0215,0.1221,-0.0610,-0.2441,1,492,862,2908
2135023926,420952,-0.0303,0.0034,1.0215,0.0000,0.0610,-0.4272,1,478,844,2908
2135028923,420953,-0.0308,0.0044,1.0229,0.0610,0.0000,-0.3052,1,473,797,2908
2135033922,420954,-0.0317,0.0039,1.0234,0.0610,0.0000,-0.3052,1,493,792,2908
2135038948,420955,-0.0308,0.0034,1.0234,0.0000,0.0610,-0.3052,1,466,828,2908
2135043923,420956,-0.0288,0.0039,1.0239,0.1221,0.0000,-0.3052,1,466,823,2908
2135048929,420957,-0.0273,0.0039,1.0239,0.0610,0.1221,-0.4272,1,465,816,2908
2135053926,420958,-0.0273,0.0039,1.0234,0.0000,0.0610,-0.3052,1,479,865,2908
2135058922,420959,-0.0288,0.0039,1.0225,0.0000,0.1221,-0.2441,1,465,887,2908
2135063928,420960,-0.0303,0.0039,1.0225,0.0000,0.2441,-0.2441,1,472,819,2908
2135068930,420961,-0.0308,0.0049,1.0244,0.0000,0.3052,-0.3052,1,467,820,2908
2135073925,420962,-0.0293,0.0049,1.0249,-0.0610,0.4272,-0.3662,1,469,820,2908
2135078925,420963,-0.0278,0.0039,1.0249,0.0610,0.4883,-0.3052,1,479,876,2908
2135083936,420964,-0.0283,0.0029,1.0249,0.0000,0.6104,-0.3662,1,483,854,2908
2135088922,420965,-0.0303,0.0044,1.0234,-0.0610,0.6104,-0.3052,1,470,813,2908
2135093927,420966,-0.0312,0.0054,1.0220,-0.0610,0.3052,-0.1831,1,483,846,2908
2135098926,420967,-0.0317,0.0059,1.0220,-0.0610,0.4883,-0.2441,1,466,895,2908
2135103923,420968,-0.0312,0.0044,1.0220,0.0000,0.4883,-0.2441,1,494,870,2908
2135108922,420969,-0.0317,0.0034,1.0205,0.0000,0.4272,-0.3052,1,466,836,2908
2135113929,420970,-0.0337,0.0034,1.0171,0.0000,0.4272,-0.3052,1,492,802,2908
2135118926,420971,-0.0327,0.0039,1.0176,0.0610,0.1831,-0.3052,1,492,796,2908
2135123922,420972,-0.0293,0.0044,1.0220,0.1831,0.1831,-0.2441,1,482,845,2908
2135128925,420973,-0.0278,0.0044,1.0254,0.0610,0.3052,-0.2441,1,485,850,2908
2135133924,420974,-0.0293,0.0039,1.0264,0.0000,0.4272,-0.1831,1,491,844,2908
2135138924,420975,-0.0303,0.0034,1.0244,0.0610,0.3662,-0.3052,1,493,803,2908
2135143930,420976,-0.0312,0.0034,1.0220,0.1221,0.3052,-0.3662,1,466,870,2908
2135148928,420977,-0.0303,0.0034,1.0215,0.0610,0.2441,-0.3052,1,466,895,2908
2135153925,420978,-0.0298,0.0039,1.0225,0.1221,0.3662,-0.2441,1,484,869,2908
2135158928,420979,-0.0298,0.0054,1.0239,0.1831,0.3052,-0.1831,1,466,864,2908
2135163928,420980,-0.0298,0.0054,1.0249,0.0000,0.3662,-0.3052,1,484,865,2908
2135168927,420981,-0.0322,0.0020,1.0225,0.1221,0.4272,-0.1831,1,466,817,2908
2135173927,420982,-0.0322,0.0034,1.0210,0.0610,0.4272,-0.2441,1,474,865,2908
2135178927,420983,-0.0303,0.0044,1.0220,0.0000,0.4272,-0.2441,1,479,875,2908
2135183922,420984,-0.0293,0.0044,1.0244,-0.0610,0.4272,-0.3052,1,466,808,2908
2135188923,420985,-0.0303,0.0044,1.0249,-0.0610,0.4883,-0.2441,1,472,853,2908
2135193946,420986,-0.0308,0.0049,1.0244,-0.1221,0.4272,-0.1831,1,470,854,2908
2135198931,420987,-0.0308,0.0049,1.0244,-0.1221,0.5493,-0.1221,1,484,854,2908
2135203926,420988,-0.0298,0.0049,1.0249,-0.0610,0.5493,-0.1221,1,493,851,2908
2135208926,420989,-0.0303,0.0054,1.0239,-0.1221,0.5493,-0.1221,1,492,870,2908
2135213925,420990,-0.0312,0.0049,1.0225,-0.0610,0.5493,-0.3052,1,466,850,2908
2135218927,420991,-0.0312,0.0034,1.0234,-0.1221,0.6104,-0.3052,1,488,791,2908
2135223922,420992,-0.0312,0.0029,1.0254,-0.1221,0.6104,-0.1221,1,492,877,2908
2135228926,420993,-0.0308,0.0039,1.0244,-0.0610,0.5493,-0.3052,1,476,863,2908
2135233925,420994,-0.0298,0.0059,1.0229,0.0000,0.5493,-0.3052,1,481,844,2908
2135238928,420995,-0.0283,0.0059,1.0225,-0.1831,0.7324,-0.2441,1,491,798,2908
2135243926,420996,-0.0278,0.0049,1.0234,-0.1831,0.6104,-0.2441,1,490,850,2908
2135248930,420997,-0.0288,0.0034,1.0244,-0.0610,0.7324,-0.2441,1,466,849,2908
2135253922,420998,-0.0293,0.0029,1.0249,-0.1831,0.8545,-0.2441,1,465,882,2908
2135258927,420999,-0.0298,0.0039,1.0249,-0.2441,0.7935,-0.2441,1,483,878,2908
2135263924,421000,-0.0298,0.0049,1.0244,-0.3052,0.9766,-0.1831,1,465,870,2908
2135268929,421001,-0.0303,0.0054,1.0249,-0.2441,0.8545,-0.1831,1,484,814,2908
2135273924,421002,-0.0303,0.0063,1.0254,-0.3052,0.9766,-0.1831,1,465,904,2908
2135278930,421003,-0.0293,0.0073,1.0254,-0.2441,1.0986,-0.1831,1,475,859,2908
2135283922,421004,-0.0278,0.0068,1.0254,-0.4272,1.2207,-0.1221,1,472,871,2908
2135288928,421005,-0.0283,0.0059,1.0264,-0.4272,1.4038,-0.1221,1,481,875,2908
2135293926,421006,-0.0273,0.0054,1.0278,-0.4272,1.4038,-0.1831,1,477,856,2908
2135298935,421007,-0.0264,0.0049,1.0288,-0.4883,1.6479,-0.0610,1,479,863,2908
2135303924,421008,-0.0273,0.0054,1.0288,-0.6104,1.8921,-0.1831,1,483,856,2908
2135308924,421009,-0.0278,0.0059,1.0288,-0.7324,2.0752,-0.0610,1,510,856,2908
2135313930,421010,-0.0278,0.0054,1.0278,-0.7324,2.2583,-0.1221,1,483,874,2908
2135318929,421011,-0.0288,0.0044,1.0259,-0.7324,2.4414,-0.1221,1,464,805,2908
2135323923,421012,-0.0312,0.0034,1.0239,-0.8545,2.5024,-0.1221,1,478,830,2908
2135328922,421013,-0.0327,0.0034,1.0215,-0.8545,2.3804,-0.1831,1,488,884,2908
2135333928,421014,-0.0342,0.0034,1.0176,-0.8545,2.4414,-0.0610,1,478,850,2908
2135338928,421015,-0.0396,0.0010,1.0112,-0.9155,2.2583,-0.2441,1,479,849,2908
2135343925,421016,-0.0444,-0.0029,1.0093,-0.6104,1.6479,-0.1831,1,490,852,2908
2135348927,421017,-0.0430,-0.0044,1.0137,-0.4272,1.0986,-0.0610,1,493,848,2908
2135353932,421018,-0.0376,-0.0015,1.0195,-0.3052,1.1597,-0.1831,1,466,872,2908
2135358923,421019,-0.0327,0.0029,1.0234,-0.3052,1.0986,-0.1831,1,466,874,2908
2135363930,421020,-0.0308,0.0044,1.0244,-0.4272,1.0376,-0.1831,1,483,880,2908
2135368922,421021,-0.0322,0.0044,1.0234,-0.4272,0.8545,-0.1221,1,465,865,2908
2135373930,421022,-0.0337,0.0029,1.0229,-0.4883,0.7324,-0.1831,1,484,865,2908
2135378926,421023,-0.0332,0.0024,1.0239,-0.3662,0.7935,-0.1831,1,472,908,2908
2135383924,421024,-0.0303,0.0029,1.0264,-0.4883,0.9155,-0.2441,1,482,872,2908
2135388925,421025,-0.0273,0.0054,1.0278,-0.3662,1.0986,-0.1831,1,467,864,2908
2135393924,421026,-0.0278,0.0078,1.0269,-0.5493,1.2817,-0.1831,1,469,880,2908
2135398926,421027,-0.0308,0.0073,1.0234,-0.6104,1.4038,-0.1831,1,476,865,2908
2135403956,421028,-0.0322,0.0029,1.0195,-0.5493,1.4648,-0.1831,1,473,858,2908
2135408926,421029,-0.0337,0.0005,1.0186,-0.3052,1.5869,-0.2441,1,484,867,2908
2135413923,421030,-0.0342,-0.0005,1.0210,-0.3662,1.5259,-0.1831,1,466,870,2908
2135418924,421031,-0.0337,0.0005,1.0229,-0.1831,1.5259,-0.1831,1,494,870,2908
2135423922,421032,-0.0342,0.0005,1.0229,-0.1221,1.7090,-0.3662,1,466,772,2908
2135428927,421033,-0.0337,0.0000,1.0225,0.0000,1.6479,-0.3052,1,489,850,2908
2135433930,421034,-0.0332,0.0034,1.0234,0.1831,1.8921,-0.1831,1,473,758,2908
2135438929,421035,-0.0308,0.0049,1.0244,-0.0610,1.7700,-0.2441,1,480,853,2908
2135443923,421036,-0.0327,0.0020,1.0249,-0.1221,2.1973,-0.3052,1,492,844,2908
2135448922,421037,-0.0371,0.0010,1.0229,0.0000,1.7700,-0.2441,1,486,845,2908
2135453925,421038,-0.0366,0.0049,1.0225,0.0000,1.5869,-0.3052,1,492,802,2908
2135458935,421039,-0.0347,0.0059,1.0244,-0.3052,1.8311,-0.4883,1,466,827,2908
2135463928,421040,-0.0332,0.0020,1.0249,-0.2441,1.8921,-0.3052,1,466,867,2908
2135468930,421041,-0.0337,0.0010,1.0244,-0.1221,1.9531,-0.2441,1,483,876,2908
2135473927,421042,-0.0347,0.0039,1.0249,-0.2441,1.7700,-0.2441,1,465,864,2908
2135478927,421043,-0.0347,0.0054,1.0244,-0.3662,1.9531,-0.2441,1,484,870,2908
2135483922,421044,-0.0347,0.0044,1.0239,-0.3052,1.9531,-0.3052,1,472,910,2908
2135488926,421045,-0.0342,0.0039,1.0244,-0.4883,2.0142,-0.3052,1,481,861,2908
2135493924,421046,-0.0342,0.0044,1.0249,-0.5493,1.8921,-0.2441,1,479,870,2908
2135498924,421047,-0.0352,0.0034,1.0234,-0.5493,2.0752,-0.2441,1,481,875,2908
2135503927,421048,-0.0361,0.0034,1.0215,-0.5493,2.1973,-0.1221,1,482,864,2908
2135508941,421049,-0.0361,0.0034,1.0210,-0.5493,2.0752,-0.1831,1,481,860,2908
2135513928,421050,-0.0352,0.0015,1.0220,-0.6104,2.2583,-0.0610,1,482,861,2908
2135518929,421051,-0.0342,0.0000,1.0239,-0.5493,2.1973,0.0610,1,511,852,2908
2135523925,421052,-0.0337,0.0005,1.0264,-0.3662,2.0752,-0.0610,1,477,835,2908
2135528924,421053,-0.0332,0.0020,1.0264,-0.3052,2.3193,-0.1221,1,464,796,2908
2135533927,421054,-0.0342,0.0020,1.0229,-0.3662,2.5024,-0.2441,1,471,855,2908
2135538924,421055,-0.0366,0.0005,1.0195,-0.3052,2.3193,-0.1221,1,476,854,2908
2135543929,421056,-0.0386,-0.0010,1.0176,-0.3052,2.3193,-0.1221,1,488,844,2908
2135548927,421057,-0.0391,-0.0015,1.0176,-0.1831,2.3193,-0.1831,1,490,866,2908
2135553927,421058,-0.0396,-0.0010,1.0176,0.1221,2.2583,-0.1221,1,481,848,2908
2135558927,421059,-0.0400,-0.0010,1.0186,0.1831,2.0752,-0.1221,1,484,840,2908
2135563925,421060,-0.0391,0.0000,1.0200,0.1831,2.0142,-0.1831,1,492,838,2908
2135568922,421061,-0.0386,0.0005,1.0210,0.2441,1.8921,-0.1831,1,466,830,2908
2135573927,421062,-0.0381,0.0010,1.0215,0.3662,2.0142,-0.0610,1,483,868,2908
2135578929,421063,-0.0376,0.0029,1.0205,0.2441,2.0752,-0.0610,1,465,856,2908
2135583928,421064,-0.0371,0.0039,1.0200,0.1221,2.0142,-0.0610,1,484,862,2908
2135588922,421065,-0.0366,0.0024,1.0200,0.1831,1.8921,-0.0610,1,465,898,2908
2135593926,421066,-0.0371,0.0024,1.0220,0.1221,2.0752,-0.0610,1,481,930,2908
2135598925,421067,-0.0371,0.0044,1.0234,0.1221,2.0142,-0.0610,1,479,862,2908
2135603930,421068,-0.0361,0.0039,1.0239,0.0000,2.0142,0.0610,1,465,870,2908
2135608923,421069,-0.0356,0.0024,1.0220,-0.1221,2.1973,0.0000,1,482,813,2908
2135613927,421070,-0.0376,0.0010,1.0195,-0.0610,2.0752,0.0610,1,470,812,2908
2135618923,421071,-0.0381,-0.0005,1.0190,0.0000,2.0142,0.0610,1,484,847,2908
2135623923,421072,-0.0386,-0.0010,1.0195,0.1831,2.0142,0.1221,1,510,801,2908
2135628926,421073,-0.0396,0.0015,1.0200,0.1221,2.0752,0.0610,1,473,868,2908
2135633931,421074,-0.0386,0.0024,1.0205,0.0000,2.0752,0.1831,1,494,862,2908
2135638927,421075,-0.0381,0.0005,1.0210,0.1221,2.1362,0.1221,1,464,803,2908
2135643923,421076,-0.0386,-0.0010,1.0200,0.1831,2.2583,0.0000,1,488,835,2908
2135648924,421077,-0.0396,-0.0005,1.0190,0.1831,2.1973,0.0000,1,477,826,2908
2135653922,421078,-0.0396,0.0010,1.0205,0.3662,1.9531,0.1831,1,483,797,2908
2135658928,421079,-0.0391,0.0024,1.0220,0.3052,2.0752,0.1831,1,492,846,2908
2135663925,421080,-0.0386,0.0029,1.0229,0.3662,2.4414,0.1831,1,486,841,2908
2135668928,421081,-0.0391,0.0044,1.0229,0.4272,2.3804,0.3052,1,488,854,2908
2135673934,421082,-0.0400,0.0044,1.0210,0.2441,2.3804,0.1221,1,493,840,2908
2135678925,421083,-0.0400,0.0020,1.0190,0.2441,2.4414,0.1221,1,466,867,2908
2135683926,421084,-0.0400,-0.0010,1.0181,0.3662,2.2583,0.1831,1,483,874,2908
2135688925,421085,-0.0400,-0.0005,1.0186,0.4883,2.3804,0.1831,1,469,862,2908
2135693929,421086,-0.0405,0.0029,1.0215,0.3662,2.4414,0.1831,1,484,857,2908
2135698928,421087,-0.0396,0.0049,1.0239,0.2441,2.3804,0.2441,1,475,908,2908
2135703929,421088,-0.0386,0.0020,1.0239,0.1831,2.5024,0.1831,1,481,867,2908
2135708923,421089,-0.0386,-0.0015,1.0234,0.3662,2.6245,0.1831,1,482,878,2908
2135713925,421090,-0.0405,-0.0005,1.0229,0.5493,2.5635,0.4272,1,474,879,2908
2135718925,421091,-0.0420,0.0015,1.0225,0.4272,2.3193,0.3052,1,481,858,2908
2135723928,421092,-0.0410,0.0005,1.0225,0.4272,2.3804,0.3052,1,478,855,2908
2135728922,421093,-0.0396,-0.0024,1.0220,0.4883,2.3193,0.3052,1,510,847,2908
2135733925,421094,-0.0386,-0.0029,1.0225,0.7324,2.3193,0.4272,1,494,873,2908
2135738925,421095,-0.0391,0.0005,1.0229,0.7324,2.6245,0.3662,1,484,880,2908
2135743922,421096,-0.0415,0.0024,1.0205,0.6714,2.5635,0.4272,1,466,818,2908
2135748927,421097,-0.0449,0.0010,1.0161,0.7935,2.5024,0.4272,1,490,861,2908
2135753928,421098,-0.0474,0.0000,1.0156,0.9155,2.5024,0.3662,1,489,847,2908
2135758929,421099,-0.0454,0.0024,1.0181,0.8545,2.3193,0.4272,1,475,837,2908
2135763923,421100,-0.0420,0.0034,1.0215,0.8545,2.3804,0.4272,1,473,850,2908
2135768924,421101,-0.0396,0.0049,1.0239,0.9155,2.5635,0.6104,1,488,845,2908
2135773928,421102,-0.0420,0.0054,1.0220,0.6714,2.9297,0.6714,1,488,847,2908
2135778933,421103,-0.0483,0.0024,1.0176,0.6104,2.6855,0.6104,1,493,842,2908
2135783930,421104,-0.0469,0.0010,1.0205,0.8545,2.1973,0.6104,1,466,875,2908
2135788930,421105,-0.0391,0.0029,1.0293,0.6714,2.5024,0.7324,1,483,865,2908
2135793929,421106,-0.0361,0.0024,1.0327,0.6714,2.6855,0.7324,1,466,861,2908
2135798930,421107,-0.0391,0.0024,1.0264,0.7324,2.8076,0.7935,1,484,874,2908
2135803922,421108,-0.0454,0.0068,1.0190,0.6104,2.6245,0.7324,1,466,901,2908
2135808922,421109,-0.0415,0.0005,1.0205,0.3662,2.3193,0.7935,1,474,869,2908
2135813923,421110,-0.0327,-0.0029,1.0254,1.0376,3.7842,0.9155,1,476,873,2908
2135818930,421111,-0.0356,0.0063,1.0205,1.2207,4.4556,0.9155,1,481,876,2908
2135823924,421112,-0.0425,0.0093,1.0127,0.5493,4.3945,0.8545,1,475,864,2908
2135828928,421113,-0.0444,0.0015,1.0093,0.9766,4.8828,0.7935,1,482,858,2908
2135833928,421114,-0.0425,-0.0039,1.0103,1.2207,5.1270,1.0376,1,484,853,2908
2135838922,421115,-0.0366,0.0020,1.0176,1.0986,5.4932,1.1597,1,510,854,2908
2135843929,421116,-0.0312,0.0103,1.0239,1.1597,6.4697,1.0986,1,465,876,2908
2135848923,421117,-0.0322,0.0112,1.0244,0.9155,7.3242,0.9766,1,494,907,2908
2135853930,421118,-0.0371,0.0088,1.0205,1.0376,7.9956,0.9766,1,481,830,2908
2135858922,421119,-0.0396,0.0029,1.0166,1.1597,8.3008,0.8545,1,483,858,2908
2135863929,421120,-0.0371,-0.0029,1.0166,1.4038,8.9111,1.0376,1,490,844,2908
2135868930,421121,-0.0386,0.0059,1.0156,1.8311,9.9487,1.0376,1,492,856,2908
2135873922,421122,-0.0454,0.0190,1.0122,1.2207,10.1929,0.7935,1,474,845,2908
2135878929,421123,-0.0508,0.0171,1.0112,0.6104,9.9487,0.6714,1,487,870,2908
2135883928,421124,-0.0522,0.0039,1.0098,0.7324,9.8267,0.7935,1,492,846,2908
2135888947,421125,-0.0674,-0.0010,0.9971,1.2817,10.0098,0.6104,1,466,877,2908
2135893922,421126,-0.0874,0.0034,0.9839,1.0376,7.8125,0.6714,1,466,872,2908
2135898922,421127,-0.0737,0.0054,1.0020,0.6714,5.7983,0.7935,1,465,876,2908
2135903929,421128,-0.0439,0.0068,1.0342,1.4038,7.8125,0.3052,1,477,862,2908
2135908925,421129,-0.0386,0.0127,1.0435,1.1597,8.9111,0.4272,1,483,810,2908
2135913924,421130,-0.0513,0.0146,1.0337,0.4272,8.4839,0.3052,1,476,909,2908
2135918923,421131,-0.0640,0.0112,1.0220,0.4272,8.0566,0.3662,1,479,867,2908
2135923927,421132,-0.0698,0.0083,1.0161,0.3662,7.8125,0.1831,1,481,874,2908
2135928924,421133,-0.0728,0.0059,1.0156,0.2441,7.3242,0.0610,1,477,882,2908
2135933926,421134,-0.0732,0.0063,1.0166,0.4272,6.6528,-0.0610,1,482,858,2908
2135938926,421135,-0.0732,0.0098,1.0166,0.4272,5.9814,-0.1831,1,465,865,2908
2135943926,421136,-0.0723,0.0083,1.0161,0.1831,5.2490,-0.3052,1,483,865,2908
2135948929,421137,-0.0718,0.0020,1.0151,0.2441,4.7607,-0.5493,1,510,858,2908
2135953926,421138,-0.0747,-0.0015,1.0122,0.6714,4.0894,-0.6104,1,466,879,2908
2135958924,421139,-0.0786,0.0015,1.0098,0.9155,3.2959,-0.7935,1,494,871,2908
2135963927,421140,-0.0737,0.0049,1.0166,0.9155,2.4414,-0.9155,1,484,798,2908
2135968927,421141,-0.0635,0.0059,1.0254,1.0376,2.3193,-0.8545,1,483,866,2908
2135973931,421142,-0.0610,0.0088,1.0273,1.0986,2.4414,-0.9155,1,491,843,2908
2135978925,421143,-0.0640,0.0112,1.0254,0.6714,1.9531,-0.9155,1,473,875,2908
2135983925,421144,-0.0674,0.0088,1.0205,0.5493,1.7090,-0.9155,1,485,854,2908
2135988923,421145,-0.0688,0.0020,1.0195,0.7324,1.2817,-0.9766,1,490,847,2908
2135993927,421146,-0.0640,-0.0005,1.0171,1.2207,1.2817,-0.8545,1,493,850,2908
2135998947,421147,-0.0757,0.0010,1.0039,1.3428,0.9766,-0.9766,1,493,841,2908
2136003926,421148,-0.0815,-0.0039,0.9956,1.6479,-0.0610,-0.9766,1,466,864,2908
2136008922,421149,-0.0747,-0.0117,0.9966,2.3193,-0.4883,-0.9766,1,484,878,2908
2136013922,421150,-0.0679,-0.0146,0.9985,2.9907,-0.3662,-1.1597,1,479,869,2908
2136018930,421151,-0.0737,-0.0117,0.9956,3.7842,-0.4883,-1.1597,1,465,876,2908
2136023930,421152,-0.0840,-0.0073,0.9902,4.0894,-1.4648,-1.4038,1,475,910,2908
2136028930,421153,-0.0815,-0.0068,0.9956,4.6997,-2.3804,-1.5259,1,477,869,2908
2136033924,421154,-0.0669,-0.0059,1.0112,5.3711,-2.3804,-1.6479,1,477,874,2908
2136038929,421155,-0.0542,-0.0015,1.0234,5.7983,-2.0142,-1.9531,1,465,875,2908
2136043925,421156,-0.0513,0.0034,1.0273,5.9204,-2.0752,-1.8921,1,482,863,2908
2136048942,421157,-0.0537,0.0063,1.0254,5.9814,-2.1362,-1.9531,1,465,860,2908
2136053930,421158,-0.0566,0.0098,1.0200,6.1035,-2.3804,-1.9531,1,483,871,2908
2136058931,421159,-0.0581,0.0142,1.0176,6.0425,-2.3804,-1.8921,1,510,860,2908
2136063924,421160,-0.0591,0.0161,1.0171,5.9814,-2.1973,-1.8921,1,475,876,2908
2136068927,421161,-0.0610,0.0161,1.0171,5.6152,-2.3804,-1.8311,1,493,878,2908
2136073923,421162,-0.0640,0.0146,1.0142,5.4932,-2.4414,-1.6479,1,464,804,2908
2136078929,421163,-0.0684,0.0137,1.0107,5.4932,-2.9297,-1.6479,1,492,869,2908
2136083926,421164,-0.0654,0.0156,1.0137,5.3101,-3.9062,-1.3428,1,492,854,2908
2136088931,421165,-0.0581,0.0210,1.0200,4.9438,-3.6621,-1.3428,1,479,853,2908
2136093923,421166,-0.0552,0.0249,1.0220,4.5166,-3.8452,-1.3428,1,483,878,2908
2136098925,421167,-0.0562,0.0220,1.0190,4.1504,-4.2114,-1.1597,1,492,859,2908
2136103922,421168,-0.0576,0.0137,1.0181,4.0283,-4.3945,-1.2207,1,488,851,2908
2136108947,421169,-0.0547,0.0117,1.0229,4.2114,-4.5166,-1.0986,1,466,855,2908
2136113929,421170,-0.0513,0.0171,1.0264,4.3335,-4.3945,-1.0986,1,466,888,2908
2136118928,421171,-0.0522,0.0215,1.0259,3.9062,-4.2725,-1.2207,1,465,882,2908
2136123929,421172,-0.0513,0.0259,1.0244,3.7842,-4.5166,-1.0986,1,479,873,2908
2136128930,421173,-0.0493,0.0264,1.0229,3.5400,-4.3335,-1.1597,1,465,877,2908
2136133927,421174,-0.0518,0.0215,1.0220,3.1128,-4.1504,-1.2817,1,465,925,2908
2136138924,421175,-0.0566,0.0161,1.0205,3.4790,-4.6387,-1.2817,1,471,867,2908
2136143927,421176,-0.0562,0.0156,1.0220,3.3569,-4.8218,-1.4038,1,476,888,2908
2136148929,421177,-0.0537,0.0200,1.0249,3.2349,-4.7607,-1.5259,1,472,837,2908
2136153924,421178,-0.0503,0.0254,1.0264,2.9907,-4.6387,-1.6479,1,474,866,2908
2136158957,421179,-0.0493,0.0269,1.0239,2.7466,-4.8218,-1.8921,1,477,861,2908
2136163924,421180,-0.0547,0.0259,1.0171,2.5635,-4.6997,-2.1973,1,484,864,2908
2136168923,421181,-0.0610,0.0259,1.0112,2.3804,-5.3711,-2.3193,1,492,880,2908
2136173923,421182,-0.0591,0.0264,1.0132,2.3804,-5.8594,-2.5635,1,471,884,2908
2136178923,421183,-0.0518,0.0244,1.0195,2.2583,-5.8594,-2.8687,1,493,796,2908
2136183925,421184,-0.0479,0.0244,1.0225,2.1362,-5.8594,-3.1128,1,490,839,2908
2136188927,421185,-0.0513,0.0269,1.0200,2.0752,-5.9204,-3.4180,1,473,857,2908
2136193927,421186,-0.0581,0.0278,1.0142,1.7700,-6.1035,-3.6621,1,479,850,2908
2136198922,421187,-0.0566,0.0249,1.0127,1.5259,-6.7139,-3.9062,1,476,860,2908
2136203927,421188,-0.0488,0.0229,1.0151,1.7090,-6.4697,-4.3945,1,490,857,2908
2136208925,421189,-0.0439,0.0220,1.0151,1.6479,-6.3477,-4.6997,1,491,862,2908
2136213922,421190,-0.0396,0.0195,1.0146,1.5869,-5.9814,-4.7607,1,493,862,2908
2136218924,421191,-0.0410,0.0210,1.0137,1.7700,-5.3711,-4.9438,1,466,890,2908
2136223929,421192,-0.0503,0.0239,1.0083,1.4648,-5.1270,-5.1270,1,484,877,2908
2136228928,421193,-0.0654,0.0239,1.0005,1.4648,-5.6763,-5.3711,1,465,885,2908
2136233925,421194,-0.0801,0.0244,0.9941,1.6479,-6.5918,-5.5542,1,484,870,2908
2136238926,421195,-0.0830,0.0229,0.9946,1.5259,-8.0566,-5.8594,1,465,878,2908
2136243929,421196,-0.0845,0.0220,0.9971,1.7700,-8.9722,-6.2256,1,472,925,2908
2136248923,421197,-0.1040,0.0254,0.9893,1.8921,-10.7422,-6.4697,1,470,865,2908
2136253924,421198,-0.1338,0.0264,0.9746,1.2817,-14.2822,-6.3477,1,479,892,2908
2136258928,421199,-0.1479,0.0215,0.9702,0.7935,-18.4326,-5.6763,1,477,898,2908
2136263926,421200,-0.1265,0.0151,0.9834,0.4883,-22.3389,-4.9438,1,475,878,2908
2136268928,421201,-0.0830,0.0142,1.0054,0.5493,-24.2310,-4.9438,1,471,885,2908
2136273928,421202,-0.0576,0.0195,1.0176,0.6714,-24.7803,-5.2490,1,484,880,2908
2136278927,421203,-0.0571,0.0190,1.0127,0.4272,-26.3062,-5.1880,1,510,880,2908
2136283924,421204,-0.0620,0.0132,1.0049,0.4883,-28.1372,-5.0659,1,466,899,2908
2136288928,421205,-0.0635,0.0107,1.0044,0.9155,-29.6631,-5.1880,1,494,897,2908
2136293922,421206,-0.0586,0.0151,1.0103,1.0986,-31.4941,-5.4932,1,464,792,2908
2136298931,421207,-0.0444,0.0210,1.0210,1.0986,-33.0200,-5.9814,1,488,798,2908
2136303923,421208,-0.0278,0.0215,1.0298,1.0986,-33.7524,-6.3477,1,485,863,2908
2136308929,421209,-0.0234,0.0225,1.0293,1.5259,-33.9966,-6.8970,1,477,870,2908
2136313922,421210,-0.0327,0.0254,1.0225,1.6479,-35.1562,-7.2021,1,476,890,2908
2136318923,421211,-0.0415,0.0264,1.0166,1.6479,-36.6211,-7.3242,1,488,903,2908
2136323923,421212,-0.0435,0.0264,1.0161,1.6479,-38.3301,-7.4463,1,487,870,2908
2136328931,421213,-0.0459,0.0278,1.0171,1.4648,-40.2222,-7.5684,1,466,863,2908
2136333928,421214,-0.0552,0.0273,1.0137,1.2207,-42.5415,-7.5073,1,466,898,2908
2136338926,421215,-0.0679,0.0293,1.0098,0.9155,-45.6543,-7.1411,1,483,903,2908
2136343925,421216,-0.0674,0.0352,1.0117,0.5493,-49.6826,-6.4697,1,465,900,2908
2136348929,421217,-0.0493,0.0356,1.0210,0.0000,-52.8564,-5.6763,1,484,896,2908
2136353923,421218,-0.0234,0.0381,1.0356,-0.5493,-55.4810,-4.9438,1,466,897,2908
2136358930,421219,-0.0020,0.0454,1.0459,-1.2817,-57.3730,-4.4556,1,467,942,2908
2136363923,421220,0.0039,0.0527,1.0503,-2.6245,-59.0210,-4.2725,1,480,890,2908
2136368927,421221,-0.0010,0.0522,1.0591,-4.2114,-62.4390,-3.7842,1,466,887,2908
2136373922,421222,0.0000,0.0444,1.0659,-5.4932,-66.6504,-3.2349,1,483,894,2908
2136378922,421223,-0.0039,0.0435,1.0664,-7.0190,-69.5190,-1.8921,1,469,833,2908
2136383957,421224,-0.0210,0.0508,1.0635,-8.4839,-74.8291,-0.3662,1,483,871,2908
2136388923,421225,-0.0269,0.0586,1.0591,-10.0708,-79.5288,0.9766,1,483,874,2908
2136393924,421226,0.0044,0.0557,1.0615,-11.5356,-84.2285,2.1362,1,466,901,2908
2136398929,421227,0.0405,0.0396,1.0737,-12.8784,-85.3271,1.7090,1,494,921,2908
2136403931,421228,0.0518,0.0303,1.0806,-13.4888,-88.9893,2.0752,1,494,922,2908
2136408925,421229,0.0527,0.0298,1.0747,-14.1602,-91.2476,3.1738,1,469,806,2908
2136413928,421230,0.0386,0.0347,1.0693,-15.1367,-92.7124,3.9062,1,481,916,2908
2136418922,421231,-0.0234,0.0581,1.0718,-16.1133,-94.8486,4.6387,1,486,895,2908
2136423929,421232,-0.1484,0.0933,1.0820,-18.6768,-105.9570,5.6763,1,479,886,2908
2136428926,421233,-0.3032,0.1265,1.1011,-22.0947,-124.1455,7.0190,1,483,910,2908
2136433927,421234,-0.4565,0.1743,1.1338,-26.3062,-150.7568,9.0942,1,483,899,2908
2136438930,421235,-0.5596,0.2256,1.1733,-35.2173,-187.5610,10.6201,1,492,896,2908
2136443928,421236,-0.5908,0.2578,1.2017,-45.8984,-227.3559,13.3667,1,466,939,2908
2136448922,421237,-0.6265,0.3062,1.2383,-57.1289,-262.6343,17.4561,1,483,951,2908
2136453929,421238,-0.7207,0.3911,1.3345,-74.3408,-303.2837,24.2310,1,465,932,2908
2136458928,421239,-0.8462,0.4849,1.4839,-94.4824,-350.3418,28.6255,1,484,932,2908
2136463923,421240,-0.8906,0.5220,1.6167,-119.3848,-409.9121,34.2407,1,465,933,2908
2136468927,421241,-0.7505,0.5137,1.6846,-138.2446,-463.0737,35.9497,1,482,882,2908
2136473930,421242,-0.6162,0.5132,1.7300,-163.6352,-496.1548,32.2266,1,482,965,2908
2136478924,421243,-0.7188,0.4951,1.8096,-192.5049,-524.2310,26.6113,1,483,937,2908
2136483923,421244,-0.9243,0.4727,1.8345,-212.7685,-573.9136,26.3672,1,469,961,2908
2136488928,421245,-0.9873,0.3892,1.6919,-234.9243,-622.1924,27.5269,1,474,947,2908
2136493930,421246,-0.9009,0.1968,1.4229,-251.2207,-651.1840,23.5596,1,484,927,2908
2136498929,421247,-0.8164,-0.0488,1.1260,-254.6387,-676.5746,13.5498,1,483,927,2908
2136503930,421248,-0.7817,-0.3525,0.8398,-245.3003,-705.1391,3.8452,1,493,959,2908
2136508926,421249,-0.7930,-0.7241,0.5576,-218.9941,-740.9667,-3.4790,1,475,936,2908
2136513927,421250,-0.7871,-0.9199,0.3936,-178.1006,-785.2783,-9.2163,1,492,941,2908
2136518930,421251,-0.3320,-0.4307,0.5161,-140.5640,-809.0820,-3.7842,1,492,827,2908
2136523922,421252,1.1870,0.1851,1.2168,-116.8823,-739.6850,19.5923,1,474,893,2908
2136528927,421253,3.4170,-0.1719,3.1021,-138.5498,-608.0322,0.7935,1,492,926,2908
2136533928,421254,4.4585,-0.9668,5.3130,-99.0601,-407.2265,-41.0767,1,486,890,2908
2136538924,421255,3.1313,-1.1636,5.9736,-29.1138,-216.1865,-56.3965,1,473,933,2908
2136543926,421256,0.6104,-0.8359,5.0444,-19.0430,-98.7549,-63.4766,1,481,929,2908
2136548938,421257,-1.1240,-0.4697,3.7959,-14.1602,-59.0820,-61.7065,1,493,905,2908
2136553926,421258,-1.3701,-0.2935,2.9976,-1.8311,-31.6162,-55.6641,1,466,945,2908
2136558929,421259,-0.9878,-0.2695,2.5576,13.2446,10.0098,-58.1055,1,483,923,2908
2136563922,421260,-0.8613,-0.2300,2.1777,31.1279,32.6538,-60.3027,1,466,934,2908
2136568925,421261,-1.0459,-0.1079,1.8208,42.6636,34.2407,-63.5376,1,484,945,2908
2136573923,421262,-1.2275,0.0332,1.6035,46.2646,33.2642,-69.3970,1,468,877,2908
2136578931,421263,-1.2324,0.1348,1.5640,47.4853,35.4004,-75.3784,1,472,933,2908
2136583929,421264,-1.0918,0.1904,1.6274,45.1660,45.8984,-83.1909,1,465,922,2908
2136588923,421265,-0.9292,0.2095,1.7036,41.0767,63.6597,-93.0176,1,466,935,2908
2136593931,421266,-0.8193,0.2061,1.7412,37.5366,85.4492,-103.6377,1,475,923,2908
2136598925,421267,-0.7651,0.1914,1.7354,33.6914,109.3750,-114.5630,1,467,940,2908
2136603944,421268,-0.7417,0.1655,1.7002,30.5176,134.0332,-125.4883,1,483,932,2908
2136608926,421269,-0.7285,0.1260,1.6431,28.5645,157.2266,-135.0098,1,483,921,2908
2136613923,421270,-0.7227,0.0737,1.5791,27.5269,177.5513,-143.0054,1,493,933,2908
2136618927,421271,-0.7173,0.0161,1.5273,28.0762,193.6035,-149.1699,1,483,941,2908
2136623928,421272,-0.6851,-0.0479,1.5020,29.5410,206.8481,-153.1372,1,492,945,2908
2136628926,421273,-0.6147,-0.1240,1.4980,31.2500,220.7031,-155.0903,1,491,939,2908
2136633927,421274,-0.5249,-0.2085,1.4878,33.8745,236.0229,-154.9683,1,474,841,2908
2136638922,421275,-0.4448,-0.2900,1.4458,37.2925,251.4648,-153.0762,1,480,913,2908
2136643922,421276,-0.3906,-0.3638,1.3726,41.0156,265.9302,-149.5972,1,490,913,2908
2136648928,421277,-0.3584,-0.4263,1.2827,45.1660,278.1982,-144.2261,1,474,905,2908
2136653928,421278,-0.3379,-0.4761,1.1914,48.9502,287.5977,-137.4512,1,474,912,2908
2136658928,421279,-0.3179,-0.5161,1.1104,51.8188,293.9453,-129.4556,1,493,906,2908
2136663928,421280,-0.2935,-0.5498,1.0454,54.1382,297.5464,-120.0561,1,466,942,2908
2136668928,421281,-0.2617,-0.5771,0.9985,55.2978,299.2554,-109.6191,1,483,945,2908
2136673923,421282,-0.2236,-0.5972,0.9712,54.7485,300.0488,-98.3276,1,466,951,2908
2136678927,421283,-0.1860,-0.6069,0.9600,52.9175,300.7202,-86.6699,1,484,939,2908
2136683923,421284,-0.1528,-0.5977,0.9644,49.1333,301.2695,-75.1953,1,465,881,2908
2136688924,421285,-0.1177,-0.5693,0.9897,42.9077,301.9409,-64.0869,1,471,934,2908
2136693930,421286,-0.0801,-0.5332,1.0303,34.6069,303.7109,-53.6499,1,471,924,2908
2136698923,421287,-0.0430,-0.4990,1.0698,24.7803,305.7861,-44.0063,1,467,921,2908
2136703923,421288,-0.0083,-0.4697,1.1001,13.6719,308.1055,-34.9731,1,476,924,2908
2136708929,421289,0.0176,-0.4458,1.1294,1.8311,310.1807,-26.6113,1,477,907,2908
2136713947,421290,0.0352,-0.4263,1.1714,-10.5591,311.9507,-18.7988,1,484,896,2908
2136718924,421291,0.0557,-0.4160,1.2329,-23.0103,313.3545,-11.1084,1,484,905,2908
2136723928,421292,0.0869,-0.4214,1.3115,-34.4238,315.7959,-2.7466,1,493,933,2908
2136728928,421293,0.1201,-0.4375,1.4009,-43.8843,319.3970,6.2256,1,486,918,2908
2136733923,421294,0.1494,-0.4507,1.4951,-51.2085,323.4253,15.8691,1,494,915,2908
2136738929,421295,0.1772,-0.4478,1.5884,-56.6406,328.1250,26.1841,1,478,948,2908
2136743926,421296,0.2070,-0.4224,1.6812,-60.3638,333.2519,36.4380,1,481,841,2908
2136748923,421297,0.2368,-0.3730,1.7773,-63.6597,338.9892,45.7764,1,488,908,2908
2136753927,421298,0.2622,-0.3115,1.8730,-66.5283,344.7265,53.9551,1,478,924,2908
2136758931,421299,0.3018,-0.2490,1.9604,-69.0308,350.6469,61.2183,1,482,918,2908
2136763922,421300,0.3647,-0.1938,2.0283,-70.8618,358.3374,67.2607,1,481,905,2908
2136768927,421301,0.4233,-0.1479,2.0630,-71.7773,367.0654,71.7773,1,493,911,2908
2136773923,421302,0.4897,-0.0615,2.0249,-70.1904,379.5776,77.6978,1,466,937,2908
2136778930,421303,0.5132,-0.0166,1.9761,-68.9087,383.1176,79.0405,1,484,936,2908
2136783924,421304,0.5303,0.0244,1.9336,-67.3828,384.2773,79.2847,1,466,929,2908
2136788929,421305,0.5449,0.0527,1.9185,-65.4297,382.6904,78.6743,1,484,934,2908
2136793924,421306,0.5640,0.0591,1.9424,-63.1103,380.4321,77.3926,1,465,924,2908
2136798926,421307,0.5889,0.0396,2.0020,-59.7534,378.3569,76.0498,1,472,957,2908
2136803926,421308,0.6201,0.0015,2.0806,-55.0537,377.2583,74.8901,1,471,927,2908
2136808922,421309,0.6621,-0.0400,2.1533,-49.0723,377.3803,74.2188,1,470,919,2908
2136813922,421310,0.7090,-0.0708,2.1968,-42.6636,378.9062,73.9136,1,479,963,2908
2136818929,421311,0.7490,-0.0825,2.2100,-37.1094,380.4931,73.4253,1,479,935,2908
2136823923,421312,0.7832,-0.0825,2.2114,-33.0811,381.3476,72.5708,1,483,911,2908
2136828930,421313,0.8179,-0.0830,2.2168,-30.6396,381.5918,71.4111,1,483,920,2908
2136833922,421314,0.8486,-0.0869,2.2324,-30.3955,381.7138,70.0073,1,465,940,2908
2136838924,421315,0.8721,-0.0913,2.2681,-32.7148,379.8217,68.3594,1,472,945,2908
2136843923,421316,0.9170,-0.1021,2.3325,-36.6821,376.1596,66.5894,1,493,931,2908
2136848927,421317,1.0156,-0.1294,2.4160,-41.0767,373.8403,65.7349,1,488,861,2908
2136853928,421318,1.1509,-0.1738,2.4814,-44.5557,374.8779,65.3076,1,490,844,2908
2136858922,421319,1.2812,-0.2183,2.4902,-45.9595,376.6479,65.3076,1,476,926,2908
2136863924,421320,1.3906,-0.2495,2.4263,-46.2036,376.2817,65.6128,1,486,947,2908
2136868928,421321,1.4893,-0.2744,2.2983,-46.3867,373.3520,66.1011,1,483,919,2908
2136873927,421322,1.5879,-0.3071,2.1216,-45.5933,367.2485,66.9556,1,485,916,2908
2136878930,421323,1.6880,-0.3418,1.9092,-43.9453,357.4218,68.1763,1,492,915,2908
2136883929,421324,1.7827,-0.3594,1.6821,-43.0908,343.8720,69.5190,1,466,941,2908
2136888926,421325,1.8784,-0.3496,1.4683,-43.6401,326.4770,70.3735,1,483,943,2908
2136893926,421326,1.9897,-0.3091,1.2803,-45.2270,306.8237,70.1294,1,466,947,2908
2136898923,421327,2.1157,-0.2290,1.1118,-48.9502,286.1328,68.1152,1,485,928,2908
2136903925,421328,2.2500,-0.1177,0.9541,-55.8472,265.0146,63.8428,1,468,931,2908
2136908922,421329,2.3838,0.0034,0.8047,-64.9414,243.5303,57.2510,1,467,938,2908
2136913923,421330,2.5029,0.1182,0.6543,-74.3408,221.0693,48.4009,1,474,921,2908
2136918930,421331,2.5967,0.2100,0.4941,-83.5571,196.9604,37.8418,1,476,926,2908
2136923926,421332,2.6704,0.2603,0.3350,-90.6982,169.8608,27.1606,1,474,931,2908
2136928931,421333,2.7427,0.2651,0.2031,-94.5434,139.9536,17.7612,1,481,943,2908
2136933945,421334,2.8218,0.2212,0.1221,-93.9941,108.5815,10.6201,1,483,924,2908
2136938922,421335,2.8965,0.1372,0.0840,-87.7075,77.2095,6.7139,1,466,926,2908
2136943926,421336,2.9351,0.0400,0.0664,-75.5615,46.3257,5.8594,1,493,916,2908
2136948924,421337,2.9121,-0.0493,0.0649,-58.7158,14.1602,7.6904,1,485,914,2908
2136953927,421338,2.8271,-0.1255,0.0913,-38.2690,-18.7378,10.8032,1,466,857,2908
2136958928,421339,2.7041,-0.1685,0.1553,-15.0146,-51.9409,14.3433,1,480,827,2908
2136963928,421340,2.6753,-0.0757,0.2290,6.1035,-87.5244,16.5405,1,485,840,2908
2136968922,421341,3.0430,0.6445,-0.5571,22.8882,-212.8296,16.4185,1,483,889,2908
2136973925,421342,2.3481,1.6929,-2.0352,-5.4321,-351.7456,-18.4937,1,474,912,2908
2136978923,421343,0.6821,1.1689,-1.8354,-143.6157,-373.4741,-61.1572,1,480,898,2908
2136983929,421344,0.3657,-0.5420,0.2817,-131.1035,-356.2011,-53.6499,1,484,926,2908
2136988940,421345,0.3594,-1.3687,2.0020,-15.0757,-315.6738,-40.3442,1,493,920,2908
2136993929,421346,-0.8994,-1.5112,2.4375,-5.2490,-257.8125,-62.0117,1,466,936,2908
2136998928,421347,-2.1587,-1.6094,2.0122,32.9590,-300.5371,-54.0161,1,484,932,2908
2137003928,421348,-1.9814,-1.4116,1.0078,96.7407,-391.2964,-30.2734,1,465,935,2908
2137008928,421349,-0.7876,-0.9038,-0.0635,66.8945,-423.0957,-16.2354,1,484,952,2908
2137013922,421350,0.2988,-0.4272,-0.5879,36.9873,-453.8574,11.3525,1,465,920,2908
2137018930,421351,0.7798,-0.1294,-0.1519,25.9399,-490.6006,29.9683,1,471,946,2908
2137023924,421352,0.7729,0.0093,1.2603,8.0566,-496.3989,32.5317,1,482,968,2908
2137028929,421353,0.7524,0.1357,2.9819,16.6016,-490.6616,40.5884,1,466,915,2908
2137033931,421354,1.0508,0.4321,4.1323,33.8135,-457.5805,38.9404,1,466,927,2908
2137038922,421355,1.5889,0.8193,4.3335,47.3022,-407.7758,21.8506,1,465,933,2908
2137043930,421356,1.8979,1.0513,3.8154,44.1894,-332.4585,-0.3052,1,484,929,2908
2137048922,421357,1.5977,0.9238,3.1060,20.3247,-269.2261,-15.6860,1,484,913,2908
2137053923,421358,0.9946,0.4297,2.5723,1.6479,-237.2436,-18.6768,1,492,940,2908
2137058929,421359,0.5508,-0.1685,2.2397,-2.9297,-216.9800,-15.6860,1,475,925,2908
2137063926,421360,0.3604,-0.5728,1.9521,-3.4790,-196.4111,-10.9253,1,494,932,2908
2137068922,421361,0.1201,-0.8926,1.6699,-6.8970,-177.9175,-3.1738,1,464,868,2908
2137073923,421362,-0.3354,-1.4624,1.8535,3.4180,-158.8745,23.0103,1,483,849,2908
2137078930,421363,-0.0547,-1.7817,2.2036,63.9038,-211.3037,53.2837,1,485,910,2908
2137083928,421364,0.7637,-1.4341,2.0728,83.7402,-163.0859,54.6875,1,485,919,2908
2137088930,421365,0.8218,-0.7510,1.7935,94.6655,-112.7319,47.4243,1,490,916,2908
2137093927,421366,0.3901,0.0327,1.6484,122.2534,-119.3237,46.6309,1,489,923,2908
2137098928,421367,0.1729,0.6309,1.6680,114.6240,-114.5019,38.5132,1,493,955,2908
2137103922,421368,0.2534,0.7515,1.8540,95.3979,-88.5010,27.0386,1,493,915,2908
2137108926,421369,0.4604,0.4854,2.0015,89.7217,-67.9321,22.7051,1,466,937,2908
2137113924,421370,0.5488,0.1621,1.8701,82.0923,-39.4287,18.7378,1,465,928,2908
2137118923,421371,0.3389,-0.0264,1.5083,78.9185,-19.1040,15.6860,1,477,930,2908
2137123929,421372,0.0010,-0.0278,1.1377,80.0781,-19.2871,15.6250,1,465,913,2908
2137128924,421373,-0.1958,0.0874,1.0020,76.9043,-27.4048,14.5264,1,474,859,2908
2137133923,421374,-0.1328,0.2471,1.1431,70.0073,-32.2266,13.0005,1,479,955,2908
2137138930,421375,0.0098,0.5322,1.4272,60.1807,-26.0010,7.3242,1,479,906,2908
2137143929,421376,0.1440,0.7158,1.5845,34.0576,-24.6582,0.0610,1,477,911,2908
2137148931,421377,0.1543,0.5005,1.4243,11.7187,-9.5215,-1.8921,1,477,915,2908
2137153925,421378,-0.0039,0.1133,1.1338,8.3618,-12.3291,-0.8545,1,477,885,2908
2137158954,421379,-0.0942,-0.1035,0.9771,12.0239,-19.7144,0.9155,1,484,885,2908
2137163931,421380,-0.0679,-0.0503,1.0078,12.5732,-20.5078,0.9766,1,483,893,2908
2137168924,421381,-0.0073,0.0903,1.1001,7.0801,-19.2871,0.7324,1,493,913,2908
2137173926,421382,0.0103,0.1338,1.1265,1.7090,-18.6157,0.3052,1,466,882,2908
2137178925,421383,-0.0103,0.0767,1.0991,-0.8545,-19.8364,0.1221,1,494,888,2908
2137183924,421384,-0.0063,0.0117,1.0845,-0.9766,-20.8740,-0.0610,1,473,831,2908
2137188929,421385,0.0112,-0.0098,1.0811,-0.8545,-18.3105,-1.0376,1,476,863,2908
2137193926,421386,0.0098,-0.0068,1.0703,-1.4648,-17.7002,-1.4648,1,491,855,2908
2137198925,421387,0.0059,-0.0068,1.0571,-1.8311,-17.5781,-1.1597,1,480,858,2908
2137203925,421388,0.0005,-0.0093,1.0439,-1.3428,-15.9912,-0.9766,1,475,856,2908
2137208929,421389,-0.0088,-0.0083,1.0337,-1.4648,-15.4419,-1.2207,1,481,861,2908
2137213926,421390,-0.0088,-0.0068,1.0327,-1.9531,-15.5640,-1.6479,1,478,868,2908
2137218948,421391,0.0010,-0.0103,1.0366,-1.4038,-15.4419,-2.2583,1,493,872,2908
2137223923,421392,0.0073,-0.0151,1.0386,-0.4272,-14.8926,-2.9907,1,466,894,2908
2137228930,421393,0.0015,-0.0195,1.0327,0.4883,-14.5874,-3.9673,1,466,902,2908
2137233928,421394,-0.0093,-0.0220,1.0244,1.4648,-14.9536,-4.7607,1,469,899,2908
2137238923,421395,-0.0088,-0.0215,1.0215,2.3804,-15.4419,-5.4321,1,484,893,2908
2137243926,421396,0.0039,-0.0200,1.0259,3.1128,-15.1978,-6.1035,1,482,894,2908
2137248930,421397,0.0127,-0.0181,1.0298,3.9673,-14.4653,-6.4087,1,481,953,2908
2137253924,421398,0.0146,-0.0146,1.0317,4.5166,-14.1602,-6.2866,1,477,886,2908
2137258925,421399,0.0156,-0.0137,1.0308,4.8828,-13.6719,-5.9204,1,481,908,2908
2137263928,421400,0.0186,-0.0151,1.0303,5.1270,-13.4888,-5.0659,1,483,899,2908
2137268923,421401,0.0249,-0.0112,1.0337,5.2490,-12.6953,-4.0894,1,481,882,2908
2137273938,421402,0.0317,-0.0024,1.0386,5.4932,-11.4136,-3.4180,1,484,887,2908
2137278922,421403,0.0308,0.0000,1.0356,5.1880,-10.4370,-2.6855,1,483,882,2908
2137283931,421404,0.0220,-0.0034,1.0269,5.1270,-9.3994,-2.1973,1,492,858,2908
2137288930,421405,0.0142,-0.0044,1.0195,5.1880,-8.9111,-1.8311,1,466,882,2908
2137293929,421406,0.0083,-0.0015,1.0137,4.8218,-8.3008,-1.6479,1,494,879,2908
2137298925,421407,0.0029,-0.0015,1.0117,4.2725,-7.9346,-1.7090,1,472,769,2908
2137303924,421408,0.0088,-0.0044,1.0181,3.9673,-7.8125,-1.8311,1,490,844,2908
2137308928,421409,0.0229,-0.0073,1.0254,3.8452,-6.7139,-2.0752,1,471,842,2908
2137313927,421410,0.0293,-0.0059,1.0283,3.8452,-5.1880,-2.6245,1,473,855,2908
2137318930,421411,0.0234,-0.0034,1.0259,3.9062,-4.0894,-3.2349,1,478,855,2908
2137323931,421412,0.0137,-0.0020,1.0190,3.9062,-3.4180,-3.9673,1,479,851,2908
2137328927,421413,0.0088,0.0010,1.0156,4.1504,-2.8687,-5.1270,1,477,850,2908
2137333937,421414,0.0024,0.0083,1.0156,4.6387,-2.5635,-6.5308,1,493,842,2908
2137338924,421415,-0.0181,0.0166,1.0103,5.3101,-3.1738,-8.2397,1,493,850,2908
2137343927,421416,-0.0347,0.0171,1.0039,5.1880,-5.4932,-9.5215,1,484,881,2908
2137348929,421417,-0.0254,0.0078,1.0059,5.6152,-7.2632,-10.1318,1,465,870,2908
2137353923,421418,-0.0029,0.0044,1.0151,5.9814,-7.3853,-10.6812,1,484,887,2908
2137358929,421419,0.0171,0.0039,1.0259,5.8594,-7.4463,-11.1694,1,473,893,2908
2137363930,421420,0.0225,-0.0088,1.0249,5.9204,-7.2632,-10.9253,1,468,952,2908
2137368926,421421,0.0200,-0.0225,1.0205,6.1646,-8.1177,-9.3994,1,470,885,2908
2137373927,421422,0.0342,-0.0078,1.0273,6.7139,-8.3618,-7.8735,1,479,882,2908
2137378930,421423,0.0562,0.0190,1.0386,6.2866,-6.3477,-7.8125,1,479,885,2908
2137383931,421424,0.0645,0.0166,1.0410,5.3711,-4.2114,-7.0190,1,478,868,2908
2137388957,421425,0.0605,-0.0005,1.0352,5.6152,-2.9297,-5.1880,1,483,865,2908
2137393923,421426,0.0449,-0.0044,1.0225,6.2866,-1.4038,-4.0894,1,484,858,2908
2137398926,421427,0.0146,-0.0005,1.0063,6.2256,-1.0376,-3.6011,1,466,879,2908
2137403931,421428,-0.0151,0.0044,0.9917,6.7749,-2.1362,-3.3569,1,466,869,2908
2137408926,421429,-0.0278,0.0005,0.9839,7.3242,-3.6621,-3.4180,1,494,886,2908
2137413930,421430,-0.0288,-0.0029,0.9844,8.4229,-4.6387,-3.6011,1,481,825,2908
2137418927,421431,-0.0166,0.0103,0.9980,8.9111,-6.4087,-3.8452,1,485,850,2908
2137423926,421432,0.0063,0.0273,1.0146,8.2397,-7.0801,-4.4556,1,473,858,2908
2137428930,421433,0.0234,0.0322,1.0269,7.5684,-7.2632,-4.9438,1,480,852,2908
2137433923,421434,0.0234,0.0332,1.0352,7.1411,-7.4463,-5.1880,1,474,859,2908
2137438926,421435,0.0127,0.0420,1.0332,6.4697,-8.2397,-5.6763,1,488,858,2908
2137443945,421436,0.0107,0.0381,1.0347,5.3711,-9.0332,-6.4087,1,492,860,2908
2137448928,421437,0.0234,0.0229,1.0454,4.5776,-9.5825,-6.1646,1,466,847,2908
2137453925,421438,0.0308,0.0190,1.0483,4.5776,-8.9722,-6.0425,1,484,889,2908
2137458926,421439,0.0249,0.0244,1.0420,4.3335,-9.5825,-6.1646,1,476,873,2908
2137463922,421440,0.0215,0.0249,1.0366,3.7842,-10.6201,-5.7983,1,465,879,2908
2137468930,421441,0.0259,0.0264,1.0405,3.7231,-11.2915,-5.1880,1,482,904,2908
2137473928,421442,0.0347,0.0337,1.0454,2.9907,-11.6577,-4.9438,1,477,945,2908
2137478923,421443,0.0386,0.0405,1.0430,2.0142,-11.4746,-4.6997,1,479,896,2908
2137483930,421444,0.0312,0.0342,1.0361,1.4038,-11.9019,-4.4556,1,465,901,2908
2137488924,421445,0.0083,0.0229,1.0269,1.5259,-12.5732,-3.7231,1,477,923,2908
2137493928,421446,-0.0137,0.0234,1.0186,1.2207,-14.7095,-2.9907,1,482,886,2908
2137498922,421447,-0.0103,0.0239,1.0195,0.7324,-16.9067,-2.8076,1,483,879,2908
2137503926,421448,-0.0015,0.0200,1.0239,0.7935,-18.0054,-2.6855,1,466,895,2908
2137508923,421449,0.0029,0.0166,1.0264,0.8545,-20.0195,-2.6245,1,492,884,2908
2137513924,421450,0.0020,0.0190,1.0259,1.2207,-21.6675,-2.6855,1,466,888,2908
2137518922,421451,-0.0098,0.0264,1.0195,0.7935,-24.1089,-3.0518,1,494,897,2908
2137523928,421452,-0.0200,0.0337,1.0190,0.0610,-26.9165,-3.4790,1,474,833,2908
2137528927,421453,-0.0181,0.0361,1.0234,-0.5493,-30.7007,-3.6621,1,474,842,2908
2137533927,421454,0.0215,0.0225,1.0366,-1.7700,-34.5459,-4.5166,1,478,872,2908
2137538927,421455,0.0137,0.0254,1.0371,-2.5024,-37.1094,-5.1270,1,475,866,2908
2137543923,421456,-0.0010,0.0298,1.0342,-4.3335,-40.3442,-6.1035,1,478,890,2908
2137548923,421457,-0.0020,0.0376,1.0342,-5.1880,-42.3584,-6.9580,1,488,865,2908
2137553923,421458,0.0039,0.0439,1.0361,-6.9580,-44.9829,-7.6294,1,492,867,2908
2137558926,421459,-0.0010,0.0498,1.0425,-9.0942,-47.9126,-8.6060,1,466,876,2908
2137563928,421460,0.0088,0.0649,1.0527,-11.5967,-55.2368,-9.0942,1,483,895,2908
2137568923,421461,0.0156,0.0801,1.0566,-14.5874,-59.5093,-10.6812,1,466,922,2908
2137573922,421462,0.0127,0.0786,1.0596,-18.4326,-67.6880,-13.2446,1,484,933,2908
2137578930,421463,-0.0059,0.0684,1.0562,-21.1182,-77.3926,-16.4185,1,465,871,2908
2137583928,421464,-0.0845,0.0615,1.0396,-25.2075,-87.7685,-19.5312,1,474,911,2908
2137588927,421465,-0.2012,0.0576,1.0293,-29.1138,-102.9053,-20.9351,1,477,965,2908
2137593927,421466,-0.3955,0.0737,1.0254,-33.7524,-121.6431,-22.3999,1,481,923,2908
2137598927,421467,-0.6748,0.1357,1.0337,-39.5508,-149.7192,-21.7285,1,481,941,2908
2137603924,421468,-0.9565,0.2393,1.0352,-46.8750,-188.4765,-20.5078,1,482,937,2908
2137608923,421469,-1.2334,0.3872,1.0601,-57.6172,-225.8911,-19.8364,1,480,929,2908
2137613929,421470,-1.1274,0.3633,1.2124,-74.6460,-289.2456,-15.0146,1,484,917,2908
2137618927,421471,-0.2656,0.1289,1.3545,-82.8857,-342.7734,-13.4888,1,466,943,2908
2137623926,421472,-0.0396,0.0674,1.4692,-85.9375,-311.2793,-26.7334,1,466,957,2908
2137628928,421473,-0.7656,0.3066,1.7300,-107.9712,-369.3847,-22.4609,1,494,936,2908
2137633925,421474,-0.7905,0.6455,1.8706,-125.1221,-449.1577,-19.5923,1,465,953,2908
2137638927,421475,-0.3213,0.8306,1.8096,-175.1709,-455.6274,-35.5835,1,486,881,2908
2137643922,421476,-0.5854,0.6646,1.9634,-234.9853,-442.9931,-54.3213,1,490,873,2908
2137648926,421477,-1.2441,0.3525,2.0908,-235.2295,-530.3345,-51.9409,1,478,930,2908
2137653924,421478,-1.3027,0.0562,1.7173,-240.7226,-604.7974,-55.7861,1,476,921,2908
