t_us, seq, ax, ay, az, gx, gy, gz, valid, t_imu_us, t_serial_us, missed
226396306,34558,-0.0337,-0.0464,1.0215,0.3052,0.1221,-0.2441,1,479,822,235
226401308,34559,-0.0342,-0.0474,1.0205,0.2441,0.0610,-0.2441,1,497,823,235
226406307,34560,-0.0347,-0.0493,1.0195,0.4272,0.0000,-0.1221,1,509,829,235
226411306,34561,-0.0352,-0.0498,1.0200,0.4272,-0.0610,-0.1221,1,471,803,235
226416308,34562,-0.0352,-0.0488,1.0215,0.3662,-0.0610,-0.2441,1,492,845,235
226421301,34563,-0.0337,-0.0493,1.0225,0.3662,-0.0610,-0.2441,1,466,876,235
226426301,34564,-0.0337,-0.0503,1.0215,0.4272,0.0000,-0.3052,1,466,879,235
226431302,34565,-0.0347,-0.0513,1.0200,0.3662,0.0000,-0.2441,1,466,825,235
226436307,34566,-0.0361,-0.0522,1.0186,0.4883,-0.0610,-0.3052,1,466,832,235
226441305,34567,-0.0361,-0.0518,1.0186,0.6104,-0.1831,-0.3662,1,466,874,235
226446304,34568,-0.0342,-0.0503,1.0210,0.6104,-0.1831,-0.3052,1,466,878,235
226451304,34569,-0.0322,-0.0483,1.0229,0.6104,-0.2441,-0.3052,1,466,868,235
226456308,34570,-0.0312,-0.0469,1.0239,0.7324,-0.1221,-0.3052,1,466,879,235
226461302,34571,-0.0312,-0.0464,1.0234,0.6104,-0.1831,-0.3052,1,466,898,235
226466307,34572,-0.0312,-0.0469,1.0220,0.6104,-0.0610,-0.4272,1,466,899,235
226471304,34573,-0.0327,-0.0479,1.0210,0.6714,-0.1221,-0.3662,1,481,894,235
226476308,34574,-0.0337,-0.0479,1.0205,0.6104,-0.1831,-0.3052,1,510,863,235
226481302,34575,-0.0332,-0.0483,1.0205,0.5493,-0.0610,-0.3052,1,492,898,235
226486302,34576,-0.0337,-0.0508,1.0195,0.7324,-0.1831,-0.4272,1,494,865,235
226491302,34577,-0.0342,-0.0518,1.0200,0.7324,-0.0610,-0.3662,1,474,776,235
226496304,34578,-0.0332,-0.0503,1.0210,0.7324,-0.1221,-0.3662,1,477,828,235
226501304,34579,-0.0327,-0.0488,1.0220,0.7324,0.0610,-0.4272,1,500,828,235
226506303,34580,-0.0327,-0.0479,1.0220,0.7935,-0.0610,-0.3052,1,504,833,235
226511305,34581,-0.0317,-0.0498,1.0215,0.7935,-0.1221,-0.4883,1,507,851,235
226516304,34582,-0.0327,-0.0518,1.0210,0.8545,-0.2441,-0.3662,1,475,849,235
226521301,34583,-0.0332,-0.0518,1.0210,0.9766,-0.2441,-0.3052,1,478,849,235
226526306,34584,-0.0337,-0.0503,1.0210,0.8545,-0.2441,-0.3052,1,493,843,235
226531302,34585,-0.0347,-0.0493,1.0195,0.9155,-0.2441,-0.4883,1,466,870,235
226536308,34586,-0.0371,-0.0522,1.0151,0.9766,-0.2441,-0.4272,1,466,883,235
226541308,34587,-0.0361,-0.0488,1.0161,1.3428,-0.4883,-0.4272,1,466,884,235
226546308,34588,-0.0337,-0.0454,1.0215,0.9766,-0.2441,-0.6104,1,466,883,235
226551302,34589,-0.0337,-0.0474,1.0220,1.1597,-0.3052,-0.5493,1,466,875,235
226556308,34590,-0.0337,-0.0454,1.0210,1.2817,-0.6104,-0.4272,1,466,874,235
226561302,34591,-0.0327,-0.0435,1.0205,1.0986,-0.3052,-0.4883,1,465,878,235
226566303,34592,-0.0327,-0.0459,1.0200,0.9766,-0.3662,-0.5493,1,466,875,235
226571307,34593,-0.0337,-0.0483,1.0195,1.0376,-0.4272,-0.4883,1,483,878,235
226576304,34594,-0.0347,-0.0483,1.0195,1.1597,-0.3662,-0.4883,1,465,879,235
226581330,34595,-0.0342,-0.0488,1.0215,1.3428,-0.6104,-0.4272,1,485,869,235
226586301,34596,-0.0322,-0.0483,1.0229,1.2817,-0.4883,-0.4883,1,484,864,235
226591303,34597,-0.0312,-0.0454,1.0234,1.3428,-0.4272,-0.5493,1,479,922,235
226596308,34598,-0.0312,-0.0435,1.0234,1.2817,-0.5493,-0.5493,1,500,949,235
226601310,34599,-0.0312,-0.0435,1.0234,1.0376,-0.4883,-0.6104,1,476,788,235
226606304,34600,-0.0312,-0.0449,1.0234,0.9766,-0.4883,-0.6714,1,499,776,235
226611301,34601,-0.0312,-0.0449,1.0234,0.9155,-0.4883,-0.6104,1,489,855,235
226616308,34602,-0.0308,-0.0444,1.0234,0.8545,-0.3662,-0.5493,1,489,855,235
226621305,34603,-0.0308,-0.0449,1.0225,0.8545,-0.2441,-0.4883,1,494,833,235
226626306,34604,-0.0312,-0.0459,1.0225,0.7935,-0.4272,-0.4272,1,487,844,235
226631306,34605,-0.0317,-0.0464,1.0239,0.8545,-0.3662,-0.4272,1,486,874,235
226636302,34606,-0.0312,-0.0459,1.0249,0.7324,-0.3052,-0.5493,1,493,853,235
226641301,34607,-0.0312,-0.0444,1.0249,0.6104,-0.2441,-0.4883,1,466,902,235
226646303,34608,-0.0312,-0.0449,1.0249,0.4883,-0.0610,-0.4883,1,466,905,235
226651302,34609,-0.0317,-0.0459,1.0239,0.3052,-0.0610,-0.3662,1,466,901,235
226656302,34610,-0.0322,-0.0464,1.0234,0.4272,-0.0610,-0.3052,1,466,877,235
226661302,34611,-0.0322,-0.0464,1.0244,0.3052,-0.0610,-0.3662,1,465,877,235
226666302,34612,-0.0322,-0.0469,1.0259,0.3052,0.0000,-0.3662,1,466,877,235
226671310,34613,-0.0322,-0.0464,1.0254,0.3052,-0.0610,-0.3052,1,466,829,235
226676304,34614,-0.0322,-0.0459,1.0244,0.2441,-0.1221,-0.3052,1,466,869,235
226681302,34615,-0.0322,-0.0469,1.0229,0.2441,-0.0610,-0.3662,1,483,876,235
226686304,34616,-0.0322,-0.0474,1.0220,0.2441,0.0000,-0.4272,1,466,868,235
226691305,34617,-0.0317,-0.0469,1.0234,0.2441,-0.1221,-0.4272,1,484,833,235
226696304,34618,-0.0303,-0.0454,1.0254,0.1221,0.0610,-0.2441,1,491,828,235
226701302,34619,-0.0298,-0.0454,1.0244,0.1221,0.0610,-0.3662,1,467,805,235
226706301,34620,-0.0308,-0.0449,1.0225,0.1221,-0.0610,-0.3052,1,493,865,235
226711310,34621,-0.0308,-0.0444,1.0229,0.0610,0.0610,-0.3662,1,471,846,235
226716309,34622,-0.0303,-0.0449,1.0249,0.0610,0.1831,-0.3662,1,489,838,235
226721304,34623,-0.0298,-0.0449,1.0254,0.0000,0.3052,-0.2441,1,488,831,235
226726301,34624,-0.0303,-0.0444,1.0239,0.0000,0.3662,-0.2441,1,489,782,235
226731308,34625,-0.0303,-0.0459,1.0210,-0.1221,0.3052,-0.3662,1,509,788,235
226736306,34626,-0.0312,-0.0459,1.0205,0.1221,0.1221,-0.3052,1,492,837,235
226741308,34627,-0.0317,-0.0459,1.0225,0.0610,0.0000,-0.3052,1,493,862,235
226746304,34628,-0.0312,-0.0464,1.0239,0.0000,0.0610,-0.2441,1,493,797,235
226751309,34629,-0.0308,-0.0464,1.0239,0.0000,0.1221,-0.3052,1,466,856,235
226756303,34630,-0.0317,-0.0464,1.0225,-0.0610,0.0610,-0.3052,1,466,822,235
226761308,34631,-0.0322,-0.0469,1.0205,-0.1221,0.0610,-0.2441,1,466,870,235
226766306,34632,-0.0327,-0.0483,1.0200,0.0000,-0.0610,-0.3052,1,466,874,235
226771305,34633,-0.0327,-0.0479,1.0190,0.0610,-0.0610,-0.3662,1,466,829,235
226776306,34634,-0.0317,-0.0479,1.0190,-0.1221,0.0000,-0.4883,1,466,877,235
226781303,34635,-0.0308,-0.0483,1.0215,-0.0610,-0.0610,-0.2441,1,466,828,235
226786303,34636,-0.0298,-0.0474,1.0244,0.0000,0.0610,-0.1831,1,465,875,235
226791304,34637,-0.0293,-0.0459,1.0244,-0.0610,0.0610,-0.3052,1,483,831,235
226796306,34638,-0.0308,-0.0459,1.0234,-0.0610,0.1221,-0.2441,1,465,869,235
226801305,34639,-0.0317,-0.0469,1.0234,-0.1221,0.0000,-0.1831,1,482,862,235
226806304,34640,-0.0312,-0.0454,1.0239,-0.0610,0.0000,-0.2441,1,484,828,235
226811309,34641,-0.0308,-0.0435,1.0254,-0.1221,0.0000,-0.2441,1,492,901,235
226816308,34642,-0.0303,-0.0435,1.0249,-0.1221,0.1221,-0.3052,1,483,704,235
226821302,34643,-0.0308,-0.0444,1.0234,-0.1221,0.1221,-0.3052,1,505,739,235
226826306,34644,-0.0322,-0.0449,1.0220,-0.1831,0.1221,-0.1831,1,489,848,235
226831306,34645,-0.0327,-0.0449,1.0220,-0.1831,0.1221,-0.0610,1,486,833,235
226836302,34646,-0.0317,-0.0454,1.0234,-0.2441,0.0610,-0.1221,1,485,830,235
226841301,34647,-0.0308,-0.0454,1.0249,-0.3052,0.0000,-0.2441,1,504,832,235
226846310,34648,-0.0312,-0.0449,1.0244,-0.2441,0.1221,-0.2441,1,509,783,235
226851309,34649,-0.0317,-0.0474,1.0234,-0.3662,0.0610,-0.3052,1,490,877,235
226856303,34650,-0.0293,-0.0469,1.0244,-0.2441,0.1221,-0.1221,1,489,847,235
226861307,34651,-0.0278,-0.0430,1.0259,-0.4883,0.2441,-0.1221,1,466,870,235
226866308,34652,-0.0283,-0.0439,1.0264,-0.7935,0.3052,-0.1831,1,466,875,235
226871305,34653,-0.0288,-0.0454,1.0254,-0.7324,0.4883,-0.1221,1,466,877,235
226876308,34654,-0.0283,-0.0459,1.0244,-0.7935,0.3052,-0.0610,1,466,878,235
226881303,34655,-0.0273,-0.0469,1.0244,-0.7324,0.4272,-0.1831,1,466,875,235
226886304,34656,-0.0278,-0.0469,1.0239,-0.6714,0.5493,-0.0610,1,466,882,235
226891304,34657,-0.0298,-0.0454,1.0225,-0.7935,0.6104,-0.0610,1,466,877,235
226896322,34658,-0.0317,-0.0435,1.0225,-1.0376,0.5493,-0.1221,1,466,873,235
226901303,34659,-0.0317,-0.0439,1.0244,-1.0376,0.4272,-0.1831,1,466,874,235
226906302,34660,-0.0293,-0.0439,1.0254,-1.0376,0.6714,-0.1831,1,484,884,235
226911303,34661,-0.0288,-0.0435,1.0244,-1.2207,0.7935,-0.1221,1,477,865,235
226916302,34662,-0.0308,-0.0449,1.0229,-1.2817,0.7324,-0.1221,1,465,828,235
226921303,34663,-0.0332,-0.0483,1.0220,-1.3428,0.7935,0.0610,1,491,906,235
226926303,34664,-0.0337,-0.0508,1.0220,-1.3428,0.7324,-0.0610,1,485,865,235
226931303,34665,-0.0337,-0.0503,1.0225,-1.2817,0.8545,-0.1221,1,508,754,235
226936301,34666,-0.0337,-0.0488,1.0210,-1.2817,0.7935,0.0000,1,487,787,235
226941306,34667,-0.0337,-0.0483,1.0190,-1.2207,0.7324,-0.1221,1,493,785,235
226946305,34668,-0.0337,-0.0488,1.0176,-1.0986,0.6104,-0.3052,1,488,830,235
226951308,34669,-0.0337,-0.0498,1.0176,-1.0986,0.6104,-0.2441,1,506,824,235
226956306,34670,-0.0322,-0.0503,1.0190,-1.0376,0.3662,-0.1831,1,474,848,235
226961306,34671,-0.0308,-0.0493,1.0225,-1.0986,0.4272,-0.3052,1,483,848,235
226966305,34672,-0.0298,-0.0488,1.0244,-1.0376,0.3662,-0.1831,1,492,847,235
226971309,34673,-0.0303,-0.0488,1.0234,-0.9766,0.4883,-0.1221,1,466,881,235
226976309,34674,-0.0312,-0.0493,1.0210,-1.1597,0.4272,-0.1221,1,466,872,235
226981307,34675,-0.0322,-0.0508,1.0200,-1.0376,0.4272,-0.1221,1,466,901,235
226986304,34676,-0.0332,-0.0513,1.0200,-0.9766,0.4883,-0.1221,1,466,872,235
226991309,34677,-0.0332,-0.0513,1.0210,-0.8545,0.4883,-0.1221,1,466,871,235
226996309,34678,-0.0322,-0.0518,1.0215,-0.8545,0.4883,-0.2441,1,466,872,235
227001310,34679,-0.0322,-0.0518,1.0205,-0.9155,0.5493,-0.2441,1,466,878,235
227006303,34680,-0.0332,-0.0518,1.0186,-0.9155,0.3662,-0.0610,1,466,884,235
227011302,34681,-0.0352,-0.0513,1.0181,-0.9155,0.3662,-0.1831,1,483,878,235
227016302,34682,-0.0356,-0.0513,1.0190,-0.6714,0.2441,-0.1221,1,466,875,235
227021332,34683,-0.0352,-0.0508,1.0200,-0.5493,0.1831,-0.1221,1,484,865,235
227026308,34684,-0.0342,-0.0518,1.0205,-0.5493,0.2441,-0.1831,1,483,861,235
227031303,34685,-0.0332,-0.0522,1.0215,-0.3662,0.2441,-0.1831,1,497,909,235
227036303,34686,-0.0327,-0.0508,1.0210,-0.4272,0.1831,-0.1221,1,503,874,235
227041302,34687,-0.0332,-0.0498,1.0205,-0.2441,0.2441,-0.1831,1,482,751,235
227046302,34688,-0.0327,-0.0493,1.0210,-0.1831,0.1831,-0.2441,1,486,866,235
227051301,34689,-0.0322,-0.0498,1.0229,-0.1831,0.2441,-0.1831,1,490,837,235
227056301,34690,-0.0322,-0.0508,1.0234,-0.1831,0.2441,-0.3052,1,487,841,235
227061308,34691,-0.0322,-0.0503,1.0234,0.0000,0.2441,-0.1221,1,497,831,235
227066305,34692,-0.0312,-0.0483,1.0229,-0.0610,0.2441,0.0000,1,480,801,235
227071302,34693,-0.0317,-0.0474,1.0220,-0.2441,0.3052,-0.1831,1,486,831,235
227076310,34694,-0.0327,-0.0493,1.0195,-0.0610,0.1831,-0.0610,1,493,847,235
227081305,34695,-0.0312,-0.0503,1.0210,-0.1831,0.2441,-0.2441,1,466,878,235
227086305,34696,-0.0303,-0.0513,1.0220,-0.3052,0.3052,-0.0610,1,466,903,235
227091305,34697,-0.0312,-0.0518,1.0205,-0.1221,0.3662,-0.1831,1,466,865,235
227096304,34698,-0.0332,-0.0508,1.0186,-0.1221,0.3662,-0.1831,1,466,902,235
227101303,34699,-0.0352,-0.0518,1.0176,0.0000,0.2441,-0.1831,1,466,875,235
227106305,34700,-0.0352,-0.0527,1.0186,0.1831,0.2441,-0.2441,1,466,831,235
227111301,34701,-0.0332,-0.0518,1.0215,0.3052,0.0610,-0.0610,1,466,883,235
227116305,34702,-0.0317,-0.0498,1.0249,0.1831,0.1831,-0.1831,1,466,870,235
227121307,34703,-0.0312,-0.0488,1.0244,0.1831,0.1221,-0.3052,1,483,888,235
227126305,34704,-0.0317,-0.0498,1.0229,0.1221,0.1221,-0.2441,1,465,902,235
227131307,34705,-0.0317,-0.0508,1.0229,0.0610,0.1221,-0.1221,1,484,868,235
227136308,34706,-0.0312,-0.0503,1.0234,0.1831,0.1831,-0.1831,1,484,812,235
227141307,34707,-0.0317,-0.0488,1.0234,0.1221,0.2441,-0.2441,1,481,933,235
227146301,34708,-0.0322,-0.0483,1.0239,0.0000,0.1831,-0.1221,1,483,871,235
227151310,34709,-0.0327,-0.0508,1.0234,0.0610,0.0610,-0.1831,1,492,798,235
227156305,34710,-0.0322,-0.0532,1.0229,0.1831,0.1831,-0.1221,1,486,838,235
227161307,34711,-0.0312,-0.0527,1.0220,0.1221,0.1221,-0.1831,1,493,836,235
227166307,34712,-0.0317,-0.0518,1.0210,0.1221,0.1831,-0.0610,1,490,853,235
227171302,34713,-0.0327,-0.0513,1.0200,0.2441,0.2441,-0.0610,1,506,845,235
227176308,34714,-0.0327,-0.0513,1.0205,0.1831,0.1831,-0.3052,1,478,849,235
227181302,34715,-0.0312,-0.0513,1.0215,0.1831,0.1221,-0.1831,1,491,849,235
227186304,34716,-0.0312,-0.0503,1.0215,0.1831,0.1221,-0.1831,1,493,873,235
227191303,34717,-0.0332,-0.0493,1.0210,0.2441,0.1831,-0.0610,1,466,899,235
227196307,34718,-0.0342,-0.0488,1.0205,0.1221,0.3052,-0.1831,1,466,880,235
227201304,34719,-0.0327,-0.0493,1.0205,0.1831,0.1831,-0.1831,1,465,873,235
227206309,34720,-0.0312,-0.0493,1.0215,0.1221,0.1831,-0.1831,1,466,887,235
227211302,34721,-0.0308,-0.0483,1.0225,0.1831,0.1831,-0.1831,1,466,906,235
227216304,34722,-0.0303,-0.0474,1.0234,0.0610,0.1831,-0.0610,1,466,881,235
227221310,34723,-0.0303,-0.0479,1.0249,-0.1221,0.2441,-0.0610,1,466,873,235
227226308,34724,-0.0312,-0.0483,1.0259,0.0610,0.1831,-0.0610,1,466,873,235
227231305,34725,-0.0312,-0.0483,1.0249,0.0000,0.1831,-0.0610,1,483,902,235
227236316,34726,-0.0312,-0.0498,1.0220,-0.0610,0.1221,-0.0610,1,466,849,235
227241307,34727,-0.0317,-0.0503,1.0200,-0.0610,0.0610,-0.1221,1,484,886,235
227246305,34728,-0.0332,-0.0503,1.0190,0.0000,0.0610,-0.1831,1,492,894,235
227251301,34729,-0.0337,-0.0508,1.0181,0.1221,-0.0610,-0.1831,1,479,704,235
227256309,34730,-0.0327,-0.0508,1.0200,0.0000,-0.0610,-0.3052,1,509,802,235
227261303,34731,-0.0308,-0.0503,1.0234,0.0000,-0.1221,-0.1831,1,481,775,235
227266301,34732,-0.0303,-0.0493,1.0244,0.1221,-0.0610,-0.0610,1,491,779,235
227271301,34733,-0.0308,-0.0483,1.0229,-0.0610,0.0000,-0.1221,1,496,824,235
227276308,34734,-0.0327,-0.0488,1.0220,0.0610,0.1831,-0.1831,1,489,780,235
227281304,34735,-0.0342,-0.0493,1.0220,-0.0610,0.1831,-0.0610,1,485,832,235
227286306,34736,-0.0347,-0.0488,1.0220,-0.1221,-0.0610,-0.0610,1,476,847,235
227291301,34737,-0.0337,-0.0488,1.0220,-0.0610,-0.0610,-0.1831,1,492,843,235
227296301,34738,-0.0327,-0.0493,1.0225,-0.1221,0.0610,-0.1221,1,466,875,235
227301301,34739,-0.0317,-0.0508,1.0234,-0.1221,0.0610,-0.2441,1,465,872,235
227306302,34740,-0.0317,-0.0508,1.0239,-0.1221,0.0000,-0.1221,1,466,876,235
227311302,34741,-0.0312,-0.0493,1.0244,-0.1221,0.0610,-0.0610,1,466,826,235
227316301,34742,-0.0303,-0.0493,1.0244,-0.1221,0.1221,-0.1831,1,466,901,235
227321309,34743,-0.0298,-0.0488,1.0234,-0.0610,0.1221,-0.1221,1,466,875,235
227326304,34744,-0.0293,-0.0474,1.0244,-0.1221,0.0610,-0.1221,1,466,872,235
227331307,34745,-0.0283,-0.0488,1.0254,-0.2441,0.3052,-0.2441,1,466,869,235
227336304,34746,-0.0293,-0.0508,1.0249,-0.3052,0.4883,-0.1831,1,483,880,235
227341309,34747,-0.0298,-0.0513,1.0244,-0.1831,0.3662,0.0000,1,465,862,235
227346313,34748,-0.0298,-0.0498,1.0239,-0.2441,0.3052,-0.0610,1,485,777,235
227351303,34749,-0.0303,-0.0474,1.0225,-0.1831,0.6104,-0.1221,1,465,874,235
227356308,34750,-0.0327,-0.0483,1.0220,-0.2441,0.4883,-0.0610,1,506,895,235
227361301,34751,-0.0337,-0.0522,1.0210,-0.1831,0.2441,-0.0610,1,481,868,235
227366302,34752,-0.0327,-0.0513,1.0215,-0.0610,0.3052,-0.0610,1,469,856,235
227371302,34753,-0.0317,-0.0488,1.0229,-0.3052,0.3662,-0.0610,1,494,824,235
227376302,34754,-0.0303,-0.0488,1.0244,-0.2441,0.3662,0.0000,1,498,831,235
227381304,34755,-0.0293,-0.0498,1.0244,-0.3052,0.4272,-0.0610,1,498,815,235
227386309,34756,-0.0293,-0.0508,1.0244,-0.3662,0.4883,0.0000,1,507,855,235
227391308,34757,-0.0293,-0.0508,1.0244,-0.1831,0.6714,0.0000,1,474,801,235
227396302,34758,-0.0288,-0.0513,1.0239,-0.1831,0.5493,0.0000,1,478,800,235
227401310,34759,-0.0303,-0.0513,1.0229,-0.3052,0.6714,0.0610,1,493,808,235
227406302,34760,-0.0322,-0.0518,1.0210,-0.1831,0.6714,0.1221,1,466,869,235
227411308,34761,-0.0327,-0.0522,1.0205,0.0000,0.6104,0.0000,1,466,873,235
227416301,34762,-0.0322,-0.0542,1.0205,-0.0610,0.6104,-0.0610,1,466,786,235
227421309,34763,-0.0317,-0.0537,1.0200,0.0000,0.6104,-0.0610,1,466,872,235
227426301,34764,-0.0327,-0.0518,1.0205,0.0000,0.6104,0.0000,1,466,829,235
227431307,34765,-0.0332,-0.0508,1.0210,0.0610,0.6104,0.0000,1,466,782,235
227436327,34766,-0.0342,-0.0503,1.0205,0.0610,0.4272,-0.1221,1,466,822,235
227441307,34767,-0.0342,-0.0518,1.0195,-0.1221,0.4272,-0.2441,1,466,870,235
227446301,34768,-0.0327,-0.0527,1.0205,0.0000,0.3052,-0.1831,1,484,877,235
227451308,34769,-0.0322,-0.0508,1.0210,0.1221,0.1831,-0.1221,1,482,822,235
227456309,34770,-0.0332,-0.0508,1.0210,0.0610,0.1221,-0.1221,1,465,866,235
227461305,34771,-0.0322,-0.0518,1.0220,0.0610,0.2441,-0.0610,1,492,891,235
227466308,34772,-0.0312,-0.0513,1.0220,0.1831,0.4272,-0.0610,1,471,863,235
227471307,34773,-0.0317,-0.0508,1.0220,0.1221,0.3052,-0.0610,1,496,844,235
227476302,34774,-0.0317,-0.0522,1.0215,0.1831,0.3052,-0.1221,1,496,782,235
227481308,34775,-0.0322,-0.0513,1.0210,0.3052,0.3662,-0.0610,1,504,828,235
227486306,34776,-0.0332,-0.0483,1.0215,0.2441,0.3662,-0.0610,1,503,824,235
227491308,34777,-0.0327,-0.0479,1.0220,0.0610,0.4272,-0.1831,1,501,855,235
227496309,34778,-0.0317,-0.0488,1.0215,0.1221,0.5493,0.0000,1,490,848,235
227501308,34779,-0.0317,-0.0508,1.0225,0.1221,0.3662,-0.0610,1,471,803,235
227506303,34780,-0.0317,-0.0522,1.0244,0.1221,0.3052,-0.0610,1,493,842,235
227511303,34781,-0.0317,-0.0522,1.0244,0.1831,0.3662,-0.1221,1,466,845,235
227516308,34782,-0.0317,-0.0508,1.0229,0.1221,0.4272,-0.0610,1,466,882,235
227521305,34783,-0.0317,-0.0498,1.0239,0.1221,0.3662,0.0000,1,466,874,235
227526306,34784,-0.0312,-0.0498,1.0249,0.0000,0.4272,-0.0610,1,466,836,235
227531306,34785,-0.0308,-0.0513,1.0234,0.0000,0.3662,-0.1221,1,466,859,235
227536305,34786,-0.0308,-0.0508,1.0215,0.1831,0.3662,-0.0610,1,465,828,235
227541310,34787,-0.0322,-0.0493,1.0205,0.1831,0.3662,-0.1831,1,466,872,235
227546305,34788,-0.0342,-0.0498,1.0200,-0.1221,0.2441,-0.3052,1,466,886,235
227551302,34789,-0.0337,-0.0508,1.0210,0.0000,0.2441,-0.1831,1,483,871,235
227556301,34790,-0.0312,-0.0498,1.0234,0.1221,0.3052,0.0000,1,466,771,235
227561324,34791,-0.0298,-0.0483,1.0244,0.0000,0.3662,-0.0610,1,484,795,235
227566303,34792,-0.0298,-0.0483,1.0225,-0.0610,0.4883,-0.0610,1,465,873,235
227571307,34793,-0.0312,-0.0498,1.0215,-0.0610,0.4883,-0.0610,1,501,899,235
227576305,34794,-0.0322,-0.0508,1.0215,0.0000,0.6104,0.0610,1,499,953,235
227581301,34795,-0.0337,-0.0503,1.0205,0.0000,0.4272,0.0610,1,502,738,235
227586303,34796,-0.0347,-0.0493,1.0205,-0.0610,0.4272,0.0610,1,486,778,235
227591305,34797,-0.0327,-0.0493,1.0215,0.0000,0.4272,0.0000,1,486,827,235
227596305,34798,-0.0312,-0.0508,1.0215,0.0610,0.3662,0.0610,1,482,743,235
227601309,34799,-0.0317,-0.0508,1.0210,0.1221,0.3052,0.0000,1,508,847,235
227606307,34800,-0.0327,-0.0493,1.0215,0.0000,0.3662,0.0000,1,491,791,235
227611304,34801,-0.0327,-0.0483,1.0229,0.0000,0.1831,0.1221,1,475,760,235
227616308,34802,-0.0317,-0.0488,1.0234,0.0610,0.1831,-0.0610,1,493,805,235
227621303,34803,-0.0308,-0.0488,1.0234,0.0610,0.4272,-0.0610,1,466,851,235
227626305,34804,-0.0312,-0.0503,1.0234,0.0000,0.5493,0.0000,1,466,874,235
227631309,34805,-0.0327,-0.0518,1.0225,0.0610,0.6104,0.0000,1,466,811,235
227636301,34806,-0.0327,-0.0508,1.0229,0.0000,0.4272,0.0000,1,466,826,235
227641304,34807,-0.0322,-0.0508,1.0244,0.0000,0.6104,0.0000,1,466,786,235
227646303,34808,-0.0327,-0.0513,1.0239,0.0000,0.5493,0.0610,1,466,783,235
227651305,34809,-0.0322,-0.0508,1.0234,0.0000,0.3662,0.0610,1,466,832,235
227656307,34810,-0.0317,-0.0503,1.0234,0.0000,0.4883,0.0610,1,465,831,235
227661306,34811,-0.0332,-0.0503,1.0215,-0.1221,0.3662,0.0000,1,483,829,235
227666306,34812,-0.0337,-0.0508,1.0195,0.0000,0.3052,-0.1221,1,466,817,235
227671329,34813,-0.0332,-0.0503,1.0205,0.0610,0.3662,-0.1221,1,484,820,235
227676305,34814,-0.0317,-0.0498,1.0220,0.0610,0.4272,-0.0610,1,484,861,235
227681301,34815,-0.0312,-0.0498,1.0229,0.0610,0.2441,0.0610,1,498,904,235
227686305,34816,-0.0317,-0.0503,1.0229,0.1831,0.3052,0.0610,1,481,892,235
227691310,34817,-0.0327,-0.0503,1.0220,0.1831,0.3052,0.0610,1,502,751,235
227696301,34818,-0.0332,-0.0503,1.0210,0.1221,0.3052,0.0610,1,476,835,235
227701304,34819,-0.0327,-0.0498,1.0210,0.0610,0.3662,-0.0610,1,486,817,235
227706301,34820,-0.0322,-0.0488,1.0215,0.1221,0.3052,-0.0610,1,488,830,235
227711302,34821,-0.0322,-0.0483,1.0215,0.0610,0.3662,0.0610,1,490,845,235
227716310,34822,-0.0322,-0.0493,1.0215,0.0000,0.4272,0.0000,1,491,849,235
227721306,34823,-0.0317,-0.0503,1.0210,0.1221,0.4272,0.0000,1,492,760,235
227726303,34824,-0.0322,-0.0503,1.0215,0.0610,0.4272,0.0000,1,493,797,235
227731302,34825,-0.0327,-0.0498,1.0215,0.0610,0.3662,0.1221,1,466,799,235
227736310,34826,-0.0342,-0.0493,1.0205,0.0610,0.4883,0.0610,1,466,874,235
227741301,34827,-0.0347,-0.0493,1.0195,0.1221,0.4272,0.0000,1,466,873,235
227746301,34828,-0.0347,-0.0498,1.0190,0.1831,0.4272,0.0610,1,466,833,235
227751309,34829,-0.0356,-0.0508,1.0186,0.1831,0.4272,0.1221,1,466,879,235
227756307,34830,-0.0366,-0.0518,1.0186,0.2441,0.1831,0.0000,1,466,874,235
227761310,34831,-0.0352,-0.0522,1.0205,0.3052,0.1221,-0.1221,1,466,833,235
227766303,34832,-0.0322,-0.0513,1.0220,0.3662,0.1831,-0.1831,1,466,869,235
227771309,34833,-0.0308,-0.0493,1.0234,0.3052,0.0610,-0.0610,1,465,883,235
227776310,34834,-0.0322,-0.0493,1.0220,0.4272,0.0000,-0.1831,1,466,870,235
227781308,34835,-0.0337,-0.0503,1.0205,0.3662,0.1221,-0.0610,1,484,780,235
227786302,34836,-0.0332,-0.0503,1.0215,0.3662,0.0610,-0.0610,1,465,897,235
227791305,34837,-0.0322,-0.0508,1.0229,0.3662,0.1221,-0.1221,1,501,899,235
227796304,34838,-0.0327,-0.0503,1.0225,0.4883,0.1221,-0.0610,1,479,861,235
227801303,34839,-0.0332,-0.0493,1.0215,0.3052,0.0610,0.0610,1,503,747,235
227806304,34840,-0.0337,-0.0498,1.0210,0.3662,0.0610,0.0000,1,486,824,235
227811308,34841,-0.0337,-0.0513,1.0210,0.4272,0.0000,-0.0610,1,508,783,235
227816309,34842,-0.0337,-0.0518,1.0234,0.4272,0.1221,0.0000,1,484,799,235
227821306,34843,-0.0337,-0.0513,1.0249,0.3052,0.1221,0.0610,1,508,784,235
227826305,34844,-0.0337,-0.0498,1.0239,0.3052,0.0000,-0.0610,1,478,841,235
227831307,34845,-0.0327,-0.0493,1.0220,0.3052,0.0610,-0.1221,1,488,799,235
227836301,34846,-0.0327,-0.0498,1.0215,0.2441,0.1221,-0.0610,1,493,843,235
227841307,34847,-0.0322,-0.0503,1.0220,0.3052,0.0610,-0.1221,1,466,877,235
227846301,34848,-0.0312,-0.0503,1.0229,0.3662,0.0610,-0.1221,1,466,867,235
227851303,34849,-0.0308,-0.0503,1.0225,0.3662,0.0610,-0.0610,1,466,898,235
227856307,34850,-0.0312,-0.0508,1.0210,0.3052,0.0610,-0.1221,1,466,869,235
227861303,34851,-0.0322,-0.0503,1.0195,0.2441,0.0610,-0.1221,1,466,890,235
227866301,34852,-0.0337,-0.0498,1.0190,0.3662,0.1221,0.0000,1,466,876,235
227871310,34853,-0.0347,-0.0498,1.0205,0.3662,0.1221,-0.0610,1,466,832,235
227876301,34854,-0.0322,-0.0508,1.0234,0.4883,0.0610,0.0000,1,465,875,235
227881307,34855,-0.0322,-0.0508,1.0234,0.4272,0.0000,-0.1221,1,483,827,235
227886305,34856,-0.0332,-0.0498,1.0225,0.5493,0.0000,-0.1221,1,466,771,235
227891328,34857,-0.0342,-0.0493,1.0205,0.3662,0.1221,-0.1221,1,484,830,235
227896304,34858,-0.0342,-0.0493,1.0186,0.4272,-0.0610,-0.1221,1,465,871,235
227901304,34859,-0.0327,-0.0498,1.0181,0.5493,-0.1831,-0.2441,1,475,862,235
227906306,34860,-0.0317,-0.0493,1.0190,0.5493,-0.1831,-0.1831,1,500,871,235
227911308,34861,-0.0327,-0.0488,1.0200,0.6104,-0.1221,-0.1221,1,482,792,235
227916304,34862,-0.0332,-0.0483,1.0205,0.5493,-0.2441,0.0000,1,484,824,235
227921301,34863,-0.0327,-0.0479,1.0220,0.4272,-0.1831,0.0000,1,474,791,235
227926302,34864,-0.0317,-0.0479,1.0234,0.4272,-0.2441,-0.1221,1,504,787,235
227931304,34865,-0.0312,-0.0474,1.0239,0.3662,-0.0610,0.0000,1,492,849,235
227936303,34866,-0.0308,-0.0469,1.0225,0.3662,-0.0610,0.0000,1,476,829,235
227941307,34867,-0.0303,-0.0469,1.0220,0.3052,-0.0610,0.0000,1,492,795,235
227946308,34868,-0.0317,-0.0479,1.0229,0.3662,-0.1221,-0.0610,1,493,791,235
227951308,34869,-0.0327,-0.0493,1.0239,0.3052,-0.2441,-0.1221,1,466,877,235
227956309,34870,-0.0317,-0.0498,1.0244,0.2441,-0.2441,-0.0610,1,465,880,235
227961301,34871,-0.0312,-0.0498,1.0239,0.3052,0.0000,-0.0610,1,466,884,235
227966303,34872,-0.0327,-0.0493,1.0234,0.2441,-0.0610,-0.1831,1,466,856,235
227971305,34873,-0.0337,-0.0493,1.0234,0.2441,-0.1831,-0.1831,1,466,885,235
227976306,34874,-0.0337,-0.0488,1.0234,0.3052,-0.1221,0.0000,1,466,888,235
227981309,34875,-0.0332,-0.0483,1.0229,0.2441,-0.0610,-0.1221,1,466,829,235
227986301,34876,-0.0322,-0.0483,1.0225,0.1831,0.0610,-0.1221,1,483,880,235
227991308,34877,-0.0327,-0.0483,1.0215,0.1831,0.0000,-0.2441,1,466,865,235
227996328,34878,-0.0327,-0.0493,1.0210,0.0610,-0.2441,-0.2441,1,484,836,235
228001303,34879,-0.0322,-0.0513,1.0205,0.3052,-0.1831,-0.1831,1,465,878,235
228006302,34880,-0.0322,-0.0503,1.0205,0.3662,-0.0610,-0.1831,1,475,867,235
228011307,34881,-0.0322,-0.0474,1.0215,0.3052,-0.1831,-0.1831,1,500,866,235
228016305,34882,-0.0327,-0.0464,1.0229,0.3052,-0.3052,-0.1831,1,500,777,235
228021306,34883,-0.0327,-0.0469,1.0234,0.1831,-0.1221,-0.1831,1,482,838,235
228026307,34884,-0.0327,-0.0493,1.0234,0.1831,-0.2441,-0.1831,1,506,833,235
228031302,34885,-0.0327,-0.0508,1.0225,0.2441,-0.1831,-0.2441,1,492,841,235
228036303,34886,-0.0327,-0.0498,1.0229,0.3662,-0.2441,-0.1221,1,487,833,235
228041306,34887,-0.0327,-0.0483,1.0244,0.3052,-0.1831,-0.1221,1,471,854,235
228046304,34888,-0.0317,-0.0474,1.0249,0.2441,-0.1221,-0.1221,1,491,850,235
228051301,34889,-0.0312,-0.0469,1.0254,0.3052,0.0000,-0.2441,1,493,847,235
228056306,34890,-0.0317,-0.0474,1.0244,0.2441,0.1221,-0.3052,1,466,852,235
228061304,34891,-0.0322,-0.0488,1.0220,0.2441,0.1221,-0.1221,1,466,875,235
228066303,34892,-0.0317,-0.0488,1.0215,0.2441,0.0610,-0.1221,1,466,876,235
228071308,34893,-0.0312,-0.0479,1.0229,0.3052,0.0610,-0.1221,1,466,877,235
228076308,34894,-0.0312,-0.0483,1.0225,0.1831,0.1831,-0.1831,1,466,895,235
228081303,34895,-0.0327,-0.0488,1.0210,0.1221,0.1831,-0.1831,1,466,909,235
228086302,34896,-0.0327,-0.0483,1.0200,0.1831,0.1831,-0.0610,1,466,880,235
228091306,34897,-0.0332,-0.0469,1.0195,0.1831,-0.0610,-0.2441,1,484,881,235
228096307,34898,-0.0327,-0.0459,1.0215,0.2441,-0.0610,-0.1221,1,465,869,235
228101301,34899,-0.0312,-0.0469,1.0234,0.1221,0.0610,-0.1831,1,484,818,235
228106307,34900,-0.0303,-0.0483,1.0234,0.2441,0.0610,-0.1831,1,466,839,235
228111310,34901,-0.0308,-0.0488,1.0229,0.1831,0.1221,-0.1221,1,476,868,235
228116303,34902,-0.0322,-0.0479,1.0225,0.1221,0.0610,-0.1831,1,500,861,235
228121304,34903,-0.0327,-0.0464,1.0215,0.1831,0.0610,-0.0610,1,492,751,235
228126306,34904,-0.0317,-0.0454,1.0220,0.1221,0.0000,-0.1221,1,474,828,235
228131308,34905,-0.0312,-0.0469,1.0229,0.0000,0.0610,-0.1831,1,499,781,235
228136301,34906,-0.0312,-0.0488,1.0220,-0.1831,0.1221,-0.1221,1,509,829,235
228141309,34907,-0.0312,-0.0493,1.0215,-0.1831,0.1221,-0.1831,1,485,891,235
228146303,34908,-0.0312,-0.0483,1.0225,-0.1831,0.0610,-0.1831,1,485,875,235
228151303,34909,-0.0317,-0.0479,1.0225,-0.1221,0.1221,-0.1221,1,488,877,235
228156302,34910,-0.0322,-0.0474,1.0220,-0.2441,0.3052,-0.0610,1,493,840,235
228161304,34911,-0.0327,-0.0483,1.0215,-0.2441,0.3052,-0.0610,1,466,873,235
228166305,34912,-0.0317,-0.0483,1.0220,-0.2441,0.1221,-0.0610,1,466,878,235
228171307,34913,-0.0298,-0.0474,1.0229,-0.3052,0.1221,-0.1221,1,466,877,235
228176309,34914,-0.0303,-0.0479,1.0234,-0.2441,0.2441,-0.1221,1,466,868,235
228181303,34915,-0.0312,-0.0483,1.0234,-0.3052,0.2441,0.0000,1,466,876,235
228186314,34916,-0.0322,-0.0479,1.0234,-0.4272,0.1221,-0.0610,1,466,859,235
228191301,34917,-0.0322,-0.0479,1.0229,-0.3662,0.2441,-0.0610,1,465,878,235
228196304,34918,-0.0322,-0.0474,1.0225,-0.4272,0.3052,-0.0610,1,484,881,235
228201309,34919,-0.0322,-0.0479,1.0215,-0.3662,0.1831,-0.0610,1,465,862,235
228206302,34920,-0.0327,-0.0498,1.0200,-0.3052,0.3052,0.0000,1,484,868,235
228211307,34921,-0.0332,-0.0508,1.0186,-0.3662,0.3052,-0.0610,1,465,817,235
228216307,34922,-0.0322,-0.0508,1.0186,-0.3662,0.1831,0.0610,1,510,897,235
228221302,34923,-0.0317,-0.0508,1.0210,-0.3052,0.1831,-0.0610,1,466,872,235
228226308,34924,-0.0312,-0.0493,1.0234,-0.3052,0.1221,-0.0610,1,494,747,235
228231307,34925,-0.0312,-0.0503,1.0244,-0.3662,0.1221,-0.1221,1,486,776,235
228236305,34926,-0.0298,-0.0513,1.0239,-0.2441,0.1221,0.0000,1,491,850,235
228241308,34927,-0.0293,-0.0483,1.0239,-0.0610,0.4272,-0.0610,1,491,783,235
228246303,34928,-0.0312,-0.0488,1.0229,-0.3662,0.6104,-0.1221,1,508,830,235
228251303,34929,-0.0332,-0.0537,1.0200,-0.3052,0.3662,-0.0610,1,491,893,235
228256305,34930,-0.0327,-0.0537,1.0195,-0.0610,0.3662,0.0000,1,477,847,235
228261302,34931,-0.0312,-0.0508,1.0215,0.0610,0.4272,-0.1831,1,493,807,235
228266303,34932,-0.0312,-0.0503,1.0220,-0.1221,0.4883,-0.1831,1,466,898,235
228271305,34933,-0.0322,-0.0513,1.0215,0.0610,0.4883,-0.2441,1,466,896,235
228276305,34934,-0.0327,-0.0508,1.0210,0.1221,0.4883,-0.1831,1,466,877,235
228281303,34935,-0.0332,-0.0493,1.0205,-0.1221,0.4272,-0.1831,1,465,872,235
228286307,34936,-0.0342,-0.0498,1.0205,0.0000,0.3662,-0.1221,1,466,882,235
228291308,34937,-0.0337,-0.0513,1.0210,0.1221,0.3662,-0.1831,1,466,831,235
228296305,34938,-0.0317,-0.0508,1.0225,0.1831,0.4272,-0.1831,1,466,874,235
228301309,34939,-0.0303,-0.0479,1.0229,0.1221,0.2441,-0.1221,1,466,880,235
228306302,34940,-0.0312,-0.0469,1.0225,-0.0610,0.3052,-0.0610,1,483,870,235
228311309,34941,-0.0322,-0.0488,1.0215,0.0000,0.4883,0.0000,1,465,892,235
228316307,34942,-0.0322,-0.0493,1.0210,0.0000,0.3662,-0.0610,1,484,826,235
228321308,34943,-0.0327,-0.0483,1.0210,0.0000,0.4883,-0.1221,1,466,820,235
228326308,34944,-0.0332,-0.0498,1.0200,0.0610,0.4883,-0.1831,1,506,817,235
228331308,34945,-0.0327,-0.0508,1.0205,0.0610,0.3052,-0.1831,1,467,873,235
228336307,34946,-0.0322,-0.0493,1.0215,0.0000,0.3662,-0.1831,1,493,750,235
228341308,34947,-0.0327,-0.0474,1.0210,-0.0610,0.4883,-0.1831,1,494,790,235
228346304,34948,-0.0337,-0.0483,1.0200,0.0000,0.4272,-0.2441,1,498,826,235
228351309,34949,-0.0342,-0.0508,1.0195,0.0000,0.2441,-0.2441,1,501,786,235
228356306,34950,-0.0332,-0.0518,1.0200,0.0610,0.3052,-0.1831,1,476,784,235
228361303,34951,-0.0327,-0.0513,1.0210,0.1221,0.3052,-0.1831,1,490,843,235
228366302,34952,-0.0327,-0.0493,1.0220,0.1221,0.3662,-0.2441,1,478,843,235
228371308,34953,-0.0322,-0.0469,1.0229,0.0610,0.4883,-0.3052,1,493,853,235
228376308,34954,-0.0322,-0.0469,1.0234,0.0000,0.3662,-0.3052,1,465,872,235
228381301,34955,-0.0322,-0.0474,1.0229,0.0610,0.4272,-0.2441,1,466,831,235
228386304,34956,-0.0317,-0.0479,1.0229,0.0000,0.3052,-0.1831,1,466,882,235
228391307,34957,-0.0322,-0.0498,1.0225,0.1221,0.3052,-0.1831,1,466,833,235
228396301,34958,-0.0337,-0.0518,1.0190,0.0610,0.4272,-0.1831,1,466,876,235
228401304,34959,-0.0352,-0.0527,1.0186,0.0000,0.1831,-0.1221,1,466,875,235
228406308,34960,-0.0342,-0.0518,1.0200,0.1831,0.0610,-0.2441,1,466,830,235
228411309,34961,-0.0327,-0.0503,1.0220,0.0000,0.1831,-0.4272,1,483,875,235
228416301,34962,-0.0327,-0.0488,1.0234,0.1831,0.0610,-0.2441,1,466,775,235
228421316,34963,-0.0327,-0.0469,1.0234,0.1831,0.1831,-0.1221,1,484,873,235
228426309,34964,-0.0332,-0.0479,1.0225,-0.1221,0.1831,-0.2441,1,466,905,235
228431302,34965,-0.0322,-0.0513,1.0215,0.0610,0.1221,-0.3052,1,501,917,235
228436306,34966,-0.0308,-0.0518,1.0215,0.2441,0.1831,-0.3052,1,490,754,235
228441306,34967,-0.0308,-0.0493,1.0220,0.1831,0.3662,-0.2441,1,468,835,235
228446308,34968,-0.0322,-0.0479,1.0215,0.0610,0.4272,-0.1831,1,495,813,235
228451302,34969,-0.0322,-0.0488,1.0215,0.0000,0.3662,-0.3052,1,496,830,235
228456301,34970,-0.0322,-0.0493,1.0225,0.1221,0.3052,-0.2441,1,494,785,235
228461303,34971,-0.0322,-0.0474,1.0234,-0.0610,0.4272,-0.1831,1,487,847,235
228466303,34972,-0.0332,-0.0469,1.0215,-0.0610,0.4272,-0.1221,1,471,852,235
228471307,34973,-0.0352,-0.0488,1.0176,0.1831,0.3662,-0.1831,1,493,843,235
228476301,34974,-0.0356,-0.0508,1.0161,0.4272,0.1831,-0.2441,1,466,852,235
228481306,34975,-0.0347,-0.0513,1.0186,0.3662,0.0610,-0.2441,1,466,881,235
228486309,34976,-0.0317,-0.0503,1.0220,0.2441,-0.0610,-0.2441,1,466,877,235
228491306,34977,-0.0303,-0.0479,1.0234,0.3052,0.1221,-0.3052,1,466,878,235
228496308,34978,-0.0312,-0.0464,1.0225,0.1221,0.2441,-0.3052,1,466,865,235
228501305,34979,-0.0327,-0.0488,1.0205,0.1221,0.2441,-0.2441,1,465,897,235
228506302,34980,-0.0342,-0.0503,1.0190,0.3052,0.0000,-0.1831,1,466,882,235
228511303,34981,-0.0337,-0.0498,1.0200,0.3052,-0.1221,-0.3052,1,466,826,235
228516306,34982,-0.0308,-0.0479,1.0229,0.2441,0.1831,-0.3052,1,465,867,235
228521303,34983,-0.0298,-0.0474,1.0244,0.2441,0.2441,-0.2441,1,484,864,235
228526307,34984,-0.0312,-0.0479,1.0239,0.2441,0.1831,-0.3662,1,465,880,235
228531301,34985,-0.0317,-0.0469,1.0234,0.2441,0.2441,-0.3662,1,500,858,235
228536304,34986,-0.0303,-0.0464,1.0229,0.1221,0.2441,-0.3052,1,471,879,235
228541301,34987,-0.0303,-0.0469,1.0225,0.1221,0.3662,-0.3052,1,496,748,235
228546306,34988,-0.0322,-0.0474,1.0215,0.1221,0.3662,-0.3052,1,506,781,235
228551305,34989,-0.0332,-0.0493,1.0205,0.1831,0.2441,-0.2441,1,485,825,235
228556302,34990,-0.0327,-0.0498,1.0210,0.0610,0.3662,-0.2441,1,497,838,235
228561304,34991,-0.0317,-0.0479,1.0225,0.0610,0.3052,-0.3052,1,474,851,235
228566301,34992,-0.0322,-0.0464,1.0229,0.0000,0.2441,-0.2441,1,488,838,235
228571302,34993,-0.0322,-0.0464,1.0215,-0.0610,0.3052,-0.1221,1,493,808,235
228576301,34994,-0.0322,-0.0474,1.0195,0.0610,0.3052,-0.1831,1,466,868,235
228581303,34995,-0.0332,-0.0488,1.0190,0.1221,0.2441,-0.3662,1,466,875,235
228586308,34996,-0.0337,-0.0493,1.0210,0.1221,0.1831,-0.2441,1,466,881,235
228591302,34997,-0.0327,-0.0493,1.0215,0.1831,0.1831,-0.1221,1,466,876,235
228596301,34998,-0.0317,-0.0493,1.0205,0.1831,0.2441,-0.2441,1,466,881,235
228601310,34999,-0.0312,-0.0503,1.0195,0.0610,0.3662,-0.3662,1,466,887,235
228606327,35000,-0.0317,-0.0508,1.0200,0.1221,0.3052,-0.3052,1,466,904,235
228611306,35001,-0.0317,-0.0498,1.0220,0.2441,0.1221,-0.2441,1,466,864,235
228616306,35002,-0.0308,-0.0469,1.0229,0.3662,0.1221,-0.3662,1,466,881,235
228621308,35003,-0.0303,-0.0454,1.0229,0.1831,0.2441,-0.3052,1,484,862,235
228626304,35004,-0.0322,-0.0469,1.0220,0.1831,0.1831,-0.1221,1,466,876,235
228631301,35005,-0.0337,-0.0483,1.0210,0.1831,0.2441,-0.2441,1,474,902,235
228636304,35006,-0.0327,-0.0493,1.0215,0.1831,0.1221,-0.1831,1,467,878,235
228641305,35007,-0.0312,-0.0488,1.0220,0.1831,0.0610,-0.2441,1,493,765,235
228646307,35008,-0.0303,-0.0488,1.0229,0.1221,0.1221,-0.3052,1,498,813,235
228651302,35009,-0.0308,-0.0498,1.0239,0.1221,0.2441,-0.3662,1,503,821,235
228656301,35010,-0.0308,-0.0498,1.0229,0.0610,0.2441,-0.2441,1,493,831,235
228661306,35011,-0.0303,-0.0483,1.0225,0.0610,0.2441,-0.1831,1,483,871,235
228666308,35012,-0.0312,-0.0469,1.0229,0.0610,0.3662,-0.2441,1,490,847,235
228671305,35013,-0.0322,-0.0464,1.0220,0.0000,0.2441,-0.2441,1,470,874,235
228676301,35014,-0.0332,-0.0474,1.0195,0.0610,0.3662,-0.1221,1,493,806,235
228681301,35015,-0.0342,-0.0488,1.0190,0.1221,0.3052,-0.1831,1,466,875,235
228686306,35016,-0.0337,-0.0483,1.0195,0.0000,0.1831,-0.3052,1,466,872,235
228691303,35017,-0.0337,-0.0488,1.0200,0.1221,0.1221,-0.2441,1,466,834,235
228696304,35018,-0.0337,-0.0488,1.0190,0.1221,0.0610,-0.2441,1,466,874,235
228701302,35019,-0.0337,-0.0483,1.0186,0.2441,0.0610,-0.3052,1,466,875,235
228706309,35020,-0.0337,-0.0483,1.0195,0.1831,0.1221,-0.3662,1,466,875,235
228711309,35021,-0.0337,-0.0483,1.0186,0.1221,0.0610,-0.3052,1,466,881,235
228716309,35022,-0.0337,-0.0493,1.0186,0.1831,-0.0610,-0.3662,1,483,870,235
228721302,35023,-0.0332,-0.0493,1.0200,0.1831,-0.1831,-0.3662,1,465,878,235
228726309,35024,-0.0317,-0.0493,1.0205,0.1831,-0.1221,-0.3662,1,484,874,235
228731302,35025,-0.0308,-0.0483,1.0215,0.4883,-0.2441,-0.3052,1,465,879,235
228736304,35026,-0.0308,-0.0479,1.0220,0.5493,-0.2441,-0.3662,1,509,899,235
228741303,35027,-0.0303,-0.0479,1.0225,0.3662,-0.3052,-0.4272,1,469,874,235
228746304,35028,-0.0303,-0.0474,1.0229,0.3052,-0.1831,-0.4272,1,493,750,235
228751303,35029,-0.0317,-0.0474,1.0225,0.3052,-0.0610,-0.3052,1,496,780,235
228756306,35030,-0.0332,-0.0479,1.0205,0.3662,-0.1831,-0.4272,1,501,821,235
228761306,35031,-0.0356,-0.0493,1.0181,0.4272,-0.1221,-0.4883,1,497,836,235
228766309,35032,-0.0376,-0.0508,1.0171,0.3662,-0.4272,-0.3662,1,476,848,235
228771302,35033,-0.0347,-0.0518,1.0195,0.4272,-0.4883,-0.4272,1,479,846,235
228776304,35034,-0.0308,-0.0503,1.0220,0.5493,-0.4883,-0.4883,1,491,850,235
228781305,35035,-0.0293,-0.0474,1.0234,0.6104,-0.4272,-0.5493,1,492,842,235
228786305,35036,-0.0303,-0.0454,1.0239,0.5493,-0.3662,-0.3662,1,493,849,235
228791306,35037,-0.0317,-0.0469,1.0234,0.5493,-0.3052,-0.3662,1,466,882,235
228796307,35038,-0.0317,-0.0483,1.0220,0.5493,-0.4272,-0.4272,1,466,878,235
228801308,35039,-0.0298,-0.0503,1.0215,0.5493,-0.4272,-0.3662,1,466,886,235
228806309,35040,-0.0288,-0.0503,1.0210,0.4883,-0.3052,-0.3052,1,466,878,235
228811306,35041,-0.0288,-0.0488,1.0215,0.4272,-0.2441,-0.4272,1,466,868,235
228816301,35042,-0.0298,-0.0483,1.0225,0.4883,-0.1831,-0.3662,1,466,885,235
228821304,35043,-0.0312,-0.0483,1.0229,0.5493,-0.1221,-0.3052,1,466,880,235
228826307,35044,-0.0312,-0.0483,1.0239,0.4883,0.0000,-0.3052,1,465,903,235
228831308,35045,-0.0293,-0.0483,1.0249,0.4272,-0.1831,-0.3662,1,484,845,235
228836301,35046,-0.0288,-0.0488,1.0249,0.3662,-0.1221,-0.3052,1,465,836,235
228841308,35047,-0.0293,-0.0488,1.0234,0.3662,-0.1831,-0.3052,1,500,905,235
228846308,35048,-0.0298,-0.0479,1.0215,0.4272,0.0000,-0.3662,1,475,868,235
228851309,35049,-0.0312,-0.0479,1.0205,0.4883,0.0000,-0.3052,1,501,707,235
228856304,35050,-0.0327,-0.0479,1.0205,0.4272,0.0000,-0.3052,1,501,728,235
228861301,35051,-0.0317,-0.0459,1.0225,0.4883,-0.1221,-0.3662,1,493,782,235
228866307,35052,-0.0303,-0.0444,1.0244,0.3662,0.0610,-0.4272,1,489,827,235
228871309,35053,-0.0308,-0.0454,1.0244,0.3662,0.0000,-0.3052,1,501,830,235
228876309,35054,-0.0317,-0.0469,1.0239,0.4883,-0.1831,-0.3052,1,490,799,235
228881308,35055,-0.0308,-0.0474,1.0234,0.4272,-0.0610,-0.3052,1,475,847,235
228886302,35056,-0.0293,-0.0464,1.0239,0.3662,0.1221,-0.4272,1,492,842,235
228891309,35057,-0.0298,-0.0459,1.0249,0.2441,0.1831,-0.3662,1,493,849,235
228896308,35058,-0.0303,-0.0464,1.0249,0.2441,0.2441,-0.3662,1,466,882,235
228901308,35059,-0.0303,-0.0474,1.0244,0.1831,0.3052,-0.3052,1,466,881,235
228906305,35060,-0.0308,-0.0474,1.0234,0.2441,0.2441,-0.3052,1,466,870,235
228911302,35061,-0.0317,-0.0469,1.0229,0.1221,0.3662,-0.3052,1,466,875,235
228916301,35062,-0.0322,-0.0459,1.0229,0.1831,0.2441,-0.2441,1,465,875,235
228921309,35063,-0.0317,-0.0449,1.0229,0.2441,0.3052,-0.2441,1,466,886,235
228926304,35064,-0.0322,-0.0454,1.0220,0.3052,0.2441,-0.3052,1,466,883,235
228931306,35065,-0.0332,-0.0474,1.0205,0.1221,0.2441,-0.2441,1,483,876,235
228936309,35066,-0.0327,-0.0498,1.0205,0.1831,0.1831,-0.3052,1,466,879,235
228941302,35067,-0.0322,-0.0498,1.0215,0.2441,0.1831,-0.3052,1,484,869,235
228946303,35068,-0.0327,-0.0479,1.0220,0.0610,0.2441,-0.3052,1,465,878,235
228951305,35069,-0.0322,-0.0459,1.0225,0.0610,0.3052,-0.3052,1,500,899,235
228956304,35070,-0.0317,-0.0464,1.0225,0.1221,0.2441,-0.2441,1,501,858,235
228961303,35071,-0.0312,-0.0469,1.0220,0.0000,0.3662,-0.2441,1,480,866,235
228966303,35072,-0.0308,-0.0464,1.0220,0.0610,0.2441,-0.3052,1,478,819,235
228971307,35073,-0.0303,-0.0459,1.0220,0.0610,0.3052,-0.3052,1,482,823,235
228976305,35074,-0.0308,-0.0469,1.0220,0.0000,0.3662,-0.1831,1,477,817,235
228981302,35075,-0.0312,-0.0483,1.0220,0.0610,0.4272,-0.1831,1,503,801,235
228986302,35076,-0.0308,-0.0474,1.0220,0.0610,0.3662,-0.1831,1,473,875,235
228991307,35077,-0.0298,-0.0459,1.0220,0.1221,0.5493,-0.1831,1,492,844,235
228996303,35078,-0.0298,-0.0469,1.0225,0.1221,0.5493,-0.3052,1,492,847,235
229001308,35079,-0.0308,-0.0483,1.0225,0.1221,0.4272,-0.2441,1,493,840,235
229006302,35080,-0.0312,-0.0488,1.0210,0.0610,0.4272,-0.2441,1,466,875,235
229011305,35081,-0.0312,-0.0479,1.0200,0.0610,0.4883,-0.2441,1,466,902,235
229016306,35082,-0.0312,-0.0464,1.0205,0.0610,0.4272,-0.1221,1,466,898,235
229021308,35083,-0.0312,-0.0464,1.0210,0.0610,0.4883,-0.2441,1,466,897,235
229026303,35084,-0.0308,-0.0469,1.0234,-0.1221,0.3052,-0.1831,1,466,900,235
229031304,35085,-0.0312,-0.0469,1.0249,-0.1831,0.4272,-0.2441,1,466,869,235
229036307,35086,-0.0322,-0.0459,1.0234,-0.0610,0.4272,-0.1831,1,466,906,235
229041307,35087,-0.0322,-0.0454,1.0220,-0.1221,0.4272,-0.1831,1,483,881,235
229046302,35088,-0.0322,-0.0449,1.0215,-0.1221,0.5493,-0.1831,1,466,880,235
229051314,35089,-0.0312,-0.0459,1.0220,-0.1221,0.4883,-0.1831,1,484,870,235
229056334,35090,-0.0312,-0.0474,1.0220,-0.0610,0.3662,-0.1831,1,465,889,235
229061305,35091,-0.0312,-0.0488,1.0220,-0.1831,0.4883,-0.3052,1,480,901,235
229066301,35092,-0.0303,-0.0474,1.0229,-0.1221,0.6104,-0.2441,1,467,889,235
229071303,35093,-0.0303,-0.0454,1.0234,-0.1221,0.6104,-0.1221,1,497,771,235
229076306,35094,-0.0308,-0.0469,1.0229,-0.0610,0.5493,-0.0610,1,475,833,235
229081308,35095,-0.0322,-0.0488,1.0229,-0.1221,0.6714,-0.0610,1,479,824,235
229086301,35096,-0.0327,-0.0493,1.0225,-0.1221,0.6104,-0.0610,1,497,829,235
229091306,35097,-0.0322,-0.0469,1.0220,-0.0610,0.5493,-0.1221,1,471,870,235
229096306,35098,-0.0322,-0.0454,1.0220,-0.1221,0.5493,-0.1221,1,478,844,235
229101302,35099,-0.0332,-0.0464,1.0220,-0.0610,0.3662,-0.0610,1,490,848,235
229106303,35100,-0.0337,-0.0474,1.0220,-0.1221,0.4272,-0.0610,1,493,847,235
229111305,35101,-0.0322,-0.0469,1.0229,-0.1221,0.4883,-0.0610,1,465,873,235
229116308,35102,-0.0308,-0.0454,1.0249,-0.3052,0.4272,-0.1831,1,466,873,235
229121307,35103,-0.0308,-0.0454,1.0254,-0.3052,0.5493,-0.0610,1,466,879,235
229126302,35104,-0.0308,-0.0469,1.0239,-0.3052,0.6104,-0.1221,1,466,873,235
229131308,35105,-0.0312,-0.0474,1.0210,-0.3052,0.4883,0.0000,1,466,865,235
229136303,35106,-0.0327,-0.0469,1.0200,-0.2441,0.3662,-0.0610,1,466,850,235
229141301,35107,-0.0327,-0.0459,1.0205,-0.1831,0.3052,-0.1831,1,466,877,235
229146306,35108,-0.0322,-0.0474,1.0205,-0.1831,0.4883,-0.1831,1,483,878,235
229151304,35109,-0.0317,-0.0479,1.0210,-0.1221,0.3052,-0.1221,1,466,870,235
229156304,35110,-0.0317,-0.0469,1.0225,0.0000,0.3662,-0.0610,1,484,809,235
229161308,35111,-0.0327,-0.0474,1.0229,-0.1831,0.3052,-0.1221,1,467,818,235
229166309,35112,-0.0327,-0.0479,1.0229,-0.2441,0.4272,-0.1221,1,482,902,235
229171309,35113,-0.0322,-0.0483,1.0229,-0.1831,0.3662,0.0000,1,466,875,235
229176307,35114,-0.0317,-0.0488,1.0220,-0.2441,0.4272,-0.1221,1,493,747,235
229181309,35115,-0.0312,-0.0483,1.0190,-0.1831,0.4272,-0.1831,1,476,842,235
229186307,35116,-0.0332,-0.0483,1.0181,0.0000,0.3052,-0.1221,1,476,884,235
229191301,35117,-0.0337,-0.0479,1.0190,-0.0610,0.3662,-0.1831,1,493,778,235
229196309,35118,-0.0317,-0.0464,1.0215,-0.0610,0.3662,-0.1221,1,509,830,235
229201301,35119,-0.0308,-0.0464,1.0229,-0.0610,0.3662,-0.0610,1,492,846,235
229206301,35120,-0.0322,-0.0464,1.0220,-0.0610,0.4883,-0.1831,1,488,845,235
229211305,35121,-0.0332,-0.0469,1.0215,0.0000,0.4272,-0.1221,1,493,848,235
229216305,35122,-0.0337,-0.0474,1.0205,0.0000,0.4272,-0.1221,1,466,825,235
229221302,35123,-0.0332,-0.0474,1.0205,-0.0610,0.3662,-0.1831,1,466,827,235
229226306,35124,-0.0322,-0.0474,1.0220,0.0000,0.3662,-0.1831,1,466,880,235
229231309,35125,-0.0322,-0.0483,1.0234,0.0000,0.3662,-0.1831,1,466,834,235
229236301,35126,-0.0327,-0.0503,1.0229,-0.0610,0.3052,-0.1221,1,466,841,235
229241303,35127,-0.0327,-0.0493,1.0215,0.0000,0.3052,-0.1221,1,466,870,235
229246307,35128,-0.0332,-0.0474,1.0200,-0.0610,0.4272,-0.1221,1,465,828,235
229251302,35129,-0.0332,-0.0464,1.0195,0.0610,0.3052,-0.2441,1,483,872,235
229256309,35130,-0.0327,-0.0474,1.0190,0.0610,0.3052,-0.3052,1,466,864,235
229261303,35131,-0.0327,-0.0483,1.0190,0.2441,0.1831,-0.1221,1,484,858,235
229266305,35132,-0.0322,-0.0488,1.0205,0.1831,0.1221,-0.1831,1,465,909,235
229271305,35133,-0.0312,-0.0479,1.0205,0.0610,0.1831,-0.3052,1,482,907,235
229276304,35134,-0.0317,-0.0459,1.0215,0.1221,0.2441,-0.2441,1,471,885,235
229281306,35135,-0.0317,-0.0459,1.0220,0.0000,0.3052,-0.1831,1,496,783,235
229286308,35136,-0.0312,-0.0469,1.0220,0.0610,0.2441,-0.2441,1,475,783,235
229291310,35137,-0.0312,-0.0474,1.0220,0.0610,0.2441,-0.1831,1,498,816,235
229296305,35138,-0.0312,-0.0464,1.0234,0.0000,0.2441,-0.1831,1,491,856,235
229301303,35139,-0.0312,-0.0469,1.0249,0.0000,0.1831,-0.1831,1,504,834,235
229306303,35140,-0.0312,-0.0479,1.0254,-0.0610,0.3052,-0.1831,1,474,830,235
229311301,35141,-0.0312,-0.0479,1.0229,-0.1221,0.3662,-0.2441,1,480,868,235
229316308,35142,-0.0322,-0.0479,1.0210,-0.0610,0.3052,-0.2441,1,492,875,235
229321307,35143,-0.0327,-0.0479,1.0200,-0.1221,0.3052,-0.1221,1,466,872,235
229326305,35144,-0.0327,-0.0474,1.0200,0.0000,0.4272,-0.2441,1,466,866,235
229331306,35145,-0.0327,-0.0474,1.0205,-0.0610,0.1831,-0.1221,1,466,833,235
229336305,35146,-0.0327,-0.0483,1.0205,0.0000,0.3052,-0.2441,1,466,876,235
229341301,35147,-0.0317,-0.0483,1.0215,0.1221,0.3662,-0.2441,1,466,834,235
229346310,35148,-0.0317,-0.0479,1.0234,0.1221,0.3662,-0.2441,1,466,882,235
229351321,35149,-0.0322,-0.0474,1.0239,0.0610,0.4883,-0.3052,1,466,879,235
229356307,35150,-0.0317,-0.0464,1.0239,0.0000,0.4272,-0.2441,1,466,874,235
229361302,35151,-0.0308,-0.0464,1.0239,0.0000,0.4272,-0.1831,1,484,836,235
229366310,35152,-0.0312,-0.0464,1.0234,0.0000,0.3052,-0.3052,1,472,822,235
229371313,35153,-0.0327,-0.0464,1.0220,-0.0610,0.4883,-0.3662,1,484,801,235
229376306,35154,-0.0347,-0.0469,1.0200,-0.0610,0.4272,-0.3052,1,474,901,235
229381301,35155,-0.0347,-0.0469,1.0210,-0.0610,0.3662,-0.2441,1,509,858,235
229386303,35156,-0.0322,-0.0469,1.0215,-0.0610,0.2441,-0.2441,1,498,870,235
229391310,35157,-0.0308,-0.0469,1.0210,-0.1221,0.3052,-0.3052,1,477,784,235
229396305,35158,-0.0317,-0.0479,1.0205,-0.1831,0.3662,-0.4883,1,474,812,235
229401304,35159,-0.0337,-0.0483,1.0210,-0.1221,0.4272,-0.4272,1,482,833,235
229406310,35160,-0.0342,-0.0479,1.0215,0.0000,0.3052,-0.3052,1,509,829,235
229411306,35161,-0.0332,-0.0483,1.0220,0.1221,0.3052,-0.3662,1,474,793,235
229416309,35162,-0.0322,-0.0488,1.0220,0.1221,0.3662,-0.3052,1,488,846,235
229421307,35163,-0.0322,-0.0479,1.0225,0.1221,0.5493,-0.3662,1,488,846,235
229426307,35164,-0.0327,-0.0479,1.0234,0.1221,0.4272,-0.3662,1,493,848,235
229431303,35165,-0.0327,-0.0498,1.0225,0.0610,0.3662,-0.2441,1,466,878,235
229436309,35166,-0.0332,-0.0493,1.0210,0.1831,0.4272,-0.2441,1,466,882,235
229441305,35167,-0.0347,-0.0488,1.0190,0.0610,0.2441,-0.3662,1,466,884,235
229446301,35168,-0.0337,-0.0498,1.0190,0.1831,0.2441,-0.3052,1,466,880,235
229451306,35169,-0.0312,-0.0488,1.0220,0.2441,0.3052,-0.1831,1,466,880,235
229456316,35170,-0.0303,-0.0464,1.0229,0.1221,0.3052,-0.3052,1,466,904,235
229461303,35171,-0.0317,-0.0464,1.0220,0.1221,0.1831,-0.3662,1,466,865,235
229466303,35172,-0.0322,-0.0488,1.0205,0.1831,0.1221,-0.3052,1,484,877,235
229471308,35173,-0.0317,-0.0488,1.0220,0.2441,0.1221,-0.3052,1,478,865,235
229476328,35174,-0.0312,-0.0449,1.0249,0.2441,0.1831,-0.3052,1,465,873,235
229481307,35175,-0.0322,-0.0449,1.0249,0.0000,0.2441,-0.3662,1,466,903,235
229486307,35176,-0.0327,-0.0488,1.0225,0.0000,0.1221,-0.2441,1,495,828,235
229491307,35177,-0.0317,-0.0498,1.0210,0.1831,0.1831,-0.2441,1,498,737,235
229496306,35178,-0.0317,-0.0483,1.0205,0.0610,0.1831,-0.2441,1,505,795,235
229501309,35179,-0.0322,-0.0479,1.0205,0.0000,0.1831,-0.3662,1,491,846,235
229506304,35180,-0.0322,-0.0479,1.0205,0.1221,0.1831,-0.4272,1,491,787,235
229511303,35181,-0.0322,-0.0459,1.0210,0.1831,0.1831,-0.3052,1,501,830,235
229516308,35182,-0.0337,-0.0464,1.0210,0.0610,0.1221,-0.3662,1,492,867,235
229521308,35183,-0.0342,-0.0488,1.0215,0.0610,0.0610,-0.3052,1,473,841,235
229526302,35184,-0.0332,-0.0474,1.0220,0.1221,0.1831,-0.1831,1,469,841,235
229531301,35185,-0.0327,-0.0474,1.0229,0.0000,0.0610,-0.3052,1,493,849,235
229536308,35186,-0.0327,-0.0474,1.0234,0.0610,0.1831,-0.4272,1,465,830,235
229541303,35187,-0.0332,-0.0459,1.0229,0.0610,0.1831,-0.3052,1,465,882,235
229546302,35188,-0.0317,-0.0454,1.0215,0.0000,0.0610,-0.3052,1,466,877,235
229551305,35189,-0.0312,-0.0459,1.0220,0.0610,0.0610,-0.3052,1,466,829,235
229556303,35190,-0.0317,-0.0488,1.0225,-0.1221,0.1221,-0.2441,1,466,894,235
229561320,35191,-0.0322,-0.0459,1.0229,-0.0610,0.1221,-0.2441,1,466,877,235
229566303,35192,-0.0322,-0.0449,1.0234,-0.1831,0.1221,-0.3052,1,466,878,235
229571303,35193,-0.0327,-0.0474,1.0239,-0.1831,0.2441,-0.3052,1,484,878,235
229576304,35194,-0.0327,-0.0493,1.0229,-0.1221,0.1221,-0.3052,1,473,871,235
229581324,35195,-0.0322,-0.0498,1.0210,-0.1831,0.1831,-0.3052,1,466,872,235
229586305,35196,-0.0322,-0.0493,1.0210,-0.1831,0.1221,-0.2441,1,466,906,235
229591308,35197,-0.0317,-0.0483,1.0220,-0.1831,0.1221,-0.3052,1,508,918,235
229596308,35198,-0.0303,-0.0469,1.0220,-0.1831,0.1831,-0.3052,1,466,863,235
229601309,35199,-0.0293,-0.0479,1.0210,-0.1221,0.3052,-0.3052,1,511,859,235
229606304,35200,-0.0317,-0.0488,1.0195,-0.1221,0.2441,-0.4272,1,471,816,235
229611302,35201,-0.0337,-0.0488,1.0195,-0.1221,0.1221,-0.3662,1,501,835,235
229616302,35202,-0.0327,-0.0479,1.0205,-0.1221,0.0610,-0.2441,1,492,828,235
229621308,35203,-0.0308,-0.0469,1.0215,0.0610,0.1831,-0.3052,1,483,867,235
229626302,35204,-0.0303,-0.0464,1.0239,-0.1221,0.2441,-0.3662,1,478,838,235
229631307,35205,-0.0308,-0.0469,1.0249,-0.1831,0.1831,-0.4272,1,489,847,235
229636306,35206,-0.0308,-0.0464,1.0234,-0.1831,0.1831,-0.3052,1,492,849,235
229641307,35207,-0.0308,-0.0449,1.0225,-0.2441,0.1831,-0.0610,1,466,874,235
229646305,35208,-0.0312,-0.0454,1.0225,-0.3052,0.1831,-0.3052,1,465,877,235
229651308,35209,-0.0308,-0.0459,1.0229,-0.3052,0.3052,-0.2441,1,466,898,235
229656307,35210,-0.0303,-0.0464,1.0234,-0.2441,0.4272,-0.1831,1,466,871,235
229661310,35211,-0.0312,-0.0479,1.0234,-0.4272,0.4883,-0.2441,1,466,880,235
229666309,35212,-0.0317,-0.0493,1.0225,-0.3662,0.5493,-0.1831,1,466,906,235
229671301,35213,-0.0312,-0.0483,1.0215,-0.4272,0.4272,-0.3052,1,466,887,235
229676308,35214,-0.0312,-0.0479,1.0215,-0.3052,0.4883,-0.1831,1,483,904,235
229681309,35215,-0.0303,-0.0483,1.0225,-0.4272,0.5493,-0.2441,1,465,898,235
229686311,35216,-0.0312,-0.0488,1.0229,-0.3052,0.5493,-0.2441,1,484,868,235
229691329,35217,-0.0332,-0.0498,1.0215,-0.2441,0.5493,-0.1831,1,465,848,235
229696301,35218,-0.0352,-0.0498,1.0205,-0.2441,0.5493,-0.1831,1,467,925,235
229701309,35219,-0.0347,-0.0488,1.0205,-0.2441,0.4883,-0.1831,1,477,879,235
229706302,35220,-0.0327,-0.0479,1.0220,-0.2441,0.4883,-0.2441,1,497,868,235
229711306,35221,-0.0327,-0.0488,1.0229,-0.3052,0.5493,-0.1831,1,467,843,235
229716303,35222,-0.0327,-0.0493,1.0220,-0.1221,0.5493,-0.2441,1,491,835,235
229721302,35223,-0.0327,-0.0488,1.0215,-0.1221,0.4883,-0.2441,1,504,834,235
229726303,35224,-0.0332,-0.0479,1.0210,-0.0610,0.4883,-0.2441,1,489,848,235
229731305,35225,-0.0332,-0.0479,1.0205,-0.1221,0.3662,-0.1831,1,473,845,235
229736309,35226,-0.0332,-0.0483,1.0210,0.0000,0.4883,-0.3052,1,480,849,235
229741306,35227,-0.0337,-0.0488,1.0215,0.1831,0.4883,-0.1831,1,493,799,235
229746308,35228,-0.0337,-0.0498,1.0210,0.0000,0.4883,-0.2441,1,466,877,235
229751304,35229,-0.0332,-0.0493,1.0205,-0.0610,0.4883,-0.2441,1,466,831,235
229756308,35230,-0.0332,-0.0483,1.0215,-0.0610,0.4272,-0.1221,1,466,880,235
229761308,35231,-0.0347,-0.0488,1.0210,-0.1221,0.4272,-0.1831,1,466,878,235
229766304,35232,-0.0337,-0.0498,1.0205,0.0000,0.4272,-0.2441,1,466,876,235
229771310,35233,-0.0317,-0.0493,1.0215,0.0610,0.4883,-0.1831,1,465,836,235
229776302,35234,-0.0303,-0.0488,1.0225,0.0000,0.4883,-0.0610,1,466,879,235
229781306,35235,-0.0322,-0.0469,1.0220,0.0610,0.5493,-0.1831,1,483,826,235
229786305,35236,-0.0342,-0.0474,1.0215,-0.1221,0.5493,-0.3052,1,466,866,235
229791306,35237,-0.0342,-0.0493,1.0215,-0.0610,0.4883,-0.1831,1,484,814,235
229796325,35238,-0.0327,-0.0488,1.0229,0.0610,0.4883,-0.1831,1,465,904,235
229801302,35239,-0.0312,-0.0479,1.0234,-0.1831,0.4883,-0.3052,1,469,920,235
229806307,35240,-0.0312,-0.0488,1.0229,-0.1221,0.4272,-0.3052,1,474,889,235
229811301,35241,-0.0322,-0.0493,1.0220,-0.0610,0.4272,-0.3052,1,495,897,235
229816306,35242,-0.0327,-0.0498,1.0225,-0.2441,0.4883,-0.1831,1,482,852,235
229821305,35243,-0.0322,-0.0498,1.0239,-0.1221,0.4883,-0.1831,1,503,797,235
229826303,35244,-0.0322,-0.0488,1.0244,0.0000,0.5493,-0.1831,1,494,834,235
229831307,35245,-0.0317,-0.0488,1.0229,-0.0610,0.5493,-0.1221,1,480,810,235
229836304,35246,-0.0322,-0.0483,1.0215,0.0000,0.6714,-0.1831,1,484,850,235
229841307,35247,-0.0337,-0.0479,1.0210,-0.0610,0.6714,-0.2441,1,475,805,235
229846309,35248,-0.0347,-0.0479,1.0210,-0.0610,0.5493,-0.2441,1,492,845,235
229851307,35249,-0.0342,-0.0479,1.0210,0.1221,0.4883,-0.1831,1,466,846,235
229856309,35250,-0.0327,-0.0474,1.0215,0.0610,0.5493,-0.1831,1,466,869,235
229861302,35251,-0.0332,-0.0474,1.0225,0.0000,0.6104,-0.1831,1,465,881,235
229866302,35252,-0.0342,-0.0493,1.0220,-0.0610,0.4883,-0.1221,1,466,830,235
229871310,35253,-0.0332,-0.0493,1.0225,0.0000,0.6104,-0.1831,1,466,871,235
229876308,35254,-0.0327,-0.0479,1.0239,-0.0610,0.6104,-0.1831,1,466,833,235
229881303,35255,-0.0337,-0.0479,1.0229,-0.1831,0.5493,-0.2441,1,466,876,235
229886309,35256,-0.0342,-0.0493,1.0195,-0.1221,0.5493,-0.1831,1,466,884,235
229891310,35257,-0.0337,-0.0498,1.0195,-0.0610,0.4883,-0.1831,1,483,882,235
229896301,35258,-0.0332,-0.0479,1.0215,-0.1831,0.4883,-0.0610,1,476,869,235
229901310,35259,-0.0337,-0.0469,1.0220,-0.1831,0.5493,-0.1831,1,465,873,235
229906302,35260,-0.0342,-0.0483,1.0225,-0.1831,0.5493,-0.2441,1,482,907,235
229911301,35261,-0.0332,-0.0483,1.0239,-0.1221,0.6104,-0.1221,1,494,872,235
229916301,35262,-0.0327,-0.0469,1.0244,-0.2441,0.5493,-0.1831,1,474,863,235
229921307,35263,-0.0322,-0.0474,1.0234,-0.3052,0.6104,-0.1831,1,497,880,235
229926306,35264,-0.0317,-0.0483,1.0225,-0.2441,0.6104,-0.3052,1,494,752,235
229931307,35265,-0.0322,-0.0483,1.0215,-0.2441,0.6714,-0.2441,1,498,828,235
229936306,35266,-0.0337,-0.0498,1.0210,-0.4272,0.7324,-0.1831,1,505,836,235
229941302,35267,-0.0337,-0.0503,1.0220,-0.3052,0.6104,-0.1831,1,473,873,235
229946309,35268,-0.0327,-0.0498,1.0220,-0.1831,0.6714,-0.1831,1,488,839,235
229951308,35269,-0.0322,-0.0493,1.0220,-0.2441,0.7324,-0.1221,1,486,853,235
229956304,35270,-0.0332,-0.0483,1.0225,-0.2441,0.7935,-0.2441,1,492,853,235
229961307,35271,-0.0352,-0.0483,1.0210,-0.1831,0.6714,-0.3662,1,466,856,235
229966307,35272,-0.0352,-0.0498,1.0186,-0.1221,0.6104,-0.2441,1,466,878,235
229971307,35273,-0.0337,-0.0493,1.0176,-0.1221,0.5493,-0.3052,1,466,873,235
229976308,35274,-0.0337,-0.0493,1.0190,-0.0610,0.4883,-0.3052,1,466,873,235
229981307,35275,-0.0347,-0.0488,1.0210,-0.0610,0.6104,-0.1831,1,466,873,235
229986308,35276,-0.0347,-0.0483,1.0215,-0.1831,0.5493,-0.1831,1,466,872,235
229991309,35277,-0.0332,-0.0493,1.0210,-0.1831,0.4883,-0.1831,1,466,883,235
229996304,35278,-0.0327,-0.0498,1.0205,-0.1831,0.4883,-0.1831,1,484,881,235
230001302,35279,-0.0332,-0.0474,1.0205,-0.1221,0.4883,-0.1221,1,466,882,235
230006307,35280,-0.0337,-0.0459,1.0205,-0.1221,0.4883,-0.0610,1,485,860,235
230011334,35281,-0.0337,-0.0479,1.0205,-0.1831,0.4272,-0.1221,1,465,896,235
230016308,35282,-0.0347,-0.0503,1.0210,-0.1221,0.4272,-0.1221,1,483,902,235
230021310,35283,-0.0347,-0.0508,1.0215,-0.1831,0.3052,-0.1221,1,471,863,235
230026309,35284,-0.0327,-0.0513,1.0215,0.0000,0.3662,-0.1831,1,497,857,235
230031307,35285,-0.0327,-0.0513,1.0215,-0.0610,0.3662,-0.1831,1,501,769,235
230036309,35286,-0.0332,-0.0508,1.0215,-0.0610,0.3052,-0.1221,1,509,841,235
230041306,35287,-0.0342,-0.0508,1.0215,-0.0610,0.3662,-0.1221,1,494,820,235
230046304,35288,-0.0337,-0.0513,1.0215,0.0000,0.3052,-0.1831,1,488,822,235
230051307,35289,-0.0322,-0.0513,1.0215,0.0000,0.3052,-0.1831,1,475,798,235
230056303,35290,-0.0312,-0.0503,1.0215,0.0610,0.2441,-0.1831,1,478,801,235
230061308,35291,-0.0317,-0.0479,1.0215,0.0000,0.2441,-0.1221,1,478,872,235
230066307,35292,-0.0317,-0.0474,1.0225,-0.1831,0.3052,-0.3052,1,493,800,235
230071307,35293,-0.0312,-0.0488,1.0225,-0.0610,0.1831,-0.1221,1,466,872,235
230076307,35294,-0.0317,-0.0493,1.0225,0.0610,0.3662,-0.1221,1,466,900,235
230081307,35295,-0.0332,-0.0503,1.0225,0.0000,0.4272,-0.1831,1,466,877,235
230086309,35296,-0.0347,-0.0503,1.0205,-0.0610,0.3052,-0.1831,1,466,833,235
230091302,35297,-0.0356,-0.0503,1.0190,0.0000,0.2441,-0.1221,1,466,870,235
230096326,35298,-0.0352,-0.0508,1.0205,0.0000,0.3052,-0.1221,1,466,828,235
230101304,35299,-0.0347,-0.0498,1.0229,0.0610,0.2441,-0.1221,1,466,819,235
230106308,35300,-0.0342,-0.0479,1.0234,0.0000,0.1831,-0.1221,1,465,877,235
230111309,35301,-0.0342,-0.0483,1.0215,0.0000,0.3662,-0.1831,1,477,771,235
230116310,35302,-0.0342,-0.0493,1.0210,0.0000,0.3052,0.0000,1,466,873,235
230121303,35303,-0.0337,-0.0498,1.0195,0.0000,0.2441,-0.1831,1,482,777,235
230126304,35304,-0.0337,-0.0503,1.0186,0.0610,0.2441,-0.1831,1,494,834,235
230131305,35305,-0.0352,-0.0503,1.0181,0.0000,0.1831,-0.1831,1,475,863,235
230136307,35306,-0.0352,-0.0503,1.0195,0.1221,0.2441,-0.1221,1,501,742,235
230141305,35307,-0.0337,-0.0493,1.0215,0.1221,0.1831,-0.1221,1,481,833,235
230146306,35308,-0.0317,-0.0479,1.0229,0.1221,0.3662,-0.1221,1,480,826,235
230151305,35309,-0.0317,-0.0479,1.0220,0.0610,0.2441,-0.1221,1,502,828,235
230156302,35310,-0.0342,-0.0493,1.0210,0.0610,0.3052,-0.1221,1,473,866,235
230161307,35311,-0.0366,-0.0498,1.0215,0.0610,0.1221,-0.1831,1,478,839,235
230166305,35312,-0.0366,-0.0498,1.0225,0.0610,0.2441,-0.1221,1,481,848,235
230171305,35313,-0.0347,-0.0508,1.0225,0.0610,0.3052,-0.1221,1,492,848,235
230176308,35314,-0.0337,-0.0503,1.0215,0.1831,0.1831,-0.1831,1,466,862,235
230181308,35315,-0.0337,-0.0483,1.0200,0.1221,0.2441,-0.1221,1,465,879,235
230186302,35316,-0.0337,-0.0479,1.0190,0.1831,0.2441,-0.1831,1,466,873,235
230191302,35317,-0.0332,-0.0488,1.0210,0.1221,0.1221,-0.1831,1,466,882,235
230196309,35318,-0.0327,-0.0488,1.0225,0.2441,0.3052,-0.1831,1,466,875,235
230201312,35319,-0.0327,-0.0488,1.0210,0.3052,0.1221,-0.1831,1,466,881,235
230206309,35320,-0.0327,-0.0488,1.0210,0.1221,0.1831,-0.1221,1,466,874,235
230211301,35321,-0.0337,-0.0498,1.0225,0.1831,0.2441,-0.2441,1,483,875,235
230216309,35322,-0.0352,-0.0508,1.0220,0.0610,0.1831,-0.1221,1,466,873,235
230221304,35323,-0.0352,-0.0508,1.0225,0.1831,0.1221,-0.2441,1,484,803,235
230226322,35324,-0.0342,-0.0508,1.0239,0.2441,0.0610,-0.2441,1,474,900,235
230231306,35325,-0.0337,-0.0508,1.0234,0.2441,0.0610,-0.2441,1,480,931,235
230236305,35326,-0.0342,-0.0503,1.0220,0.0610,0.1221,-0.1831,1,498,866,235
230241305,35327,-0.0352,-0.0503,1.0215,0.1831,0.0610,-0.1221,1,483,783,235
230246305,35328,-0.0352,-0.0493,1.0215,0.1831,0.0610,-0.1221,1,482,802,235
230251307,35329,-0.0356,-0.0483,1.0215,0.2441,0.0000,-0.1221,1,486,827,235
230256301,35330,-0.0366,-0.0488,1.0205,0.1831,-0.0610,-0.2441,1,501,786,235
230261302,35331,-0.0352,-0.0498,1.0215,0.1831,-0.0610,-0.3662,1,478,853,235
230266305,35332,-0.0337,-0.0503,1.0225,0.3662,0.0000,-0.1831,1,475,849,235
230271302,35333,-0.0332,-0.0508,1.0229,0.3662,0.1221,-0.2441,1,482,801,235
230276306,35334,-0.0342,-0.0508,1.0225,0.3052,0.0610,-0.1831,1,488,850,235
230281305,35335,-0.0342,-0.0488,1.0215,0.4883,0.0610,-0.1831,1,493,840,235
230286301,35336,-0.0332,-0.0479,1.0215,0.3052,0.1221,-0.1831,1,466,875,235
230291306,35337,-0.0337,-0.0469,1.0220,0.3662,0.0610,-0.1831,1,466,873,235
230296303,35338,-0.0337,-0.0459,1.0229,0.3662,0.0000,-0.2441,1,466,875,235
230301301,35339,-0.0332,-0.0469,1.0239,0.3052,-0.1221,-0.1831,1,466,836,235
230306306,35340,-0.0332,-0.0488,1.0234,0.3662,0.0000,-0.1221,1,466,874,235
230311306,35341,-0.0342,-0.0498,1.0225,0.3662,0.2441,-0.1831,1,466,835,235
230316305,35342,-0.0342,-0.0483,1.0220,0.1831,0.1221,-0.3052,1,483,883,235
230321309,35343,-0.0327,-0.0469,1.0229,0.2441,0.0000,-0.2441,1,466,861,235
230326304,35344,-0.0317,-0.0474,1.0239,0.1831,0.1831,-0.1831,1,484,778,235
230331310,35345,-0.0332,-0.0483,1.0220,0.2441,0.3662,-0.2441,1,465,912,235
230336302,35346,-0.0342,-0.0479,1.0195,0.1221,0.2441,-0.3052,1,483,925,235
230341304,35347,-0.0337,-0.0479,1.0205,0.1221,0.1221,-0.1831,1,493,861,235
230346309,35348,-0.0322,-0.0498,1.0220,0.3052,0.2441,-0.2441,1,491,859,235
230351301,35349,-0.0332,-0.0503,1.0220,0.1831,0.1831,-0.1221,1,508,795,235
230356306,35350,-0.0352,-0.0493,1.0215,0.2441,0.2441,-0.1831,1,498,791,235
230361307,35351,-0.0347,-0.0483,1.0210,0.1831,0.3662,-0.1831,1,489,836,235
230366306,35352,-0.0337,-0.0483,1.0229,0.3052,0.3662,-0.2441,1,509,834,235
230371307,35353,-0.0327,-0.0479,1.0229,0.1831,0.2441,-0.2441,1,477,873,235
230376301,35354,-0.0327,-0.0483,1.0229,0.2441,0.3052,-0.2441,1,488,856,235
230381302,35355,-0.0332,-0.0479,1.0239,0.1831,0.2441,-0.2441,1,477,854,235
230386301,35356,-0.0332,-0.0483,1.0239,0.2441,0.2441,-0.1831,1,493,856,235
230391303,35357,-0.0332,-0.0483,1.0229,0.3052,0.1221,-0.1221,1,466,887,235
230396310,35358,-0.0337,-0.0479,1.0225,0.2441,0.1831,-0.1221,1,466,871,235
230401308,35359,-0.0337,-0.0479,1.0225,0.1221,0.3662,-0.2441,1,466,875,235
230406301,35360,-0.0337,-0.0479,1.0225,0.1831,0.4272,-0.2441,1,466,876,235
230411303,35361,-0.0327,-0.0474,1.0210,0.1831,0.3662,-0.1831,1,466,880,235
230416324,35362,-0.0317,-0.0474,1.0210,0.0610,0.3052,-0.1831,1,465,882,235
230421306,35363,-0.0322,-0.0479,1.0225,0.0610,0.4272,-0.2441,1,466,873,235
230426308,35364,-0.0337,-0.0483,1.0234,0.0610,0.4883,-0.1831,1,484,879,235
230431306,35365,-0.0356,-0.0493,1.0225,0.0000,0.3662,-0.1221,1,475,869,235
230436307,35366,-0.0361,-0.0498,1.0205,0.0000,0.3662,-0.1831,1,465,873,235
230441310,35367,-0.0356,-0.0493,1.0181,0.0000,0.3052,-0.1831,1,482,826,235
230446307,35368,-0.0352,-0.0488,1.0171,0.0610,0.1831,-0.1831,1,477,819,235
230451305,35369,-0.0352,-0.0488,1.0186,0.1221,0.1831,-0.1831,1,467,864,235
230456310,35370,-0.0347,-0.0498,1.0205,0.1221,0.1221,-0.2441,1,494,792,235
230461308,35371,-0.0337,-0.0493,1.0225,0.1221,0.1221,-0.1831,1,469,788,235
230466304,35372,-0.0342,-0.0483,1.0225,0.1221,0.2441,-0.1831,1,494,837,235
230471309,35373,-0.0352,-0.0483,1.0215,0.1221,0.1831,-0.1831,1,494,831,235
230476307,35374,-0.0356,-0.0479,1.0215,0.1221,0.0610,-0.1831,1,482,849,235
230481303,35375,-0.0347,-0.0479,1.0225,0.1831,0.0000,-0.2441,1,488,844,235
230486302,35376,-0.0337,-0.0483,1.0239,0.1221,0.0610,-0.2441,1,478,802,235
230491305,35377,-0.0332,-0.0488,1.0239,0.0610,0.1221,-0.2441,1,492,850,235
230496304,35378,-0.0332,-0.0488,1.0229,0.0000,0.0610,-0.1831,1,493,850,235
230501310,35379,-0.0327,-0.0493,1.0215,0.0610,0.1831,-0.1831,1,466,835,235
230506306,35380,-0.0327,-0.0493,1.0205,0.0610,0.1831,-0.1831,1,466,882,235
230511309,35381,-0.0327,-0.0483,1.0205,0.0610,0.1221,-0.3052,1,466,882,235
230516305,35382,-0.0327,-0.0474,1.0215,0.0610,0.1221,-0.0610,1,466,873,235
230521308,35383,-0.0322,-0.0479,1.0234,0.0610,0.1221,-0.2441,1,466,871,235
230526308,35384,-0.0337,-0.0493,1.0229,0.1221,0.0610,-0.3052,1,466,877,235
230531303,35385,-0.0342,-0.0498,1.0220,0.0000,0.1221,-0.2441,1,483,873,235
230536305,35386,-0.0347,-0.0498,1.0220,0.0610,0.1831,-0.1221,1,465,773,235
230541301,35387,-0.0347,-0.0493,1.0215,0.1221,0.1221,-0.1221,1,484,864,235
230546329,35388,-0.0342,-0.0488,1.0210,0.1221,0.1221,-0.1831,1,472,895,235
230551304,35389,-0.0342,-0.0493,1.0215,0.1221,0.1221,-0.1831,1,470,859,235
230556303,35390,-0.0337,-0.0488,1.0215,0.1221,0.0610,-0.1831,1,477,871,235
230561304,35391,-0.0332,-0.0493,1.0220,0.1831,0.1221,-0.1831,1,503,863,235
230566302,35392,-0.0327,-0.0508,1.0220,0.1221,0.0610,-0.1831,1,505,784,235
230571305,35393,-0.0327,-0.0513,1.0220,0.1221,0.0610,-0.3052,1,489,834,235
230576309,35394,-0.0337,-0.0498,1.0215,0.3052,0.0000,-0.2441,1,508,821,235
230581301,35395,-0.0337,-0.0488,1.0220,0.2441,0.0610,-0.2441,1,476,801,235
230586302,35396,-0.0347,-0.0493,1.0200,0.3052,0.0610,-0.2441,1,492,849,235
230591304,35397,-0.0366,-0.0498,1.0186,0.4272,-0.1221,-0.1831,1,479,844,235
230596304,35398,-0.0366,-0.0493,1.0190,0.4272,-0.1831,-0.2441,1,474,851,235
230601303,35399,-0.0337,-0.0488,1.0215,0.4272,-0.2441,-0.2441,1,493,857,235
230606304,35400,-0.0312,-0.0483,1.0234,0.4883,-0.1221,-0.2441,1,466,882,235
230611304,35401,-0.0312,-0.0474,1.0239,0.4272,-0.1221,-0.1831,1,466,905,235
230616304,35402,-0.0327,-0.0474,1.0239,0.3662,-0.1221,-0.1831,1,466,904,235
230621305,35403,-0.0327,-0.0479,1.0239,0.3662,-0.1221,-0.2441,1,466,880,235
230626309,35404,-0.0308,-0.0469,1.0254,0.4883,-0.1831,-0.3052,1,466,882,235
230631306,35405,-0.0303,-0.0469,1.0259,0.3662,-0.1831,-0.1831,1,466,870,235
230636308,35406,-0.0317,-0.0479,1.0254,0.3052,-0.0610,-0.3052,1,484,876,235
230641307,35407,-0.0327,-0.0474,1.0234,0.2441,-0.0610,-0.2441,1,466,857,235
230646306,35408,-0.0332,-0.0474,1.0220,0.2441,-0.0610,-0.2441,1,484,872,235
230651320,35409,-0.0332,-0.0474,1.0215,0.3662,-0.0610,-0.0610,1,465,907,235
230656306,35410,-0.0332,-0.0474,1.0225,0.1831,0.0000,-0.1831,1,470,931,235
230661308,35411,-0.0337,-0.0474,1.0225,0.2441,0.0000,-0.1831,1,508,831,235
230666309,35412,-0.0342,-0.0479,1.0229,0.3052,0.1221,-0.1831,1,465,739,235
230671302,35413,-0.0342,-0.0479,1.0239,0.1221,0.1221,-0.2441,1,510,868,235
230676303,35414,-0.0347,-0.0479,1.0244,0.1831,0.1221,-0.1221,1,476,836,235
230681302,35415,-0.0352,-0.0488,1.0220,0.1831,0.1221,-0.0610,1,494,825,235
230686301,35416,-0.0352,-0.0488,1.0190,0.1221,0.0610,-0.1831,1,507,827,235
230691302,35417,-0.0342,-0.0488,1.0186,0.2441,0.0610,-0.1831,1,478,865,235
230696308,35418,-0.0337,-0.0483,1.0195,0.2441,0.1831,-0.1221,1,488,850,235
230701308,35419,-0.0332,-0.0483,1.0210,0.1831,0.1221,-0.1831,1,481,852,235
230706306,35420,-0.0327,-0.0483,1.0215,0.3052,0.0610,-0.2441,1,492,851,235
230711303,35421,-0.0327,-0.0474,1.0215,0.1831,0.1221,-0.3052,1,466,876,235
230716309,35422,-0.0342,-0.0464,1.0215,0.1221,0.1831,-0.2441,1,466,874,235
230721302,35423,-0.0347,-0.0469,1.0229,0.1221,0.0610,-0.1831,1,465,876,235
230726308,35424,-0.0337,-0.0479,1.0234,0.1221,0.1831,-0.3052,1,466,873,235
230731305,35425,-0.0317,-0.0479,1.0239,0.0000,0.1221,-0.3052,1,466,872,235
230736302,35426,-0.0312,-0.0479,1.0234,0.0610,0.2441,-0.1831,1,466,827,235
230741301,35427,-0.0312,-0.0474,1.0220,0.0610,0.3052,-0.1831,1,483,905,235
230746303,35428,-0.0317,-0.0469,1.0220,0.0000,0.2441,-0.2441,1,466,897,235
230751306,35429,-0.0322,-0.0474,1.0225,0.0000,0.3052,-0.2441,1,484,783,235
230756316,35430,-0.0317,-0.0474,1.0229,0.0610,0.2441,-0.2441,1,465,818,235
230761308,35431,-0.0312,-0.0483,1.0225,-0.0610,0.3662,-0.3052,1,470,922,235
230766307,35432,-0.0322,-0.0493,1.0225,-0.1221,0.2441,-0.2441,1,506,941,235
230771303,35433,-0.0327,-0.0493,1.0220,0.0610,0.3052,-0.1831,1,467,878,235
230776307,35434,-0.0347,-0.0483,1.0220,0.0610,0.3052,-0.2441,1,498,788,235
230781306,35435,-0.0347,-0.0474,1.0215,-0.0610,0.3052,-0.1221,1,476,826,235
230786302,35436,-0.0337,-0.0474,1.0210,-0.0610,0.4272,-0.2441,1,498,819,235
230791310,35437,-0.0327,-0.0469,1.0215,0.0000,0.3662,-0.2441,1,476,845,235
230796305,35438,-0.0337,-0.0469,1.0220,-0.0610,0.3662,-0.1831,1,478,805,235
230801308,35439,-0.0337,-0.0488,1.0225,-0.0610,0.3662,-0.3662,1,483,846,235
230806301,35440,-0.0332,-0.0503,1.0225,-0.1221,0.3052,-0.1831,1,491,851,235
230811305,35441,-0.0332,-0.0488,1.0225,0.0610,0.3662,-0.1831,1,493,843,235
230816310,35442,-0.0332,-0.0464,1.0215,0.0000,0.6104,-0.2441,1,466,881,235
230821304,35443,-0.0337,-0.0483,1.0205,-0.1221,0.3052,-0.2441,1,466,830,235
230826304,35444,-0.0337,-0.0503,1.0195,0.0000,0.3662,-0.1831,1,465,877,235
230831306,35445,-0.0312,-0.0488,1.0210,-0.0610,0.3662,-0.1831,1,466,833,235
230836306,35446,-0.0308,-0.0459,1.0229,-0.0610,0.4272,-0.2441,1,466,904,235
230841307,35447,-0.0327,-0.0454,1.0225,-0.0610,0.4272,-0.3662,1,465,878,235
230846301,35448,-0.0342,-0.0469,1.0215,-0.1221,0.3052,-0.2441,1,484,881,235
230851308,35449,-0.0342,-0.0479,1.0215,-0.0610,0.3662,-0.2441,1,465,858,235
230856309,35450,-0.0342,-0.0483,1.0229,-0.0610,0.4272,-0.1831,1,484,866,235
230861333,35451,-0.0337,-0.0454,1.0239,-0.1831,0.4883,-0.1831,1,467,909,235
230866303,35452,-0.0337,-0.0449,1.0229,-0.1831,0.5493,-0.1831,1,467,923,235
230871304,35453,-0.0342,-0.0479,1.0225,-0.1221,0.3662,-0.2441,1,502,874,235
230876305,35454,-0.0337,-0.0493,1.0234,-0.1221,0.4883,-0.3052,1,485,872,235
230881305,35455,-0.0322,-0.0483,1.0234,-0.2441,0.5493,-0.1831,1,508,751,235
230886308,35456,-0.0322,-0.0479,1.0229,-0.3662,0.6714,-0.2441,1,490,851,235
230891308,35457,-0.0327,-0.0469,1.0225,-0.3662,0.6104,-0.1831,1,492,835,235
230896307,35458,-0.0337,-0.0464,1.0220,-0.3662,0.5493,-0.1221,1,483,828,235
230901309,35459,-0.0347,-0.0469,1.0215,-0.3052,0.5493,-0.2441,1,485,867,235
230906302,35460,-0.0337,-0.0488,1.0210,-0.2441,0.6714,-0.3052,1,491,845,235
230911305,35461,-0.0327,-0.0498,1.0215,-0.3662,0.5493,-0.1221,1,481,845,235
230916309,35462,-0.0332,-0.0488,1.0225,-0.4272,0.5493,-0.1831,1,493,853,235
230921306,35463,-0.0337,-0.0488,1.0234,-0.4883,0.5493,-0.1831,1,466,884,235
230926303,35464,-0.0332,-0.0503,1.0239,-0.4272,0.4883,-0.1831,1,466,883,235
230931306,35465,-0.0327,-0.0498,1.0234,-0.3662,0.4883,-0.1831,1,466,880,235
230936301,35466,-0.0332,-0.0488,1.0225,-0.3052,0.6714,-0.1221,1,466,887,235
230941314,35467,-0.0342,-0.0493,1.0215,-0.3662,0.6714,-0.2441,1,466,874,235
230946308,35468,-0.0332,-0.0488,1.0220,-0.2441,0.5493,-0.2441,1,466,880,235
230951302,35469,-0.0332,-0.0493,1.0234,-0.2441,0.6104,-0.1221,1,484,886,235
230956305,35470,-0.0327,-0.0498,1.0239,-0.3662,0.7324,-0.1221,1,477,868,235
230961305,35471,-0.0322,-0.0488,1.0244,-0.3662,0.7935,-0.0610,1,465,873,235
230966325,35472,-0.0327,-0.0479,1.0239,-0.4272,0.7324,-0.2441,1,482,909,235
230971302,35473,-0.0337,-0.0469,1.0225,-0.4272,0.6714,-0.2441,1,468,873,235
230976308,35474,-0.0332,-0.0474,1.0225,-0.4272,0.7324,-0.1831,1,496,873,235
230981301,35475,-0.0322,-0.0488,1.0234,-0.4272,0.7935,-0.0610,1,492,878,235
230986306,35476,-0.0317,-0.0488,1.0239,-0.4272,0.9155,-0.1221,1,466,843,235
230991307,35477,-0.0327,-0.0488,1.0229,-0.3052,1.0986,-0.1831,1,504,845,235
230996305,35478,-0.0347,-0.0483,1.0210,-0.3662,1.0376,-0.1221,1,492,835,235
231001306,35479,-0.0352,-0.0483,1.0205,-0.4883,0.9766,0.0000,1,478,847,235
231006304,35480,-0.0342,-0.0493,1.0220,-0.4272,1.0376,-0.0610,1,487,799,235
231011310,35481,-0.0347,-0.0493,1.0225,-0.4272,1.0376,-0.0610,1,476,847,235
231016302,35482,-0.0356,-0.0508,1.0215,-0.4272,1.2207,-0.1221,1,492,847,235
231021301,35483,-0.0347,-0.0522,1.0210,-0.2441,1.0986,-0.0610,1,466,874,235
231026305,35484,-0.0327,-0.0518,1.0215,-0.2441,1.1597,-0.2441,1,466,879,235
231031310,35485,-0.0322,-0.0498,1.0220,-0.2441,1.2207,-0.0610,1,466,882,235
231036305,35486,-0.0337,-0.0493,1.0225,-0.3052,1.0986,-0.1831,1,466,882,235
231041305,35487,-0.0356,-0.0508,1.0215,-0.2441,1.0376,-0.1831,1,466,878,235
231046306,35488,-0.0361,-0.0503,1.0205,-0.1221,1.2207,-0.1831,1,466,878,235
231051304,35489,-0.0347,-0.0488,1.0205,-0.2441,1.0986,-0.1831,1,483,877,235
231056305,35490,-0.0342,-0.0483,1.0220,-0.2441,1.0986,0.0000,1,465,882,235
231061308,35491,-0.0352,-0.0493,1.0229,-0.3052,1.0986,-0.1221,1,484,777,235
231066301,35492,-0.0361,-0.0503,1.0225,-0.3052,1.1597,-0.0610,1,466,901,235
231071305,35493,-0.0361,-0.0498,1.0220,-0.2441,1.0986,-0.0610,1,467,860,235
231076303,35494,-0.0356,-0.0483,1.0220,-0.3052,1.0376,-0.0610,1,483,870,235
231081308,35495,-0.0356,-0.0493,1.0215,-0.4272,0.9766,-0.0610,1,470,870,235
231086309,35496,-0.0352,-0.0508,1.0220,-0.3662,0.9155,0.0610,1,510,874,235
231091302,35497,-0.0347,-0.0498,1.0229,-0.1221,0.9766,0.0000,1,468,826,235
231096308,35498,-0.0352,-0.0493,1.0234,-0.2441,1.0986,0.0000,1,497,783,235
231101301,35499,-0.0352,-0.0498,1.0229,-0.3662,1.0986,-0.1831,1,493,789,235
231106309,35500,-0.0361,-0.0493,1.0225,-0.3052,1.1597,-0.1831,1,492,857,235
231111306,35501,-0.0366,-0.0488,1.0215,-0.3052,1.1597,-0.1221,1,491,851,235
231116307,35502,-0.0356,-0.0493,1.0215,-0.3662,1.1597,0.0610,1,481,845,235
231121303,35503,-0.0352,-0.0518,1.0215,-0.3052,1.0986,0.0000,1,493,850,235
231126303,35504,-0.0361,-0.0537,1.0205,-0.2441,1.0986,-0.0610,1,465,826,235
231131308,35505,-0.0366,-0.0527,1.0200,-0.1831,1.0376,-0.0610,1,466,881,235
231136303,35506,-0.0371,-0.0508,1.0195,-0.1221,0.9766,-0.1221,1,465,879,235
231141308,35507,-0.0391,-0.0488,1.0186,-0.1221,0.9766,-0.1221,1,466,870,235
231146304,35508,-0.0396,-0.0479,1.0171,-0.2441,0.9766,-0.1831,1,466,867,235
231151326,35509,-0.0386,-0.0498,1.0171,-0.0610,0.6714,-0.1831,1,466,873,235
231156309,35510,-0.0376,-0.0513,1.0176,0.0000,0.6714,-0.1831,1,466,873,235
231161301,35511,-0.0366,-0.0513,1.0195,0.0610,0.7324,-0.1221,1,465,819,235
231166303,35512,-0.0361,-0.0508,1.0225,0.0610,0.6714,-0.0610,1,484,866,235
231171301,35513,-0.0356,-0.0503,1.0229,-0.0610,0.5493,-0.2441,1,466,867,235
231176335,35514,-0.0356,-0.0493,1.0210,0.0610,0.5493,-0.2441,1,474,921,235
231181309,35515,-0.0352,-0.0488,1.0205,-0.0610,0.5493,-0.1831,1,467,870,235
231186308,35516,-0.0352,-0.0488,1.0220,0.0000,0.4272,-0.0610,1,475,867,235
231191307,35517,-0.0361,-0.0488,1.0229,0.0610,0.3052,-0.0610,1,498,707,235
231196302,35518,-0.0371,-0.0488,1.0229,0.1221,0.5493,-0.1831,1,483,781,235
231201303,35519,-0.0371,-0.0493,1.0220,-0.0610,0.6104,-0.1831,1,487,845,235
231206309,35520,-0.0366,-0.0498,1.0210,-0.1221,0.6104,-0.0610,1,492,831,235
231211304,35521,-0.0361,-0.0513,1.0225,-0.1221,0.4883,-0.1221,1,479,842,235
231216303,35522,-0.0356,-0.0508,1.0229,-0.1221,0.6104,-0.0610,1,473,842,235
231221309,35523,-0.0356,-0.0498,1.0229,-0.1221,0.6104,-0.1221,1,483,842,235
231226306,35524,-0.0366,-0.0518,1.0220,0.0000,0.4883,-0.1831,1,493,845,235
231231309,35525,-0.0371,-0.0518,1.0205,-0.0610,0.4883,-0.1221,1,466,830,235
231236307,35526,-0.0366,-0.0503,1.0195,0.0000,0.4883,-0.0610,1,466,872,235
231241301,35527,-0.0352,-0.0493,1.0200,-0.1221,0.5493,-0.1221,1,466,829,235
231246306,35528,-0.0347,-0.0493,1.0205,-0.0610,0.5493,-0.1221,1,466,873,235
231251303,35529,-0.0366,-0.0488,1.0190,-0.0610,0.6104,-0.0610,1,466,905,235
231256326,35530,-0.0376,-0.0488,1.0181,-0.1221,0.5493,-0.0610,1,465,875,235
231261303,35531,-0.0376,-0.0493,1.0190,-0.0610,0.4883,-0.0610,1,466,872,235
231266306,35532,-0.0366,-0.0503,1.0205,0.0000,0.4883,-0.0610,1,465,875,235
231271301,35533,-0.0361,-0.0527,1.0210,0.0000,0.4272,-0.1221,1,475,771,235
231276309,35534,-0.0352,-0.0532,1.0220,0.1221,0.4883,-0.1221,1,466,885,235
231281327,35535,-0.0347,-0.0518,1.0229,0.0610,0.3662,-0.0610,1,482,897,235
231286307,35536,-0.0352,-0.0493,1.0229,0.1221,0.4272,-0.1221,1,471,862,235
231291303,35537,-0.0361,-0.0488,1.0225,0.0000,0.5493,-0.1831,1,472,863,235
231296307,35538,-0.0371,-0.0493,1.0220,0.0000,0.4272,-0.1221,1,501,757,235
231301302,35539,-0.0371,-0.0498,1.0210,0.0000,0.3662,0.0000,1,479,795,235
231306304,35540,-0.0366,-0.0498,1.0200,0.1221,0.4272,0.0000,1,485,740,235
231311304,35541,-0.0356,-0.0488,1.0200,0.1221,0.4883,-0.1831,1,509,785,235
231316307,35542,-0.0352,-0.0493,1.0210,0.1221,0.5493,0.0000,1,478,849,235
231321305,35543,-0.0356,-0.0503,1.0215,0.1221,0.5493,0.0000,1,481,800,235
231326301,35544,-0.0366,-0.0518,1.0220,0.1831,0.4272,-0.0610,1,492,799,235
231331310,35545,-0.0366,-0.0527,1.0229,0.1221,0.5493,-0.0610,1,493,849,235
231336302,35546,-0.0371,-0.0522,1.0215,0.2441,0.7324,-0.1221,1,493,851,235
231341301,35547,-0.0371,-0.0527,1.0205,0.3052,0.4883,-0.1221,1,466,881,235
231346302,35548,-0.0371,-0.0527,1.0190,0.3052,0.6714,-0.0610,1,466,873,235
231351303,35549,-0.0371,-0.0508,1.0181,0.3052,0.6714,-0.1221,1,466,874,235
231356304,35550,-0.0391,-0.0493,1.0181,0.3052,0.4883,-0.0610,1,466,866,235
231361302,35551,-0.0400,-0.0493,1.0181,0.3052,0.4883,-0.1831,1,466,866,235
231366305,35552,-0.0396,-0.0498,1.0186,0.4883,0.4883,-0.3662,1,466,870,235
231371301,35553,-0.0376,-0.0503,1.0195,0.4883,0.4883,-0.2441,1,483,877,235
231376301,35554,-0.0371,-0.0518,1.0215,0.6104,0.4883,-0.1221,1,465,864,235
231381301,35555,-0.0376,-0.0513,1.0234,0.6714,0.4883,-0.2441,1,484,860,235
231386317,35556,-0.0376,-0.0508,1.0244,0.6714,0.4883,-0.1831,1,474,904,235
231391305,35557,-0.0371,-0.0513,1.0229,0.6104,0.3662,-0.1831,1,483,862,235
231396304,35558,-0.0366,-0.0518,1.0220,0.7324,0.3052,-0.2441,1,499,870,235
231401301,35559,-0.0361,-0.0518,1.0220,0.6714,0.4272,-0.1831,1,486,873,235
231406303,35560,-0.0361,-0.0508,1.0225,0.6714,0.4883,-0.2441,1,494,752,235
231411306,35561,-0.0361,-0.0498,1.0234,0.5493,0.4272,-0.2441,1,477,838,235
231416305,35562,-0.0361,-0.0488,1.0244,0.5493,0.4272,-0.3052,1,502,840,235
231421309,35563,-0.0366,-0.0498,1.0229,0.5493,0.6104,-0.2441,1,473,852,235
231426307,35564,-0.0376,-0.0513,1.0200,0.6104,0.5493,-0.3052,1,477,854,235
231431302,35565,-0.0371,-0.0513,1.0176,0.6104,0.4883,-0.1831,1,489,840,235
231436304,35566,-0.0371,-0.0479,1.0186,0.4883,0.3662,-0.1221,1,469,847,235
231441302,35567,-0.0376,-0.0459,1.0210,0.4272,0.4272,-0.1221,1,493,845,235
231446301,35568,-0.0386,-0.0479,1.0220,0.4272,0.4272,-0.2441,1,466,871,235
231451303,35569,-0.0386,-0.0493,1.0215,0.3662,0.4272,-0.1831,1,466,879,235
231456306,35570,-0.0376,-0.0488,1.0210,0.3052,0.5493,-0.1221,1,466,882,235
231461308,35571,-0.0361,-0.0488,1.0215,0.2441,0.5493,-0.1831,1,466,873,235
231466307,35572,-0.0356,-0.0498,1.0215,0.3662,0.4883,-0.1221,1,466,886,235
231471303,35573,-0.0356,-0.0493,1.0220,0.2441,0.5493,-0.0610,1,466,878,235
231476304,35574,-0.0366,-0.0469,1.0229,0.1221,0.4883,0.0000,1,483,883,235
231481306,35575,-0.0376,-0.0464,1.0229,0.1831,0.4883,-0.0610,1,468,770,235
231486305,35576,-0.0376,-0.0479,1.0234,0.1831,0.4883,-0.1221,1,483,810,235
231491326,35577,-0.0371,-0.0493,1.0225,0.2441,0.5493,-0.2441,1,477,901,235
231496308,35578,-0.0361,-0.0493,1.0215,0.3052,0.6714,-0.1221,1,482,926,235
231501304,35579,-0.0361,-0.0493,1.0205,0.4272,0.7935,-0.1221,1,505,861,235
231506305,35580,-0.0371,-0.0498,1.0190,0.2441,0.7324,-0.1221,1,472,874,235
231511310,35581,-0.0391,-0.0508,1.0161,0.3052,0.7935,-0.2441,1,497,792,235
231516304,35582,-0.0415,-0.0518,1.0137,0.4883,0.6104,-0.2441,1,494,831,235
231521310,35583,-0.0415,-0.0518,1.0156,0.4883,0.3662,-0.2441,1,509,827,235
231526303,35584,-0.0396,-0.0498,1.0181,0.5493,0.3052,-0.3052,1,473,851,235
231531301,35585,-0.0386,-0.0479,1.0210,0.6104,0.2441,-0.1831,1,486,862,235
231536301,35586,-0.0371,-0.0479,1.0229,0.4272,0.2441,-0.2441,1,475,844,235
231541308,35587,-0.0356,-0.0479,1.0225,0.3662,0.3662,-0.2441,1,471,855,235
231546301,35588,-0.0366,-0.0469,1.0220,0.0610,0.4272,-0.1831,1,494,853,235
231551308,35589,-0.0386,-0.0474,1.0220,0.1831,0.4272,0.0000,1,466,876,235
231556310,35590,-0.0405,-0.0493,1.0210,0.3052,0.3052,0.0000,1,466,831,235
231561302,35591,-0.0400,-0.0488,1.0205,0.4272,0.1831,0.0000,1,466,822,235
231566304,35592,-0.0371,-0.0474,1.0215,0.2441,0.4272,0.0000,1,466,833,235
231571305,35593,-0.0352,-0.0474,1.0220,0.2441,0.5493,-0.0610,1,466,833,235
231576304,35594,-0.0361,-0.0483,1.0225,0.1831,0.6104,0.0000,1,466,876,235
231581303,35595,-0.0381,-0.0498,1.0234,0.2441,0.4883,0.0000,1,483,833,235
231586301,35596,-0.0376,-0.0493,1.0239,0.4272,0.4883,-0.1221,1,469,822,235
231591302,35597,-0.0366,-0.0488,1.0229,0.3662,0.6714,0.0000,1,465,827,235
231596332,35598,-0.0361,-0.0479,1.0215,0.4272,0.5493,-0.0610,1,482,826,235
231601310,35599,-0.0371,-0.0488,1.0205,0.4883,0.6104,-0.1221,1,479,930,235
231606304,35600,-0.0381,-0.0518,1.0195,0.5493,0.7324,-0.0610,1,507,861,235
231611302,35601,-0.0386,-0.0518,1.0190,0.7324,0.6714,-0.1221,1,473,873,235
231616307,35602,-0.0381,-0.0493,1.0205,0.7935,0.7935,0.0000,1,503,751,235
231621301,35603,-0.0371,-0.0498,1.0215,0.8545,0.7324,-0.0610,1,504,781,235
231626301,35604,-0.0366,-0.0503,1.0215,0.9766,0.6714,-0.0610,1,500,832,235
231631306,35605,-0.0376,-0.0493,1.0205,0.7324,0.7324,0.0000,1,492,841,235
231636303,35606,-0.0391,-0.0493,1.0205,0.7324,0.6714,-0.1221,1,476,807,235
231641303,35607,-0.0386,-0.0503,1.0210,0.9155,0.6104,0.0000,1,479,843,235
231646304,35608,-0.0371,-0.0493,1.0210,0.8545,0.9155,0.0610,1,486,795,235
231651301,35609,-0.0371,-0.0479,1.0205,0.7324,0.8545,0.1221,1,493,847,235
231656302,35610,-0.0381,-0.0479,1.0205,0.8545,0.6714,0.0610,1,466,873,235
231661301,35611,-0.0386,-0.0479,1.0205,0.7935,0.6714,0.0000,1,466,868,235
231666309,35612,-0.0396,-0.0479,1.0195,0.8545,0.7935,0.0610,1,466,856,235
231671309,35613,-0.0425,-0.0479,1.0171,0.7324,0.6104,0.1831,1,466,874,235
231676321,35614,-0.0410,-0.0488,1.0166,0.7324,0.2441,0.1831,1,466,872,235
231681301,35615,-0.0352,-0.0488,1.0195,0.9766,0.4272,0.2441,1,466,884,235
231686302,35616,-0.0342,-0.0479,1.0229,0.7935,0.7935,0.1221,1,484,879,235
231691303,35617,-0.0352,-0.0508,1.0234,0.8545,0.9155,0.1831,1,473,861,235
231696305,35618,-0.0356,-0.0542,1.0234,1.0376,1.1597,0.3052,1,465,826,235
231701332,35619,-0.0371,-0.0522,1.0229,1.1597,1.1597,0.3662,1,481,901,235
231706305,35620,-0.0376,-0.0483,1.0234,1.1597,1.2207,0.3052,1,479,925,235
231711304,35621,-0.0366,-0.0498,1.0229,1.1597,1.4038,0.4272,1,509,865,235
231716308,35622,-0.0371,-0.0532,1.0186,1.3428,1.4648,0.5493,1,471,836,235
231721308,35623,-0.0400,-0.0503,1.0142,1.5259,1.3428,0.6714,1,510,880,235
231726303,35624,-0.0425,-0.0464,1.0161,1.4038,1.1597,0.6104,1,493,832,235
231731308,35625,-0.0396,-0.0498,1.0220,1.3428,1.2817,0.7324,1,507,837,235
231736302,35626,-0.0352,-0.0518,1.0249,1.7090,1.7090,0.7324,1,475,852,235
231741310,35627,-0.0356,-0.0459,1.0249,1.7700,1.7700,0.7324,1,483,867,235
231746309,35628,-0.0400,-0.0435,1.0225,1.5259,1.7700,0.7935,1,485,850,235
231751301,35629,-0.0435,-0.0464,1.0205,1.4038,1.6479,0.7935,1,471,843,235
231756306,35630,-0.0420,-0.0469,1.0220,1.5259,1.7090,0.7935,1,493,848,235
231761309,35631,-0.0386,-0.0459,1.0244,1.4648,1.8311,0.6714,1,466,870,235
231766308,35632,-0.0366,-0.0459,1.0264,1.5869,2.0752,0.7324,1,466,877,235
231771301,35633,-0.0381,-0.0459,1.0234,1.7090,2.0142,0.7935,1,466,880,235
231776307,35634,-0.0405,-0.0449,1.0200,1.7700,2.0142,0.7935,1,466,874,235
231781312,35635,-0.0391,-0.0459,1.0200,1.6479,2.0752,0.6714,1,466,873,235
231786309,35636,-0.0356,-0.0488,1.0215,1.9531,2.5024,0.7324,1,466,872,235
231791302,35637,-0.0366,-0.0479,1.0229,2.0142,2.7466,0.8545,1,484,885,235
231796301,35638,-0.0366,-0.0464,1.0239,1.9531,2.9297,0.9155,1,467,868,235
231801302,35639,-0.0361,-0.0459,1.0229,2.0142,3.1738,0.9155,1,484,874,235
231806306,35640,-0.0361,-0.0464,1.0210,1.9531,3.1738,1.0376,1,474,911,235
231811301,35641,-0.0352,-0.0464,1.0220,2.1362,3.6621,1.0986,1,472,869,235
231816302,35642,-0.0347,-0.0415,1.0234,2.3804,3.9673,1.2207,1,500,873,235
231821303,35643,-0.0366,-0.0356,1.0244,2.1362,4.3335,1.1597,1,480,879,235
231826305,35644,-0.0381,-0.0361,1.0229,1.9531,4.5166,1.2817,1,505,840,235
231831310,35645,-0.0405,-0.0386,1.0210,1.8921,4.6387,1.2817,1,485,813,235
231836304,35646,-0.0405,-0.0425,1.0234,1.7700,4.4556,1.3428,1,494,839,235
231841304,35647,-0.0361,-0.0474,1.0278,1.8311,4.6997,1.3428,1,481,849,235
231846302,35648,-0.0361,-0.0498,1.0273,2.0752,5.3101,1.2817,1,492,855,235
231851306,35649,-0.0439,-0.0464,1.0210,2.1973,5.2490,1.2207,1,481,853,235
231856309,35650,-0.0532,-0.0400,1.0137,2.3193,4.9438,1.0376,1,485,851,235
231861305,35651,-0.0532,-0.0381,1.0127,2.3804,4.3945,0.9766,1,492,854,235
231866310,35652,-0.0483,-0.0435,1.0166,2.3193,4.2114,0.7324,1,465,876,235
231871302,35653,-0.0449,-0.0449,1.0205,2.8687,4.3945,0.7324,1,466,888,235
231876309,35654,-0.0420,-0.0400,1.0244,2.8687,4.4556,0.4883,1,466,886,235
231881301,35655,-0.0415,-0.0371,1.0249,2.7466,4.8218,0.1221,1,466,879,235
231886301,35656,-0.0454,-0.0386,1.0205,2.8076,4.7607,0.1831,1,466,881,235
231891304,35657,-0.0503,-0.0405,1.0156,2.9907,4.6387,0.1831,1,466,883,235
231896305,35658,-0.0532,-0.0386,1.0151,2.9297,4.5776,0.3052,1,483,880,235
231901303,35659,-0.0532,-0.0342,1.0190,2.5635,4.2114,0.1831,1,466,880,235
231906304,35660,-0.0518,-0.0288,1.0239,2.3804,4.0894,0.1221,1,484,875,235
231911302,35661,-0.0503,-0.0273,1.0273,2.0752,3.7231,0.2441,1,466,903,235
231916331,35662,-0.0483,-0.0308,1.0283,1.5869,3.7842,0.1221,1,482,922,235
231921306,35663,-0.0449,-0.0332,1.0288,1.4648,3.9062,0.1221,1,478,867,235
231926302,35664,-0.0430,-0.0337,1.0298,1.2207,3.8452,0.2441,1,503,873,235
231931301,35665,-0.0449,-0.0342,1.0293,1.0376,4.2114,0.1831,1,506,879,235
231936302,35666,-0.0503,-0.0337,1.0269,0.9155,4.2114,0.1831,1,470,787,235
231941301,35667,-0.0552,-0.0361,1.0254,0.5493,3.7842,0.1831,1,488,842,235
231946303,35668,-0.0562,-0.0405,1.0239,0.7324,3.3569,0.3052,1,504,835,235
231951310,35669,-0.0562,-0.0396,1.0229,0.7324,3.1128,0.1831,1,491,850,235
231956306,35670,-0.0562,-0.0352,1.0220,0.4272,2.8687,0.1221,1,490,872,235
231961307,35671,-0.0552,-0.0332,1.0210,0.3662,2.6855,0.0000,1,479,845,235
231966302,35672,-0.0518,-0.0347,1.0220,0.2441,2.4414,-0.0610,1,480,807,235
231971301,35673,-0.0513,-0.0366,1.0195,0.1221,2.6855,-0.1831,1,493,849,235
231976310,35674,-0.0581,-0.0376,1.0142,0.1221,2.5635,-0.2441,1,466,881,235
231981309,35675,-0.0640,-0.0396,1.0103,0.0610,1.8311,-0.2441,1,466,877,235
231986304,35676,-0.0615,-0.0410,1.0122,0.4883,1.4648,-0.3052,1,466,872,235
231991304,35677,-0.0566,-0.0405,1.0171,0.5493,1.6479,-0.3662,1,466,879,235
231996308,35678,-0.0552,-0.0420,1.0166,0.6714,1.5869,-0.1831,1,466,882,235
232001301,35679,-0.0581,-0.0420,1.0117,0.7935,1.4038,-0.2441,1,466,881,235
232006306,35680,-0.0605,-0.0400,1.0073,0.8545,1.1597,-0.3662,1,483,882,235
232011302,35681,-0.0571,-0.0430,1.0068,1.0376,1.0376,-0.3662,1,465,865,235
232016309,35682,-0.0537,-0.0474,1.0112,1.4038,1.0986,-0.3662,1,484,866,235
232021304,35683,-0.0542,-0.0483,1.0151,1.7090,1.2817,-0.4272,1,466,910,235
232026309,35684,-0.0571,-0.0488,1.0166,2.1362,1.2207,-0.4272,1,467,871,235
232031303,35685,-0.0571,-0.0488,1.0171,2.4414,0.9155,-0.2441,1,479,876,235
232036306,35686,-0.0542,-0.0464,1.0156,2.9297,1.0376,-0.1831,1,467,882,235
232041309,35687,-0.0513,-0.0430,1.0151,3.1128,1.0986,-0.3662,1,510,875,235
232046305,35688,-0.0503,-0.0444,1.0156,3.2959,1.1597,-0.4883,1,508,807,235
232051304,35689,-0.0557,-0.0552,1.0059,4.5166,1.4038,-0.4272,1,488,841,235
232056302,35690,-0.0605,-0.0557,1.0000,5.2490,1.2817,-0.5493,1,471,832,235
232061301,35691,-0.0615,-0.0542,1.0000,5.8594,0.7324,-0.6714,1,481,849,235
232066309,35692,-0.0566,-0.0498,1.0068,6.4697,0.7935,-0.6714,1,487,865,235
232071309,35693,-0.0513,-0.0425,1.0137,6.8970,1.0376,-0.6714,1,484,854,235
232076301,35694,-0.0522,-0.0371,1.0132,7.1411,0.9766,-0.7324,1,485,846,235
232081309,35695,-0.0571,-0.0356,1.0078,7.2021,0.8545,-0.7935,1,493,854,235
232086303,35696,-0.0610,-0.0366,1.0054,7.3242,0.6714,-0.6104,1,466,881,235
232091303,35697,-0.0601,-0.0356,1.0078,7.5684,0.2441,-0.6104,1,466,878,235
232096309,35698,-0.0601,-0.0317,1.0093,7.8735,0.4883,-0.7935,1,465,876,235
232101305,35699,-0.0610,-0.0293,1.0063,7.8125,-0.0610,-0.8545,1,466,876,235
232106312,35700,-0.0571,-0.0303,1.0054,7.8125,-0.3662,-0.7935,1,466,876,235
232111305,35701,-0.0503,-0.0347,1.0112,8.0566,-0.3052,-0.8545,1,466,877,235
232116308,35702,-0.0454,-0.0371,1.0181,8.5449,0.2441,-0.8545,1,483,874,235
232121302,35703,-0.0469,-0.0312,1.0186,8.7280,0.6104,-0.9155,1,467,872,235
232126309,35704,-0.0522,-0.0278,1.0151,8.5449,0.6104,-0.8545,1,466,843,235
232131316,35705,-0.0576,-0.0278,1.0112,8.6670,0.4272,-0.8545,1,478,909,235
232136301,35706,-0.0601,-0.0225,1.0112,8.6060,0.3052,-1.0376,1,476,874,235
232141302,35707,-0.0581,-0.0142,1.0151,8.2397,0.1221,-1.0376,1,497,865,235
232146309,35708,-0.0547,-0.0088,1.0190,7.8125,0.3662,-0.9155,1,478,876,235
232151307,35709,-0.0562,-0.0073,1.0181,7.3853,0.4272,-1.0986,1,493,754,235
232156304,35710,-0.0625,-0.0112,1.0132,7.0801,0.0000,-1.2207,1,472,839,235
232161310,35711,-0.0688,-0.0156,1.0078,6.9580,-0.5493,-1.3428,1,501,779,235
232166308,35712,-0.0698,-0.0176,1.0073,6.8359,-1.3428,-1.4038,1,486,854,235
232171305,35713,-0.0649,-0.0190,1.0093,6.8359,-1.6479,-1.5259,1,474,855,235
232176303,35714,-0.0669,-0.0186,1.0059,7.0801,-2.0142,-1.7090,1,478,855,235
232181304,35715,-0.0718,-0.0166,0.9990,7.0190,-2.9907,-1.8921,1,488,837,235
232186301,35716,-0.0723,-0.0142,0.9980,6.8359,-3.8452,-2.0752,1,493,849,235
232191305,35717,-0.0698,-0.0112,1.0029,6.7749,-4.6997,-1.8921,1,466,883,235
232196305,35718,-0.0649,-0.0103,1.0078,6.4697,-5.4321,-2.0142,1,466,886,235
232201301,35719,-0.0615,-0.0156,1.0107,6.4697,-6.1035,-2.1973,1,466,883,235
232206305,35720,-0.0625,-0.0205,1.0132,6.8359,-6.9580,-2.3804,1,466,889,235
232211313,35721,-0.0645,-0.0142,1.0171,6.7139,-7.9346,-2.3804,1,466,881,235
232216302,35722,-0.0659,-0.0039,1.0195,6.2256,-9.0942,-2.5635,1,466,874,235
232221303,35723,-0.0649,-0.0029,1.0205,5.6152,-10.3149,-2.9297,1,484,884,235
232226301,35724,-0.0605,-0.0039,1.0220,5.3711,-11.4746,-3.2349,1,478,900,235
232231310,35725,-0.0596,-0.0010,1.0176,5.1880,-12.2070,-3.6621,1,465,839,235
232236331,35726,-0.0640,-0.0024,1.0083,4.8218,-12.9395,-4.2114,1,482,891,235
232241301,35727,-0.0718,-0.0044,1.0010,4.8828,-14.0381,-4.7607,1,470,943,235
232246305,35728,-0.0776,-0.0020,0.9990,4.8218,-15.5640,-5.2490,1,508,876,235
232251306,35729,-0.0732,0.0000,1.0020,4.6387,-16.7847,-5.7373,1,486,894,235
232256307,35730,-0.0605,-0.0044,1.0098,4.5776,-17.5781,-6.4697,1,510,726,235
232261305,35731,-0.0537,-0.0078,1.0117,4.8828,-17.3950,-7.2021,1,489,853,235
232266309,35732,-0.0649,-0.0029,1.0059,4.8828,-17.6392,-7.8125,1,494,850,235
232271301,35733,-0.0811,0.0000,1.0005,4.3945,-19.2261,-8.3008,1,485,861,235
232276307,35734,-0.0957,-0.0034,0.9966,4.2725,-20.7520,-8.9111,1,471,807,235
232281306,35735,-0.1157,-0.0059,0.9878,4.3335,-23.8037,-9.2773,1,476,868,235
232286307,35736,-0.1333,-0.0015,0.9795,3.7231,-27.6489,-9.3384,1,482,871,235
232291307,35737,-0.1299,0.0103,0.9829,2.4414,-32.1045,-8.7891,1,493,874,235
232296309,35738,-0.1064,0.0220,0.9937,1.4648,-35.2783,-8.7891,1,466,891,235
232301306,35739,-0.0757,0.0234,1.0078,-0.1221,-37.7197,-9.0942,1,466,895,235
232306309,35740,-0.0454,0.0161,1.0278,-1.4038,-39.6118,-8.9722,1,466,890,235
232311305,35741,-0.0200,0.0122,1.0449,-2.3193,-40.6494,-8.7891,1,466,902,235
232316325,35742,-0.0039,0.0137,1.0527,-3.6011,-40.8325,-8.7891,1,466,902,235
232321308,35743,0.0000,0.0132,1.0537,-4.5776,-41.5649,-8.6670,1,466,893,235
232326308,35744,-0.0107,0.0112,1.0435,-5.1270,-42.1143,-8.6060,1,465,860,235
232331304,35745,-0.0322,0.0078,1.0273,-5.6763,-43.2739,-8.5449,1,478,898,235
232336309,35746,-0.0444,0.0005,1.0210,-5.8594,-45.2270,-8.3618,1,466,849,235
232341308,35747,-0.0391,-0.0103,1.0293,-5.7373,-47.0581,-7.8735,1,482,892,235
232346309,35748,-0.0308,-0.0200,1.0386,-5.1880,-47.4243,-7.2632,1,465,889,235
232351305,35749,-0.0342,-0.0205,1.0430,-4.7607,-48.5229,-6.4087,1,481,886,235
232356306,35750,-0.0356,-0.0098,1.0493,-4.4556,-50.9644,-5.4321,1,471,896,235
232361306,35751,-0.0142,0.0039,1.0620,-4.7607,-53.1006,-4.8218,1,495,895,235
232366303,35752,0.0156,0.0073,1.0703,-5.4932,-54.2603,-4.4556,1,471,855,235
232371305,35753,0.0269,0.0049,1.0718,-5.7983,-54.3823,-4.5776,1,501,820,235
232376301,35754,0.0293,0.0063,1.0708,-6.7749,-56.8848,-3.9062,1,476,870,235
232381308,35755,0.0098,0.0103,1.0654,-7.3242,-56.0913,-3.4180,1,488,870,235
232386308,35756,-0.0356,0.0161,1.0669,-9.2773,-61.0962,-2.5024,1,490,889,235
232391301,35757,-0.0688,0.0137,1.0693,-11.5967,-70.2515,-1.7090,1,473,875,235
232396301,35758,-0.0845,0.0088,1.0674,-13.4888,-78.2471,-1.9531,1,493,880,235
232401309,35759,-0.0864,0.0063,1.0635,-15.9912,-87.6465,-1.9531,1,466,903,235
232406303,35760,-0.0942,0.0073,1.0649,-17.8833,-97.2900,-2.6855,1,466,918,235
232411309,35761,-0.1313,0.0107,1.0737,-20.0195,-109.9853,-4.5776,1,466,915,235
232416309,35762,-0.1997,0.0142,1.0825,-22.7051,-126.0376,-6.4697,1,466,923,235
232421309,35763,-0.2822,0.0249,1.0957,-25.9399,-145.4468,-8.6670,1,466,925,235
232426302,35764,-0.3540,0.0337,1.1162,-30.0903,-170.3491,-10.4370,1,466,926,235
232431301,35765,-0.4468,0.0503,1.1562,-34.6680,-196.0449,-13.0615,1,483,943,235
232436309,35766,-0.5308,0.0718,1.2129,-40.9546,-235.0464,-15.1978,1,466,965,235
232441301,35767,-0.6206,0.1016,1.2856,-49.4385,-274.1089,-18.5547,1,484,934,235
232446308,35768,-0.7568,0.1582,1.3916,-62.3169,-319.5801,-21.4233,1,465,869,235
232451308,35769,-0.8452,0.2119,1.5073,-75.8667,-369.9341,-22.5220,1,472,882,235
232456309,35770,-0.7930,0.2075,1.5874,-88.8672,-416.6870,-24.4751,1,473,966,235
232461306,35771,-0.6362,0.1313,1.6338,-102.5391,-456.5429,-26.7944,1,495,998,235
232466304,35772,-0.5317,0.0986,1.6929,-110.9009,-487.4878,-29.4800,1,478,944,235
232471301,35773,-0.6289,0.1523,1.7666,-120.9106,-511.9629,-32.3486,1,501,935,235
232476301,35774,-0.8296,0.1777,1.7676,-133.9111,-550.8423,-35.8887,1,504,902,235
232481302,35775,-0.8672,0.1113,1.6372,-140.2588,-592.2852,-38.3911,1,505,809,235
232486307,35776,-0.7515,-0.0562,1.4077,-141.9678,-609.6802,-46.5698,1,492,914,235
232491305,35777,-0.6333,-0.2158,1.1440,-140.1978,-627.3193,-63.5986,1,473,904,235
232496306,35778,-0.5620,-0.2920,0.9087,-134.9487,-653.0151,-74.9512,1,481,916,235
232501308,35779,-0.5464,-0.3774,0.6992,-119.8730,-679.6264,-82.5806,1,483,924,235
232506308,35780,-0.5352,-0.4717,0.4893,-95.3369,-710.7543,-88.9282,1,492,926,235
232511303,35781,-0.4609,-0.4810,0.3140,-73.4253,-742.8588,-95.4590,1,493,919,235
232516303,35782,-0.3174,-0.2920,0.2534,-66.4062,-778.9306,-103.1494,1,466,939,235
232521307,35783,0.1934,0.0854,0.5249,-79.7729,-820.2514,-100.8911,1,466,979,235
232526308,35784,1.7168,-0.0508,1.5132,-117.3706,-837.2192,-81.4209,1,466,946,235
232531304,35785,3.8384,-1.2363,3.0498,-123.1079,-695.3735,-76.2329,1,466,939,235
232536325,35786,4.1274,-2.0923,4.4951,-59.4482,-321.5332,-100.0976,1,466,955,235
232541303,35787,2.1069,-1.5576,5.2476,-35.5835,-138.4888,-94.7876,1,466,957,235
232546303,35788,0.1860,-0.6870,5.0996,-54.8096,-101.8677,-81.1157,1,484,938,235
232551302,35789,-0.5249,-0.4009,4.4482,-55.0537,-25.6958,-85.9375,1,475,945,235
232556305,35790,-0.4893,-0.5815,3.7017,-44.1894,53.0395,-82.7026,1,466,929,235
232561307,35791,-0.3613,-0.7959,2.9980,-29.1748,119.6289,-72.4487,1,479,932,235
232566303,35792,-0.4497,-0.8008,2.3247,-20.8740,168.2739,-62.8052,1,480,944,235
232571307,35793,-0.6694,-0.6353,1.6860,-11.1694,192.5049,-54.5654,1,507,971,235
232576308,35794,-0.8711,-0.4146,1.1240,-2.3193,201.9043,-50.2930,1,480,937,235
232581306,35795,-1.0112,-0.2368,0.7046,0.2441,199.4629,-49.1333,1,484,917,235
232586307,35796,-1.0693,-0.1387,0.4712,2.1973,184.3872,-48.5229,1,465,832,235
232591303,35797,-1.0142,-0.0986,0.4136,1.8921,165.5884,-48.2788,1,494,834,235
232596309,35798,-0.8560,-0.0864,0.4810,-0.7935,152.8931,-48.4619,1,486,874,235
232601307,35799,-0.6709,-0.0786,0.6118,-3.8452,150.5737,-48.2788,1,492,885,235
232606307,35800,-0.5347,-0.0664,0.7646,-8.1787,154.0527,-48.4619,1,478,916,235
232611306,35801,-0.4546,-0.0664,0.9219,-12.8174,159.7900,-48.5840,1,476,897,235
232616307,35802,-0.3965,-0.0923,1.0815,-16.1133,168.1518,-47.3633,1,482,907,235
232621302,35803,-0.3296,-0.1421,1.2417,-18.3716,179.6264,-45.2270,1,493,908,235
232626305,35804,-0.2480,-0.2056,1.3940,-18.2495,194.5801,-41.7480,1,466,936,235
232631306,35805,-0.1597,-0.2651,1.5205,-15.0757,212.6465,-37.2925,1,466,935,235
232636306,35806,-0.0796,-0.3066,1.6045,-9.7656,233.3984,-32.4707,1,465,940,235
232641302,35807,-0.0244,-0.3242,1.6353,-2.7466,254.6387,-27.1606,1,466,922,235
232646305,35808,0.0049,-0.3149,1.6084,4.5776,274.5361,-21.8506,1,466,929,235
232651304,35809,0.0190,-0.2856,1.5308,10.6201,291.8091,-16.7847,1,465,916,235
232656309,35810,0.0322,-0.2471,1.4243,15.3809,305.9692,-11.7187,1,465,922,235
232661304,35811,0.0532,-0.2026,1.3076,18.6157,316.4062,-7.0190,1,476,939,235
232666308,35812,0.0757,-0.1470,1.1885,20.3247,324.4629,-3.3569,1,466,937,235
232671314,35813,0.0913,-0.0786,1.0786,19.7144,328.9184,-0.9155,1,465,876,235
232676336,35814,0.1113,-0.0103,0.9888,16.6016,329.4067,0.7324,1,483,948,235
232681306,35815,0.1406,0.0435,0.9224,11.5356,327.7588,1.7090,1,482,899,235
232686303,35816,0.1704,0.0781,0.8789,5.2490,324.7070,2.0752,1,472,909,235
232691309,35817,0.1890,0.1001,0.8555,-1.9531,320.7397,2.1362,1,502,857,235
232696308,35818,0.1948,0.1094,0.8555,-10.0708,316.2231,2.4414,1,471,821,235
232701308,35819,0.1973,0.1035,0.8838,-17.7002,311.5845,3.4790,1,491,877,235
232706307,35820,0.1982,0.0815,0.9395,-24.2920,306.7627,4.9438,1,480,875,235
232711307,35821,0.2026,0.0493,1.0205,-29.0527,302.1240,7.2632,1,480,889,235
232716307,35822,0.2163,0.0146,1.1221,-31.7383,298.8892,10.4980,1,489,887,235
232721307,35823,0.2358,-0.0166,1.2339,-33.0811,297.4854,14.6484,1,474,906,235
232726304,35824,0.2524,-0.0439,1.3501,-33.4473,297.1802,19.4092,1,493,903,235
232731301,35825,0.2646,-0.0645,1.4678,-32.9590,298.0347,24.5361,1,466,913,235
232736306,35826,0.2866,-0.0742,1.5830,-32.1045,300.1709,29.8462,1,466,929,235
232741309,35827,0.3213,-0.0728,1.6899,-31.7383,304.3213,35.0952,1,466,923,235
232746308,35828,0.3560,-0.0630,1.7812,-31.6772,310.4248,40.1611,1,466,928,235
232751305,35829,0.3818,-0.0518,1.8530,-31.9824,317.3828,44.8608,1,466,967,235
232756306,35830,0.4014,-0.0386,1.9033,-32.2266,324.7680,49.2554,1,466,941,235
232761302,35831,0.4146,-0.0171,1.9326,-31.9214,332.3364,52.9175,1,483,933,235
232766307,35832,0.4268,0.0112,1.9468,-31.4941,338.8061,55.9692,1,465,939,235
232771303,35833,0.4468,0.0396,1.9531,-30.7007,344.4824,57.9834,1,485,947,235
232776302,35834,0.4668,0.0688,1.9526,-29.4800,350.0366,58.8379,1,465,924,235
232781303,35835,0.4800,0.1045,1.9453,-28.1372,354.3091,58.3496,1,479,931,235
232786303,35836,0.4941,0.1450,1.9399,-27.4658,356.9336,56.5796,1,479,970,235
232791301,35837,0.5195,0.1865,1.9434,-27.0996,358.5815,53.3447,1,505,990,235
232796301,35838,0.5542,0.2192,1.9546,-27.4658,359.4970,48.8281,1,488,939,235
232801305,35839,0.5894,0.2314,1.9668,-27.8320,359.8022,43.2129,1,493,945,235
232806302,35840,0.6221,0.2168,1.9780,-28.0762,358.9477,37.1704,1,487,925,235
232811302,35841,0.6606,0.1787,1.9937,-28.0762,357.2387,31.0669,1,502,811,235
232816310,35842,0.7134,0.1309,2.0166,-28.4424,354.9194,25.5127,1,492,922,235
232821309,35843,0.7759,0.0864,2.0464,-30.1514,352.4780,20.8130,1,492,914,235
232826307,35844,0.8438,0.0503,2.0830,-33.0200,349.6704,16.8457,1,478,908,235
232831304,35845,0.9165,0.0210,2.1279,-36.9873,347.0459,13.7329,1,484,923,235
232836307,35846,0.9941,-0.0039,2.1855,-42.1143,344.3603,11.2915,1,492,913,235
232841301,35847,1.0903,-0.0308,2.2554,-47.8516,341.2475,9.5825,1,466,945,235
232846301,35848,1.2173,-0.0688,2.3159,-52.9785,339.2944,9.0942,1,466,926,235
232851305,35849,1.3564,-0.1196,2.3340,-56.2744,339.5996,9.8267,1,466,936,235
232856306,35850,1.5649,-0.2324,2.1724,-54.8706,338.1958,13.7329,1,466,936,235
232861306,35851,1.6396,-0.2778,2.0039,-50.8423,332.7026,17.0288,1,466,954,235
232866304,35852,1.7129,-0.3081,1.8027,-45.1050,323.8525,20.9961,1,466,940,235
232871308,35853,1.7861,-0.3232,1.5894,-38.8184,311.7676,25.0244,1,483,941,235
232876309,35854,1.8667,-0.3223,1.3794,-33.1421,297.4243,29.0527,1,466,933,235
232881307,35855,1.9585,-0.3101,1.1782,-28.6865,282.2266,33.0811,1,484,931,235
232886301,35856,2.0479,-0.2837,0.9775,-24.6582,266.6016,36.4990,1,465,868,235
232891318,35857,2.1260,-0.2178,0.7676,-21.4844,249.0234,38.4521,1,467,957,235
232896310,35858,2.2051,-0.1089,0.5508,-21.6064,229.1260,38.5132,1,472,967,235
232901308,35859,2.2935,0.0117,0.3384,-24.7803,207.8857,36.0718,1,505,920,235
232906308,35860,2.3857,0.1152,0.1445,-29.6020,184.9975,31.6772,1,488,929,235
232911307,35861,2.4692,0.1914,-0.0269,-34.9121,160.7666,26.2451,1,492,943,235
232916301,35862,2.5308,0.2383,-0.1821,-39.1846,134.9487,20.0806,1,483,860,235
232921305,35863,2.5615,0.2490,-0.3184,-41.5649,106.9946,14.2822,1,478,861,235
232926307,35864,2.5605,0.2144,-0.4194,-41.3818,77.0874,10.0098,1,480,934,235
232931302,35865,2.5361,0.1372,-0.4678,-37.5977,44.9219,8.2397,1,488,896,235
232936302,35866,2.5010,0.0264,-0.4531,-29.6631,11.9629,9.3994,1,478,893,235
232941304,35867,2.4570,-0.1006,-0.3818,-17.2119,-20.2637,13.3057,1,483,890,235
232946305,35868,2.3931,-0.2061,-0.2725,-1.7700,-50.4761,19.1650,1,493,899,235
232951307,35869,2.3066,-0.2578,-0.1353,13.3057,-78.1250,25.8789,1,466,902,235
232956304,35870,2.2090,-0.2642,0.0283,24.6582,-103.0273,32.1655,1,466,934,235
232961301,35871,2.1113,-0.2583,0.2129,31.7993,-124.6338,37.4146,1,466,941,235
232966301,35872,2.0078,-0.2734,0.3984,35.1562,-142.3340,41.6260,1,466,946,235
232971322,35873,1.6147,-0.3940,0.4043,35.8276,-156.9824,42.8467,1,466,969,235
232976305,35874,0.1426,-0.0776,0.2139,45.4712,-209.8389,40.2222,1,466,935,235
232981309,35875,-1.5957,0.3584,0.6802,-10.0708,-317.2607,27.5269,1,466,936,235
232986305,35876,-2.1270,-0.1997,1.8711,-70.9839,-306.2134,27.6489,1,475,930,235
232991305,35877,-2.0000,-1.2754,2.5034,-49.7436,-205.0171,33.4473,1,465,922,235
232996303,35878,-1.6973,-2.0015,2.0503,-13.2446,-190.9180,41.6870,1,482,923,235
233001308,35879,-0.9775,-1.9370,0.9482,47.0581,-228.5156,58.1055,1,465,969,235
233006304,35880,-0.2036,-0.9624,-0.2046,87.5244,-250.9155,58.3496,1,506,977,235
233011303,35881,0.1538,0.3208,-1.0122,73.3643,-279.6631,55.6641,1,469,937,235
233016306,35882,0.1094,1.0649,-1.2310,36.2549,-311.5845,52.2461,1,494,927,235
233021305,35883,-0.0913,1.0029,-0.6260,-3.4180,-350.0976,45.7764,1,469,800,235
233026302,35884,-0.0342,0.5747,0.7090,-23.5596,-388.7329,48.4009,1,494,801,235
233031303,35885,0.4331,0.3599,2.1919,-29.6631,-383.4839,53.7109,1,485,916,235
233036303,35886,0.9771,0.5552,3.1411,-26.9775,-340.5151,49.9878,1,491,915,235
233041307,35887,1.2700,0.9414,3.2686,-17.7612,-289.8560,35.1562,1,476,915,235
233046306,35888,1.2007,1.2378,2.8037,-9.9487,-243.8965,13.5498,1,490,934,235
233051301,35889,0.8750,1.3223,2.2148,-9.7656,-215.2710,-6.6528,1,468,903,235
233056301,35890,0.5605,1.1685,1.8652,-16.7847,-201.9043,-22.8271,1,493,887,235
233061304,35891,0.4170,0.8047,1.8101,-27.7710,-189.0259,-34.7900,1,466,937,235
233066305,35892,0.3857,0.3311,1.8608,-38.0859,-173.7060,-40.1611,1,465,927,235
233071308,35893,0.2632,-0.3105,1.8940,-46.9971,-159.4849,-38.3301,1,466,935,235
233076307,35894,0.0923,-1.2280,2.2402,-31.7993,-145.6299,-22.0947,1,466,924,235
233081313,35895,0.3228,-1.8018,2.7993,29.7241,-145.4468,-2.3193,1,466,940,235
233086302,35896,0.8369,-1.6934,2.9897,46.7529,-108.2153,12.4512,1,466,927,235
233091301,35897,1.0557,-1.2632,2.6987,46.8140,-64.9414,23.8647,1,483,953,235
233096307,35898,0.8096,-0.6338,2.0967,72.5708,-33.5693,25.2686,1,466,940,235
233101303,35899,0.3354,-0.0073,1.5049,80.3833,-23.3154,21.6675,1,484,924,235
233106303,35900,-0.0269,0.3311,1.1938,70.4956,-18.8599,14.7095,1,466,923,235
233111309,35901,-0.1284,0.3135,1.1812,64.2090,-19.4092,10.4980,1,467,948,235
233116301,35902,-0.0156,0.0752,1.2998,60.2417,-17.0898,7.5073,1,480,974,235
233121303,35903,0.1411,-0.1836,1.3965,59.9976,-9.7046,6.2866,1,491,900,235
233126302,35904,0.1899,-0.3022,1.3960,63.2324,-1.7700,6.9580,1,467,858,235
233131308,35905,0.1138,-0.2295,1.3091,65.3687,2.3804,7.2021,1,511,859,235
233136305,35906,0.0088,-0.0483,1.2227,63.3545,2.5024,6.2256,1,480,824,235
233141304,35907,-0.0449,0.1055,1.2017,57.9224,1.5869,4.4556,1,494,830,235
233146306,35908,-0.0361,0.1597,1.2271,50.5371,1.7700,2.6855,1,474,870,235
233151307,35909,-0.0034,0.1221,1.2437,43.3350,2.3804,1.6479,1,481,874,235
233156301,35910,0.0112,0.0469,1.2153,37.7808,3.1128,1.2817,1,486,888,235
233161307,35911,-0.0132,-0.0010,1.1465,34.4238,3.6621,0.9766,1,476,864,235
233166309,35912,-0.0620,-0.0020,1.0679,31.6162,2.0142,0.6714,1,491,857,235
233171308,35913,-0.0933,0.0034,1.0010,28.9307,0.2441,-0.1831,1,466,862,235
233176308,35914,-0.1035,-0.0186,0.9604,28.3813,1.4038,-1.3428,1,466,887,235
233181305,35915,-0.1055,-0.0737,0.9478,28.7476,0.4883,-1.5259,1,466,903,235
233186303,35916,-0.1001,-0.1113,0.9507,30.2124,-1.6479,-0.5493,1,466,895,235
233191304,35917,-0.0854,-0.0796,0.9727,31.1890,-2.6245,0.0610,1,466,899,235
233196304,35918,-0.0625,-0.0186,1.0146,29.1138,-2.3804,0.0610,1,465,898,235
233201304,35919,-0.0454,0.0103,1.0508,25.8789,-1.4038,0.1221,1,483,893,235
233206303,35920,-0.0439,-0.0039,1.0571,23.7427,-0.9155,0.3052,1,466,892,235
233211304,35921,-0.0527,-0.0312,1.0410,22.2168,-0.9155,0.4883,1,484,884,235
233216310,35922,-0.0596,-0.0435,1.0293,21.5454,-1.2817,0.4883,1,465,912,235
233221308,35923,-0.0576,-0.0439,1.0264,20.9961,-1.3428,-0.0610,1,477,925,235
233226305,35924,-0.0552,-0.0542,1.0205,20.9351,-1.0376,-0.7324,1,482,884,235
233231309,35925,-0.0586,-0.0659,1.0151,21.3623,-0.9766,-0.9766,1,492,888,235
233236310,35926,-0.0640,-0.0542,1.0176,21.9727,-1.4648,-1.0376,1,467,895,235
233241301,35927,-0.0640,-0.0151,1.0278,21.4233,-1.8311,-1.1597,1,493,875,235
233246308,35928,-0.0591,0.0215,1.0405,19.6533,-1.9531,-1.4038,1,482,777,235
233251308,35929,-0.0552,0.0308,1.0464,17.4561,-2.0142,-1.4648,1,500,854,235
233256304,35930,-0.0552,0.0210,1.0425,15.9912,-2.5024,-1.2207,1,491,855,235
233261301,35931,-0.0566,0.0142,1.0342,14.7705,-3.1738,-0.9766,1,483,869,235
233266301,35932,-0.0591,0.0137,1.0269,13.3667,-3.5400,-0.8545,1,474,871,235
233271310,35933,-0.0635,0.0117,1.0215,12.1460,-4.2114,-0.7935,1,476,863,235
233276307,35934,-0.0645,0.0024,1.0166,11.3525,-5.2490,-0.6714,1,493,869,235
233281309,35935,-0.0625,-0.0107,1.0112,11.2305,-5.9204,-0.6714,1,466,870,235
233286307,35936,-0.0635,-0.0200,1.0068,11.4136,-6.7139,-0.5493,1,466,896,235
233291304,35937,-0.0679,-0.0229,1.0029,11.6577,-7.6294,-0.6714,1,465,899,235
233296308,35938,-0.0728,-0.0234,1.0024,12.0850,-8.4839,-0.9155,1,465,901,235
233301315,35939,-0.0674,-0.0249,1.0117,12.3901,-9.8267,-1.2817,1,466,897,235
233306304,35940,-0.0513,-0.0278,1.0264,12.8784,-10.2539,-1.4648,1,466,905,235
233311301,35941,-0.0381,-0.0298,1.0352,13.3667,-9.8877,-1.7090,1,484,923,235
233316306,35942,-0.0371,-0.0283,1.0361,13.7329,-9.7046,-1.8921,1,475,892,235
233321305,35943,-0.0425,-0.0205,1.0342,13.7939,-9.9487,-2.0752,1,484,891,235
233326307,35944,-0.0459,-0.0098,1.0332,13.6719,-10.2539,-2.1973,1,476,900,235
233331332,35945,-0.0464,-0.0020,1.0298,13.3667,-10.8032,-2.4414,1,476,941,235
233336302,35946,-0.0449,0.0015,1.0259,12.8784,-10.7422,-2.6245,1,474,901,235
233341304,35947,-0.0449,0.0068,1.0259,12.2070,-10.6201,-2.8687,1,480,911,235
233346307,35948,-0.0449,0.0186,1.0298,11.3525,-11.0474,-2.8076,1,503,903,235
233351304,35949,-0.0430,0.0249,1.0342,9.8877,-11.3525,-2.9297,1,502,915,235
233356309,35950,-0.0420,0.0229,1.0342,8.7891,-11.7187,-2.9297,1,492,808,235
233361306,35951,-0.0425,0.0190,1.0327,8.1177,-12.0239,-2.9907,1,478,851,235
233366304,35952,-0.0386,0.0142,1.0347,7.2632,-12.0850,-3.1738,1,486,873,235
233371307,35953,-0.0352,0.0127,1.0361,6.5918,-12.1460,-3.2349,1,474,870,235
233376306,35954,-0.0371,0.0151,1.0356,5.9814,-12.8784,-2.9907,1,481,870,235
233381302,35955,-0.0405,0.0166,1.0337,5.0659,-13.5498,-2.8687,1,477,882,235
233386302,35956,-0.0439,0.0146,1.0303,4.3335,-14.4653,-2.8687,1,493,874,235
233391301,35957,-0.0464,0.0127,1.0264,3.9062,-15.5640,-2.9297,1,466,902,235
233396306,35958,-0.0449,0.0107,1.0254,3.6011,-16.5405,-2.9297,1,465,899,235
233401305,35959,-0.0405,0.0073,1.0269,3.2349,-17.5171,-2.9907,1,466,888,235
233406306,35960,-0.0376,0.0054,1.0278,3.0518,-18.0664,-3.1128,1,466,889,235
233411323,35961,-0.0366,0.0078,1.0264,2.8076,-19.1040,-3.2349,1,466,887,235
233416308,35962,-0.0366,0.0117,1.0239,2.5635,-20.0195,-3.2959,1,465,891,235
233421308,35963,-0.0356,0.0137,1.0254,2.0142,-20.6299,-3.4790,1,484,892,235
233426301,35964,-0.0308,0.0142,1.0288,1.2207,-20.9351,-3.8452,1,475,894,235
233431301,35965,-0.0239,0.0127,1.0312,0.6104,-20.9351,-4.1504,1,465,838,235
233436303,35966,-0.0215,0.0151,1.0312,0.0000,-20.8130,-4.2114,1,472,915,235
233441303,35967,-0.0215,0.0176,1.0278,-1.0986,-20.7520,-4.5166,1,472,870,235
233446306,35968,-0.0200,0.0142,1.0259,-2.0752,-20.8130,-4.6997,1,499,889,235
233451308,35969,-0.0181,0.0098,1.0244,-2.8687,-20.3857,-4.9438,1,503,885,235
233456309,35970,-0.0190,0.0098,1.0220,-3.7231,-19.5312,-5.3101,1,502,893,235
233461301,35971,-0.0200,0.0093,1.0186,-4.5166,-18.8599,-5.6152,1,479,796,235
233466301,35972,-0.0166,0.0039,1.0186,-5.0049,-18.0054,-5.7983,1,508,852,235
233471301,35973,-0.0156,0.0000,1.0186,-5.2490,-17.0898,-6.0425,1,477,855,235
233476302,35974,-0.0244,0.0020,1.0146,-5.5542,-16.5405,-6.2866,1,485,840,235
233481304,35975,-0.0347,0.0024,1.0112,-5.8594,-17.3340,-6.4087,1,486,892,235
233486303,35976,-0.0415,0.0015,1.0083,-5.8594,-18.1274,-6.6528,1,473,861,235
233491310,35977,-0.0464,0.0005,1.0044,-6.1646,-19.0430,-7.0190,1,492,864,235
233496302,35978,-0.0439,-0.0049,1.0024,-6.0425,-20.4468,-7.2632,1,466,848,235
233501301,35979,-0.0415,-0.0063,1.0039,-5.7373,-21.3623,-7.5684,1,466,893,235
233506308,35980,-0.0464,0.0015,1.0059,-5.8594,-23.2544,-7.8735,1,466,904,235
233511308,35981,-0.0537,0.0083,1.0063,-6.4697,-25.6348,-8.1787,1,466,893,235
233516301,35982,-0.0542,0.0083,1.0093,-6.9580,-29.0527,-8.5449,1,465,905,235
233521301,35983,-0.0420,0.0010,1.0142,-7.2632,-31.4941,-9.0332,1,466,900,235
233526304,35984,-0.0220,-0.0073,1.0186,-7.2021,-33.3252,-9.5215,1,466,893,235
233531302,35985,-0.0059,-0.0132,1.0215,-6.8359,-34.1797,-9.8267,1,483,879,235
233536309,35986,0.0015,-0.0156,1.0273,-6.8359,-35.2783,-10.1929,1,465,838,235
233541307,35987,0.0073,-0.0142,1.0342,-6.5308,-37.1094,-10.3760,1,482,859,235
233546320,35988,0.0137,-0.0122,1.0381,-6.6528,-38.8794,-10.3149,1,467,889,235
233551302,35989,0.0210,-0.0161,1.0396,-6.8359,-40.7104,-10.6201,1,479,900,235
233556310,35990,0.0244,-0.0225,1.0396,-5.9814,-41.8091,-10.7422,1,498,913,235
233561303,35991,0.0254,-0.0264,1.0396,-4.8218,-42.7246,-10.4370,1,493,865,235
233566306,35992,0.0264,-0.0254,1.0396,-3.7842,-43.2129,-10.5591,1,475,822,235
233571309,35993,0.0269,-0.0225,1.0420,-2.8687,-43.8232,-10.6812,1,496,843,235
233576308,35994,0.0288,-0.0210,1.0449,-2.0752,-44.3726,-10.8032,1,483,893,235
233581307,35995,0.0264,-0.0210,1.0469,-1.3428,-45.3491,-10.4980,1,483,885,235
233586302,35996,0.0278,-0.0234,1.0498,-0.7935,-47.3022,-10.5591,1,490,886,235
233591304,35997,0.0366,-0.0210,1.0537,0.0000,-48.4009,-11.0474,1,481,887,235
233596305,35998,0.0498,-0.0132,1.0571,-0.0610,-49.8047,-11.4746,1,481,836,235
233601306,35999,0.0654,-0.0122,1.0591,-0.1221,-50.5981,-12.2070,1,493,888,235
233606310,36000,0.0752,-0.0083,1.0601,-0.2441,-51.2085,-12.8174,1,466,912,235
233611303,36001,0.0713,-0.0020,1.0615,-1.3428,-52.4902,-12.8174,1,466,908,235
233616308,36002,0.0513,-0.0005,1.0649,-2.9297,-54.4434,-12.5732,1,466,913,235
233621304,36003,0.0083,0.0039,1.0752,-4.9438,-59.6924,-12.8174,1,465,914,235
233626305,36004,-0.0620,0.0132,1.0918,-8.3008,-73.3032,-14.7095,1,465,915,235
233631307,36005,-0.1631,0.0210,1.0972,-12.9395,-92.1020,-18.4937,1,466,905,235
233636305,36006,-0.3115,0.0298,1.1040,-17.5781,-115.4175,-22.6440,1,466,922,235
233641308,36007,-0.4629,0.0381,1.1274,-23.0713,-146.6064,-26.1841,1,484,937,235
233646303,36008,-0.5747,0.0483,1.1753,-27.0996,-182.6172,-27.4048,1,465,919,235
233651305,36009,-0.6499,0.0679,1.2402,-32.9590,-226.7456,-27.4658,1,474,932,235
233656331,36010,-0.9229,0.1880,1.4111,-54.6875,-327.8198,-29.9072,1,472,967,235
233661304,36011,-1.1748,0.2368,1.5786,-65.1855,-379.7607,-30.7007,1,469,986,235
233666308,36012,-1.3726,0.2148,1.7583,-77.3315,-444.2138,-29.9683,1,475,938,235
233671302,36013,-1.0298,0.2178,1.8418,-86.3647,-507.1411,-25.4517,1,498,946,235
233676310,36014,-0.4531,0.2603,1.8447,-102.0508,-535.0952,-25.3906,1,478,921,235
233681301,36015,-0.5425,0.1895,1.9653,-126.7090,-542.7246,-32.9590,1,499,920,235
233686307,36016,-1.0806,0.0640,2.1143,-127.9907,-613.0371,-30.4565,1,486,871,235
233691307,36017,-1.3340,-0.0273,1.9980,-127.5024,-675.6591,-27.4658,1,490,912,235
233696307,36018,-1.1846,-0.1328,1.6157,-125.0610,-699.2797,-33.9966,1,475,929,235
233701303,36019,-0.9541,-0.2915,1.1631,-115.0513,-726.5014,-47.9126,1,480,944,235
233706310,36020,-0.8032,-0.5557,0.7241,-87.1582,-757.0190,-55.1147,1,487,949,235
233711302,36021,-0.6162,-0.8413,0.2861,-19.4702,-766.5405,-50.3540,1,493,917,235
233716306,36022,-0.3911,-0.9214,-0.0601,45.9595,-768.3105,-41.5649,1,465,939,235
233721302,36023,0.0806,-0.2690,0.0508,71.8994,-813.8427,-40.8936,1,466,939,235
233726302,36024,1.9829,0.5034,1.1021,31.2500,-888.2446,-30.8228,1,466,929,235
233731309,36025,4.7676,-0.1743,2.9731,-16.2354,-711.4257,-33.4473,1,466,942,235
233736301,36026,4.8652,-1.0747,4.6152,44.0063,-254.8828,-85.5713,1,466,941,235
233741301,36027,2.0376,-0.5620,5.0605,77.2705,-88.8672,-88.7451,1,483,953,235
233746307,36028,-0.3613,0.1851,4.3867,31.6162,-85.1440,-87.2803,1,466,935,235
233751304,36029,-1.1025,0.1738,3.3506,8.1177,-21.2402,-101.6235,1,484,943,235
233756306,36030,-0.9272,-0.2065,2.5771,-0.2441,42.4805,-96.4355,1,465,919,235
233761305,36031,-0.6626,-0.4561,2.0928,-4.3945,91.7969,-89.5996,1,472,878,235
233766302,36032,-0.6255,-0.4951,1.6904,-8.3618,129.3335,-85.9375,1,476,975,235
233771306,36033,-0.7393,-0.4609,1.2715,0.6714,151.1230,-81.1768,1,475,913,235
233776308,36034,-0.8652,-0.4453,0.8765,10.6201,164.9780,-77.0264,1,479,905,235
233781306,36035,-0.9482,-0.4800,0.5894,20.0806,169.0674,-71.5942,1,502,926,235
233786308,36036,-0.9570,-0.5342,0.4258,32.1655,162.8418,-63.7207,1,508,930,235
233791302,36037,-0.8950,-0.5688,0.3647,40.1001,156.1890,-55.4810,1,506,843,235
233796301,36038,-0.7900,-0.5630,0.3975,46.2646,150.7568,-46.7529,1,482,896,235
233801302,36039,-0.6523,-0.5220,0.5015,49.6826,149.1089,-37.2314,1,492,911,235
233806304,36040,-0.5146,-0.4712,0.6416,50.6592,155.6396,-29.6020,1,478,904,235
233811309,36041,-0.4141,-0.4297,0.7783,50.6592,165.8935,-23.3765,1,483,931,235
233816309,36042,-0.3413,-0.3979,0.8921,48.7671,177.0019,-18.0664,1,472,912,235
233821308,36043,-0.2632,-0.3760,0.9883,44.1894,189.8804,-13.2446,1,493,906,235
233826301,36044,-0.1694,-0.3647,1.0684,37.9028,205.5054,-8.3008,1,466,944,235
233831302,36045,-0.0791,-0.3613,1.1211,30.9448,223.6328,-3.4180,1,465,916,235
233836307,36046,-0.0156,-0.3604,1.1372,24.5361,241.2720,1.2817,1,466,927,235
233841308,36047,0.0244,-0.3584,1.1118,19.3481,256.7749,5.9814,1,466,929,235
233846305,36048,0.0527,-0.3564,1.0498,15.6250,270.8130,10.4370,1,466,920,235
233851303,36049,0.0742,-0.3496,0.9639,13.6719,282.5317,14.5264,1,483,938,235
233856304,36050,0.0962,-0.3330,0.8711,12.6343,290.8325,18.3716,1,469,940,235
233861304,36051,0.1289,-0.3047,0.7871,11.8408,296.1426,21.9116,1,484,911,235
233866305,36052,0.1689,-0.2607,0.7192,10.6812,299.0723,24.4751,1,475,883,235
233871328,36053,0.1992,-0.1992,0.6748,8.4839,299.4385,26.0010,1,479,930,235
233876305,36054,0.2261,-0.1279,0.6636,4.0283,296.0815,26.5503,1,479,906,235
233881308,36055,0.2729,-0.0654,0.6924,-2.7466,290.7715,26.4893,1,506,905,235
233886306,36056,0.3428,-0.0225,0.7554,-10.6201,287.4146,25.8789,1,482,915,235
233891301,36057,0.4141,0.0015,0.8394,-19.2261,285.9497,24.7803,1,510,885,235
233896307,36058,0.4731,0.0073,0.9302,-27.2827,285.2173,23.4375,1,498,791,235
233901308,36059,0.5249,-0.0093,1.0151,-33.5693,285.2173,22.0947,1,483,874,235
233906305,36060,0.5698,-0.0498,1.0874,-38.0249,286.3770,21.0571,1,487,899,235
233911307,36061,0.5967,-0.1069,1.1455,-40.5884,287.2314,20.8130,1,475,905,235
233916304,36062,0.6157,-0.1699,1.1992,-42.0532,286.4380,22.0337,1,473,909,235
233921306,36063,0.6416,-0.2329,1.2510,-43.1519,285.7056,25.2686,1,485,912,235
233926305,36064,0.6606,-0.2959,1.2983,-44.1284,285.7666,30.0293,1,493,907,235
233931303,36065,0.6641,-0.3589,1.3433,-44.9829,284.7900,36.8042,1,466,939,235
233936304,36066,0.6636,-0.4229,1.3867,-45.1050,283.6914,45.4712,1,466,926,235
233941307,36067,0.6685,-0.4722,1.4375,-44.7998,283.5693,55.5420,1,466,937,235
233946306,36068,0.6992,-0.4819,1.5034,-44.2505,283.2642,66.1011,1,466,943,235
233951307,36069,0.7769,-0.4561,1.5767,-43.9453,283.6914,75.7446,1,466,928,235
233956305,36070,0.8809,-0.4155,1.6313,-43.4570,286.4380,83.8013,1,483,934,235
233961309,36071,0.9756,-0.3765,1.6489,-43.0298,290.2222,90.5762,1,466,936,235
233966308,36072,1.0410,-0.3423,1.6328,-42.0532,293.0298,96.0083,1,484,930,235
233971301,36073,1.0830,-0.3037,1.5967,-40.3442,293.2129,99.9756,1,466,874,235
233976320,36074,1.1177,-0.2559,1.5522,-38.3301,291.5039,102.2949,1,475,934,235
233981310,36075,1.1523,-0.1987,1.5107,-36.4380,288.6963,102.8442,1,481,972,235
233986305,36076,1.1851,-0.1377,1.4790,-35.3394,284.8511,101.8677,1,471,931,235
233991305,36077,1.2236,-0.0742,1.4590,-34.7290,280.0903,99.2432,1,482,921,235
233996302,36078,1.2803,-0.0103,1.4482,-34.3628,274.5361,94.9707,1,509,883,235
234001302,36079,1.3477,0.0459,1.4404,-34.6069,268.9209,89.0503,1,492,806,235
234006304,36080,1.4092,0.0850,1.4346,-35.2783,263.3057,81.6650,1,483,898,235
234011304,36081,1.4619,0.1011,1.4307,-35.9497,257.3853,74.1577,1,490,907,235
234016301,36082,1.5146,0.0952,1.4102,-36.1938,250.6714,67.0776,1,490,897,235
234021303,36083,1.5669,0.0728,1.3535,-36.1938,243.5303,60.6079,1,478,903,235
234026303,36084,1.6035,0.0410,1.2612,-36.3159,235.8398,55.4810,1,483,909,235
234031302,36085,1.6138,0.0039,1.1514,-36.5601,226.1352,52.3071,1,492,913,235
234036306,36086,1.6011,-0.0396,1.0420,-36.6211,213.9282,50.7202,1,466,931,235
234041306,36087,1.5737,-0.0825,0.9458,-36.0718,199.7070,50.7202,1,466,929,235
234046307,36088,1.5439,-0.1182,0.8726,-34.9121,184.2041,51.9409,1,466,936,235
234051302,36089,1.5186,-0.1406,0.8247,-33.1421,168.6401,53.7720,1,466,936,235
234056308,36090,1.4912,-0.1514,0.7998,-31.4941,153.9917,55.7251,1,466,967,235
234061301,36091,1.4536,-0.1514,0.7964,-30.0903,139.4653,57.0679,1,466,941,235
234066307,36092,1.4170,-0.1396,0.8203,-29.6020,124.7559,57.8613,1,465,937,235
234071306,36093,1.4087,-0.1240,0.8696,-30.7007,111.8774,57.8003,1,484,947,235
234076306,36094,1.4336,-0.1172,0.9194,-32.5317,102.9663,56.7627,1,465,925,235
234081306,36095,1.4561,-0.1182,0.9351,-34.1187,97.2900,55.0537,1,469,931,235
234086321,36096,1.4458,-0.1152,0.9033,-35.5835,91.7969,53.0395,1,471,965,235
234091305,36097,1.4150,-0.1016,0.8354,-37.2925,84.7168,50.9644,1,480,925,235
234096305,36098,1.3848,-0.0806,0.7539,-39.1846,77.0264,49.0723,1,501,917,235
234101309,36099,1.3560,-0.0571,0.6685,-41.0156,69.2139,46.9971,1,484,914,235
234106308,36100,1.3228,-0.0322,0.5811,-42.1753,59.9365,45.0439,1,477,911,235
234111302,36101,1.2822,-0.0083,0.5010,-42.9687,48.9502,43.0298,1,492,919,235
234116303,36102,1.3022,-0.0742,0.3359,-42.6636,30.6396,41.1987,1,487,855,235
234121303,36103,1.2593,-0.1733,0.0010,-27.2217,-19.4092,46.3257,1,485,914,235
234126305,36104,1.2744,-0.1167,-0.1689,-8.4839,-75.7446,52.3071,1,471,892,235
234131305,36105,1.4580,0.0684,-0.0117,4.3945,-86.6699,47.2412,1,478,894,235
234136308,36106,1.5679,0.2300,0.1855,7.8125,-95.2148,42.5415,1,481,895,235
234141304,36107,1.5947,0.2876,0.2944,10.6201,-119.9951,39.8560,1,493,899,235
234146307,36108,1.5591,0.2871,0.3516,16.6626,-138.4888,32.5928,1,466,942,235
234151307,36109,1.4341,0.2632,0.4131,18.6768,-148.7427,24.9023,1,466,920,235
234156304,36110,1.0610,0.1860,0.5615,19.8364,-146.6064,18.7988,1,466,922,235
234161307,36111,0.4810,0.0400,0.9331,15.9912,-130.9204,18.7988,1,466,929,235
234166302,36112,-0.0396,-0.1147,1.4248,13.4888,-120.7886,22.1558,1,466,928,235
234171308,36113,-0.4448,-0.2769,1.7705,3.1128,-113.4033,23.4375,1,482,946,235
234176308,36114,-0.6660,-0.4546,1.8408,-1.5869,-113.5864,30.7007,1,465,929,235
234181310,36115,-0.5703,-0.4619,1.5981,11.0474,-116.7602,36.8042,1,484,926,235
234186307,36116,-0.2588,-0.1685,1.1572,20.9351,-119.4458,35.3394,1,465,927,235
234191303,36117,-0.0356,0.3438,0.7622,24.3530,-121.7651,28.3203,1,481,878,235
234196331,36118,0.0347,0.8491,0.6270,15.6250,-132.2632,18.5547,1,466,976,235
234201305,36119,0.1182,1.1021,0.8291,0.9155,-139.5264,7.4463,1,480,916,235
234206305,36120,0.2129,1.0200,1.2817,-12.3291,-135.4980,-4.6387,1,467,895,235
234211301,36121,-0.0186,0.2603,2.1211,-18.3105,-114.9292,-10.6201,1,493,921,235
234216309,36122,0.2236,-0.8311,3.0498,23.6816,-129.0894,5.6763,1,487,911,235
234221306,36123,1.0840,-1.2070,3.1860,57.9224,-77.5146,10.0098,1,499,799,235
234226306,36124,1.1250,-0.8779,2.4038,31.7993,5.1880,9.5215,1,490,902,235
234231301,36125,0.4238,-0.4209,1.2783,44.8608,2.3804,20.2026,1,479,880,235
234236301,36126,-0.2236,-0.1455,0.5137,58.1665,-2.7466,13.7329,1,491,889,235
234241308,36127,-0.5176,-0.0576,0.4507,59.2041,-19.7754,13.3667,1,477,901,235
234246305,36128,-0.3916,0.0396,0.8262,60.2417,-41.1987,18.1274,1,493,896,235
234251305,36129,-0.0630,0.1772,1.2417,51.8188,-37.4756,13.1836,1,493,902,235
234256304,36130,0.1772,0.2183,1.4590,45.4712,-27.2217,9.5215,1,466,933,235
234261305,36131,0.2344,0.1362,1.4375,39.4897,-17.0898,7.3853,1,466,921,235
234266306,36132,0.1597,0.0229,1.2896,36.3770,-10.0098,7.1411,1,466,914,235
234271311,36133,0.0596,-0.0503,1.1436,36.0107,-6.2866,7.4463,1,466,903,235
234276308,36134,-0.0068,-0.0835,1.0591,35.2173,-3.9062,6.7139,1,466,891,235
234281307,36135,-0.0391,-0.0928,1.0215,36.0107,-4.2725,6.7139,1,483,887,235
234286306,36136,-0.0479,-0.0664,1.0308,36.9873,-4.6387,6.9580,1,467,873,235
