t_us, seq, ax, ay, az, gx, gy, gz, valid, t_imu_us, t_serial_us, missed
125889727,16895,-0.0674,-0.1318,1.0122,-0.3662,0.2441,-0.2441,1,491,841,471
125894727,16896,-0.0669,-0.1304,1.0142,-0.3662,0.2441,-0.1831,1,490,841,471
125899730,16897,-0.0659,-0.1304,1.0151,-0.4272,0.3662,-0.1221,1,502,861,471
125904727,16898,-0.0649,-0.1313,1.0146,-0.4272,0.3662,0.0000,1,484,852,471
125909728,16899,-0.0640,-0.1323,1.0146,-0.5493,0.4272,-0.0610,1,490,814,471
125914727,16900,-0.0640,-0.1323,1.0151,-0.4883,0.3662,-0.1221,1,466,855,471
125919730,16901,-0.0630,-0.1318,1.0166,-0.4883,0.3662,-0.1831,1,466,880,471
125924729,16902,-0.0645,-0.1323,1.0161,-0.4883,0.4883,-0.2441,1,466,885,471
125929729,16903,-0.0659,-0.1323,1.0146,-0.4272,0.3662,-0.1221,1,466,883,471
125934729,16904,-0.0654,-0.1323,1.0151,-0.3662,0.3662,-0.1221,1,466,886,471
125939730,16905,-0.0645,-0.1323,1.0146,-0.3052,0.4883,-0.1221,1,466,886,471
125944733,16906,-0.0649,-0.1333,1.0127,-0.5493,0.6104,-0.1221,1,466,875,471
125949726,16907,-0.0674,-0.1343,1.0122,-0.3052,0.4272,-0.1831,1,466,879,471
125954729,16908,-0.0688,-0.1343,1.0117,-0.3052,0.4272,-0.1831,1,483,880,471
125959732,16909,-0.0674,-0.1318,1.0117,-0.3052,0.4883,-0.1221,1,465,871,471
125964728,16910,-0.0659,-0.1299,1.0137,-0.2441,0.3052,-0.1831,1,484,818,471
125969729,16911,-0.0659,-0.1299,1.0156,-0.4883,0.4883,-0.1221,1,492,877,471
125974733,16912,-0.0664,-0.1309,1.0166,-0.4272,0.4272,-0.1221,1,479,864,471
125979728,16913,-0.0669,-0.1318,1.0161,-0.4272,0.3052,-0.1221,1,503,867,471
125984733,16914,-0.0664,-0.1313,1.0151,-0.3662,0.3662,-0.1221,1,491,856,471
125989726,16915,-0.0659,-0.1289,1.0137,-0.4272,0.4883,-0.3052,1,493,839,471
125994727,16916,-0.0664,-0.1284,1.0127,-0.5493,0.3662,-0.1831,1,479,833,471
125999730,16917,-0.0669,-0.1304,1.0127,-0.6104,0.4272,-0.1831,1,501,840,471
126004728,16918,-0.0664,-0.1309,1.0132,-0.6714,0.3662,-0.1221,1,483,845,471
126009726,16919,-0.0664,-0.1309,1.0132,-0.7324,0.3662,-0.1221,1,473,847,471
126014730,16920,-0.0679,-0.1313,1.0132,-0.7324,0.3662,-0.2441,1,493,850,471
126019733,16921,-0.0688,-0.1323,1.0142,-0.7324,0.2441,-0.1831,1,466,885,471
126024730,16922,-0.0688,-0.1318,1.0146,-0.7935,0.1831,-0.0610,1,466,889,471
126029728,16923,-0.0684,-0.1313,1.0137,-0.7324,0.2441,-0.0610,1,466,885,471
126034728,16924,-0.0674,-0.1323,1.0137,-0.7324,0.1831,-0.1831,1,466,884,471
126039726,16925,-0.0669,-0.1338,1.0146,-0.6714,0.3052,-0.2441,1,465,886,471
126044731,16926,-0.0669,-0.1343,1.0161,-0.7324,0.1831,-0.2441,1,465,878,471
126049731,16927,-0.0669,-0.1338,1.0166,-0.7324,0.1221,-0.1221,1,465,887,471
126054730,16928,-0.0679,-0.1333,1.0161,-0.7324,0.3052,-0.1221,1,483,875,471
126059732,16929,-0.0674,-0.1328,1.0142,-0.7324,0.3052,-0.1221,1,465,877,471
126064731,16930,-0.0669,-0.1323,1.0127,-0.7935,0.1831,-0.1221,1,484,864,471
126069725,16931,-0.0669,-0.1318,1.0132,-0.7324,0.1831,-0.1221,1,492,876,471
126074731,16932,-0.0669,-0.1333,1.0132,-0.7324,0.1831,-0.1221,1,478,868,471
126079731,16933,-0.0669,-0.1348,1.0132,-0.7935,0.0610,-0.1831,1,499,867,471
126084725,16934,-0.0669,-0.1338,1.0137,-0.6104,0.1221,-0.1221,1,480,856,471
126089726,16935,-0.0664,-0.1318,1.0156,-0.7324,0.1831,-0.0610,1,495,822,471
126094726,16936,-0.0645,-0.1318,1.0161,-0.8545,0.1221,-0.0610,1,496,838,471
126099726,16937,-0.0645,-0.1333,1.0151,-0.7324,0.1831,-0.1221,1,491,849,471
126104731,16938,-0.0659,-0.1348,1.0142,-0.7935,0.1221,-0.1221,1,474,853,471
126109732,16939,-0.0679,-0.1343,1.0127,-0.8545,0.1831,-0.1221,1,478,845,471
126114728,16940,-0.0684,-0.1338,1.0117,-0.7324,0.0000,-0.1221,1,492,847,471
126119729,16941,-0.0693,-0.1338,1.0112,-0.7324,0.0610,-0.1221,1,466,831,471
126124732,16942,-0.0698,-0.1338,1.0112,-0.7324,0.0610,-0.1831,1,466,879,471
126129725,16943,-0.0669,-0.1338,1.0117,-0.6714,-0.1221,-0.1221,1,466,885,471
126134731,16944,-0.0645,-0.1338,1.0122,-0.7324,-0.1221,-0.1831,1,466,874,471
126139728,16945,-0.0654,-0.1353,1.0127,-0.7935,-0.0610,-0.1831,1,466,881,471
126144730,16946,-0.0674,-0.1353,1.0132,-0.6714,-0.2441,-0.1221,1,466,880,471
126149743,16947,-0.0674,-0.1343,1.0142,-0.6104,-0.3052,-0.1831,1,466,876,471
126154731,16948,-0.0659,-0.1333,1.0142,-0.6714,-0.1221,-0.2441,1,466,873,471
126159729,16949,-0.0649,-0.1328,1.0146,-0.7324,0.0000,-0.1831,1,484,881,471
126164753,16950,-0.0645,-0.1328,1.0146,-0.7324,-0.1221,-0.2441,1,479,831,471
126169728,16951,-0.0654,-0.1328,1.0142,-0.7324,-0.1221,-0.1831,1,484,873,471
126174734,16952,-0.0669,-0.1333,1.0146,-0.6714,0.0610,-0.1221,1,493,910,471
126179729,16953,-0.0669,-0.1333,1.0142,-0.6104,0.0610,-0.0610,1,472,864,471
126184726,16954,-0.0669,-0.1338,1.0127,-0.7935,0.1831,-0.1831,1,506,752,471
126189732,16955,-0.0674,-0.1348,1.0117,-0.7935,-0.0610,-0.1831,1,491,833,471
126194725,16956,-0.0659,-0.1353,1.0127,-0.7935,-0.0610,-0.1831,1,494,833,471
126199726,16957,-0.0640,-0.1353,1.0137,-0.6104,-0.0610,-0.0610,1,492,833,471
126204731,16958,-0.0630,-0.1348,1.0142,-0.6104,-0.0610,-0.0610,1,471,843,471
126209729,16959,-0.0630,-0.1348,1.0142,-0.7324,0.0610,-0.2441,1,478,842,471
126214734,16960,-0.0640,-0.1348,1.0151,-0.7324,0.1221,-0.1221,1,486,850,471
126219728,16961,-0.0649,-0.1338,1.0146,-0.7324,0.3052,-0.1831,1,493,847,471
126224725,16962,-0.0664,-0.1338,1.0122,-0.7324,0.3662,-0.2441,1,466,882,471
126229726,16963,-0.0674,-0.1353,1.0107,-0.6714,0.2441,-0.1831,1,466,888,471
126234733,16964,-0.0669,-0.1362,1.0112,-0.7324,0.2441,-0.1221,1,466,882,471
126239732,16965,-0.0654,-0.1357,1.0137,-0.6104,0.1221,-0.2441,1,466,885,471
126244725,16966,-0.0645,-0.1353,1.0151,-0.4883,0.3052,-0.2441,1,466,880,471
126249727,16967,-0.0649,-0.1362,1.0142,-0.5493,0.1831,-0.2441,1,466,879,471
126254730,16968,-0.0669,-0.1372,1.0127,-0.5493,0.1221,-0.3052,1,465,888,471
126259729,16969,-0.0674,-0.1362,1.0107,-0.6714,0.2441,-0.2441,1,483,877,471
126264736,16970,-0.0674,-0.1343,1.0107,-0.6104,0.2441,-0.2441,1,466,872,471
126269756,16971,-0.0654,-0.1343,1.0127,-0.6104,0.1831,-0.2441,1,484,868,471
126274725,16972,-0.0640,-0.1348,1.0137,-0.6104,0.1221,-0.3052,1,465,878,471
126279733,16973,-0.0649,-0.1348,1.0142,-0.6714,0.1221,-0.3052,1,465,856,471
126284728,16974,-0.0664,-0.1353,1.0137,-0.7935,0.0610,-0.3052,1,508,861,471
126289726,16975,-0.0669,-0.1353,1.0132,-0.7324,0.1221,-0.2441,1,481,826,471
126294730,16976,-0.0669,-0.1333,1.0127,-0.7935,0.0000,-0.1831,1,491,831,471
126299727,16977,-0.0664,-0.1338,1.0132,-0.7324,-0.1221,-0.1831,1,490,808,471
126304731,16978,-0.0659,-0.1367,1.0132,-0.7324,-0.2441,-0.1831,1,476,860,471
126309726,16979,-0.0654,-0.1372,1.0132,-0.7935,-0.0610,-0.3052,1,475,860,471
126314731,16980,-0.0645,-0.1362,1.0146,-0.9155,0.0000,-0.3052,1,486,848,471
126319727,16981,-0.0635,-0.1362,1.0161,-0.9766,-0.0610,-0.2441,1,493,806,471
126324730,16982,-0.0635,-0.1367,1.0161,-0.8545,-0.0610,-0.3052,1,466,880,471
126329733,16983,-0.0645,-0.1362,1.0156,-0.8545,-0.1831,-0.2441,1,466,877,471
126334726,16984,-0.0664,-0.1357,1.0137,-0.7935,-0.1831,-0.3052,1,466,887,471
126339730,16985,-0.0659,-0.1362,1.0146,-0.8545,-0.3052,-0.3052,1,466,880,471
126344726,16986,-0.0645,-0.1357,1.0146,-0.8545,-0.1831,-0.3052,1,465,879,471
126349739,16987,-0.0635,-0.1357,1.0146,-0.9155,-0.0610,-0.3052,1,466,882,471
126354734,16988,-0.0635,-0.1357,1.0137,-0.8545,-0.1831,-0.3052,1,466,880,471
126359728,16989,-0.0649,-0.1353,1.0132,-0.9155,-0.0610,-0.2441,1,483,879,471
126364746,16990,-0.0669,-0.1362,1.0127,-0.9766,-0.2441,-0.3052,1,481,870,471
126369730,16991,-0.0664,-0.1377,1.0122,-0.9155,-0.1831,-0.3052,1,484,811,471
126374725,16992,-0.0654,-0.1372,1.0127,-0.8545,-0.1831,-0.3052,1,493,910,471
126379728,16993,-0.0659,-0.1357,1.0132,-0.9155,-0.3052,-0.2441,1,481,868,471
126384729,16994,-0.0669,-0.1357,1.0132,-0.9155,-0.3052,-0.1831,1,507,757,471
126389733,16995,-0.0674,-0.1367,1.0137,-0.9766,-0.3052,-0.3662,1,489,843,471
126394734,16996,-0.0674,-0.1387,1.0137,-0.8545,-0.4272,-0.3052,1,472,830,471
126399729,16997,-0.0664,-0.1406,1.0142,-0.7935,-0.4883,-0.3662,1,492,827,471
126404732,16998,-0.0645,-0.1401,1.0146,-0.7324,-0.3662,-0.4272,1,476,859,471
126409734,16999,-0.0630,-0.1382,1.0137,-0.7324,-0.3662,-0.4272,1,476,857,471
126414734,17000,-0.0640,-0.1367,1.0132,-0.7935,-0.3052,-0.3662,1,479,854,471
126419730,17001,-0.0659,-0.1372,1.0127,-0.7324,-0.1831,-0.3662,1,493,850,471
126424731,17002,-0.0649,-0.1392,1.0122,-0.6104,-0.2441,-0.1831,1,465,888,471
126429725,17003,-0.0645,-0.1401,1.0112,-0.5493,-0.3052,-0.1831,1,466,884,471
126434727,17004,-0.0659,-0.1392,1.0098,-0.4272,-0.3662,-0.3052,1,466,882,471
126439732,17005,-0.0669,-0.1382,1.0093,-0.4272,-0.3662,-0.4272,1,466,878,471
126444730,17006,-0.0664,-0.1377,1.0103,-0.3662,-0.3662,-0.4272,1,466,881,471
126449731,17007,-0.0649,-0.1382,1.0122,-0.4883,-0.3662,-0.3052,1,466,884,471
126454727,17008,-0.0630,-0.1372,1.0151,-0.3662,-0.3052,-0.1831,1,466,880,471
126459728,17009,-0.0620,-0.1367,1.0156,-0.3662,-0.1831,-0.3052,1,483,883,471
126464732,17010,-0.0635,-0.1372,1.0146,-0.3662,-0.2441,-0.3052,1,469,873,471
126469730,17011,-0.0640,-0.1382,1.0132,-0.3662,-0.2441,-0.3662,1,484,872,471
126474726,17012,-0.0640,-0.1392,1.0117,-0.3662,-0.3052,-0.3052,1,492,881,471
126479731,17013,-0.0649,-0.1401,1.0107,-0.1831,-0.1831,-0.1831,1,473,863,471
126484727,17014,-0.0654,-0.1406,1.0103,-0.1221,-0.2441,-0.2441,1,500,837,471
126489733,17015,-0.0654,-0.1406,1.0103,-0.0610,-0.3662,-0.1831,1,490,842,471
126494731,17016,-0.0645,-0.1396,1.0112,-0.0610,-0.4272,-0.3052,1,493,833,471
126499728,17017,-0.0640,-0.1387,1.0132,0.0610,-0.4272,-0.1831,1,500,831,471
126504728,17018,-0.0640,-0.1387,1.0146,-0.0610,-0.3052,-0.2441,1,482,848,471
126509729,17019,-0.0620,-0.1382,1.0156,-0.0610,-0.3662,-0.3052,1,485,848,471
126514732,17020,-0.0605,-0.1377,1.0156,-0.0610,-0.2441,-0.3052,1,491,849,471
126519726,17021,-0.0610,-0.1382,1.0151,0.0000,-0.2441,-0.2441,1,466,876,471
126524730,17022,-0.0615,-0.1396,1.0142,0.0000,-0.1221,-0.1221,1,466,839,471
126529725,17023,-0.0605,-0.1396,1.0146,0.0000,0.0000,-0.2441,1,466,831,471
126534733,17024,-0.0601,-0.1387,1.0156,0.0000,-0.0610,-0.2441,1,466,795,471
126539727,17025,-0.0610,-0.1367,1.0146,0.0000,0.1831,-0.1831,1,466,831,471
126544733,17026,-0.0630,-0.1362,1.0137,0.0000,0.1831,-0.2441,1,466,842,471
126549733,17027,-0.0625,-0.1382,1.0127,0.0000,0.1221,-0.3052,1,466,838,471
126554731,17028,-0.0615,-0.1401,1.0127,0.0610,0.3662,-0.1831,1,465,825,471
126559725,17029,-0.0625,-0.1401,1.0122,0.0610,0.2441,-0.2441,1,466,882,471
126564757,17030,-0.0640,-0.1382,1.0122,0.0000,0.3662,-0.1831,1,485,870,471
126569733,17031,-0.0645,-0.1357,1.0117,0.1831,0.4272,-0.0610,1,484,834,471
126574732,17032,-0.0635,-0.1362,1.0112,0.2441,0.4272,-0.1221,1,500,910,471
126579726,17033,-0.0630,-0.1377,1.0112,0.1221,0.4272,-0.0610,1,482,870,471
126584733,17034,-0.0635,-0.1372,1.0127,0.2441,0.3662,-0.1831,1,496,755,471
126589725,17035,-0.0635,-0.1377,1.0127,0.1831,0.4272,-0.2441,1,496,864,471
126594729,17036,-0.0635,-0.1387,1.0127,0.2441,0.4883,-0.2441,1,488,835,471
126599727,17037,-0.0635,-0.1387,1.0132,0.1221,0.4272,-0.1221,1,504,832,471
126604725,17038,-0.0659,-0.1396,1.0117,0.3052,0.4272,-0.2441,1,478,842,471
126609734,17039,-0.0684,-0.1411,1.0098,0.4272,0.2441,-0.3052,1,483,855,471
126614729,17040,-0.0674,-0.1421,1.0107,0.4272,0.1221,-0.2441,1,479,849,471
126619728,17041,-0.0640,-0.1406,1.0127,0.6104,-0.1221,-0.1221,1,493,847,471
126624733,17042,-0.0625,-0.1372,1.0142,0.6104,-0.0610,-0.3052,1,466,868,471
126629733,17043,-0.0615,-0.1348,1.0146,0.4272,0.0610,-0.2441,1,466,871,471
126634729,17044,-0.0605,-0.1353,1.0137,0.4883,0.1221,-0.2441,1,466,884,471
126639729,17045,-0.0610,-0.1367,1.0122,0.4883,0.1221,-0.3052,1,465,877,471
126644733,17046,-0.0630,-0.1377,1.0122,0.6104,0.1221,-0.2441,1,466,877,471
126649732,17047,-0.0645,-0.1396,1.0127,0.5493,0.1831,-0.2441,1,466,876,471
126654728,17048,-0.0640,-0.1411,1.0132,0.5493,0.1831,-0.3052,1,466,886,471
126659732,17049,-0.0635,-0.1396,1.0142,0.7935,0.1221,-0.1831,1,484,880,471
126664731,17050,-0.0635,-0.1377,1.0151,0.7324,0.2441,-0.1831,1,465,866,471
126669730,17051,-0.0630,-0.1372,1.0142,0.5493,0.2441,-0.1221,1,484,874,471
126674732,17052,-0.0630,-0.1372,1.0117,0.6104,0.3052,-0.1831,1,491,878,471
126679730,17053,-0.0630,-0.1382,1.0098,0.5493,0.2441,-0.2441,1,506,919,471
126684727,17054,-0.0625,-0.1387,1.0093,0.6104,0.2441,-0.2441,1,510,870,471
126689725,17055,-0.0620,-0.1367,1.0122,0.6714,0.4272,-0.3052,1,476,839,471
126694730,17056,-0.0630,-0.1357,1.0156,0.6714,0.3052,-0.3052,1,483,832,471
126699731,17057,-0.0645,-0.1372,1.0156,0.5493,0.3052,-0.1831,1,480,827,471
126704728,17058,-0.0645,-0.1367,1.0137,0.7324,0.2441,-0.1831,1,507,836,471
126709728,17059,-0.0645,-0.1353,1.0132,0.6714,0.1221,-0.1831,1,475,855,471
126714732,17060,-0.0635,-0.1348,1.0132,0.5493,0.2441,-0.3052,1,485,846,471
126719731,17061,-0.0635,-0.1348,1.0137,0.6714,0.1831,-0.2441,1,493,848,471
126724729,17062,-0.0649,-0.1348,1.0137,0.6104,0.3052,-0.2441,1,466,880,471
126729730,17063,-0.0640,-0.1353,1.0132,0.4272,0.2441,-0.3052,1,466,876,471
126734732,17064,-0.0620,-0.1353,1.0137,0.4883,0.4272,-0.1831,1,466,879,471
126739727,17065,-0.0610,-0.1353,1.0146,0.4883,0.5493,-0.1221,1,466,880,471
126744729,17066,-0.0625,-0.1353,1.0151,0.5493,0.4272,-0.0610,1,465,880,471
126749734,17067,-0.0645,-0.1353,1.0137,0.5493,0.4883,-0.1221,1,466,880,471
126754734,17068,-0.0664,-0.1362,1.0117,0.4883,0.4272,-0.3052,1,466,875,471
126759726,17069,-0.0664,-0.1372,1.0093,0.5493,0.2441,-0.2441,1,466,882,471
126764728,17070,-0.0659,-0.1372,1.0088,0.6714,0.3052,-0.2441,1,465,886,471
126769753,17071,-0.0640,-0.1362,1.0107,0.7935,0.2441,-0.2441,1,484,866,471
126774727,17072,-0.0615,-0.1357,1.0146,0.7324,0.3052,-0.1831,1,465,826,471
126779731,17073,-0.0601,-0.1348,1.0166,0.5493,0.3052,-0.1221,1,509,911,471
126784732,17074,-0.0605,-0.1333,1.0156,0.6714,0.3662,-0.1831,1,467,755,471
126789729,17075,-0.0620,-0.1333,1.0137,0.6104,0.4272,-0.2441,1,494,761,471
126794732,17076,-0.0630,-0.1343,1.0127,0.6104,0.3662,-0.1831,1,498,843,471
126799730,17077,-0.0635,-0.1362,1.0122,0.5493,0.5493,-0.2441,1,477,831,471
126804726,17078,-0.0640,-0.1367,1.0137,0.6104,0.4883,-0.2441,1,497,842,471
126809729,17079,-0.0635,-0.1367,1.0161,0.7324,0.3662,-0.2441,1,475,849,471
126814733,17080,-0.0630,-0.1367,1.0166,0.7324,0.4272,-0.2441,1,491,858,471
126819732,17081,-0.0635,-0.1362,1.0156,0.8545,0.5493,-0.1831,1,471,858,471
126824731,17082,-0.0630,-0.1348,1.0137,0.7935,0.6714,-0.3052,1,493,855,471
126829727,17083,-0.0625,-0.1343,1.0122,0.7935,0.6104,-0.1831,1,466,873,471
126834730,17084,-0.0635,-0.1348,1.0132,0.7324,0.6104,-0.1831,1,466,878,471
126839730,17085,-0.0640,-0.1348,1.0127,0.6714,0.7324,-0.3052,1,466,879,471
126844733,17086,-0.0645,-0.1343,1.0132,0.7935,0.7935,-0.1831,1,466,876,471
126849725,17087,-0.0635,-0.1338,1.0137,0.7935,0.8545,-0.1831,1,465,878,471
126854726,17088,-0.0630,-0.1333,1.0132,0.7935,0.8545,-0.1831,1,466,878,471
126859734,17089,-0.0645,-0.1343,1.0127,0.6714,0.9155,-0.1831,1,466,881,471
126864726,17090,-0.0654,-0.1353,1.0132,0.7324,0.7935,-0.1831,1,483,880,471
126869731,17091,-0.0654,-0.1348,1.0132,0.7324,0.7324,-0.1831,1,466,871,471
126874732,17092,-0.0645,-0.1333,1.0127,0.7935,0.8545,-0.1831,1,484,873,471
126879728,17093,-0.0630,-0.1323,1.0122,0.7324,0.9766,-0.1831,1,465,831,471
126884733,17094,-0.0630,-0.1309,1.0142,0.6104,0.9766,-0.1831,1,499,924,471
126889734,17095,-0.0630,-0.1318,1.0161,0.5493,0.9155,-0.2441,1,497,860,471
126894728,17096,-0.0630,-0.1338,1.0156,0.6104,0.9155,-0.1831,1,465,821,471
126899732,17097,-0.0640,-0.1338,1.0137,0.6104,0.9766,-0.3052,1,496,833,471
126904728,17098,-0.0654,-0.1343,1.0117,0.5493,0.9155,-0.2441,1,473,822,471
126909730,17099,-0.0669,-0.1353,1.0107,0.6104,0.9155,-0.3052,1,509,840,471
126914731,17100,-0.0674,-0.1357,1.0127,0.6714,0.8545,-0.3052,1,490,843,471
126919726,17101,-0.0654,-0.1353,1.0146,0.6104,0.7935,-0.4272,1,480,846,471
126924726,17102,-0.0640,-0.1353,1.0146,0.6104,0.9766,-0.1221,1,493,853,471
126929732,17103,-0.0640,-0.1353,1.0137,0.6104,0.9155,-0.3052,1,466,872,471
126934725,17104,-0.0649,-0.1328,1.0137,0.7324,0.7935,-0.3662,1,466,874,471
126939730,17105,-0.0659,-0.1304,1.0137,0.6104,0.9155,-0.2441,1,466,886,471
126944726,17106,-0.0649,-0.1313,1.0132,0.6104,0.8545,-0.3052,1,466,879,471
126949727,17107,-0.0630,-0.1323,1.0132,0.4883,0.8545,-0.3662,1,466,876,471
126954727,17108,-0.0635,-0.1328,1.0142,0.5493,0.9766,-0.0610,1,466,879,471
126959728,17109,-0.0640,-0.1338,1.0151,0.4272,1.0986,-0.3052,1,466,878,471
126964729,17110,-0.0645,-0.1343,1.0146,0.3662,0.9766,-0.3052,1,483,879,471
126969729,17111,-0.0654,-0.1338,1.0117,0.4272,0.9766,-0.2441,1,466,865,471
126974730,17112,-0.0654,-0.1323,1.0103,0.4272,0.9766,-0.3662,1,484,872,471
126979727,17113,-0.0659,-0.1323,1.0112,0.3662,1.0986,-0.3052,1,492,878,471
126984729,17114,-0.0654,-0.1333,1.0132,0.3052,0.9766,-0.3052,1,472,872,471
126989725,17115,-0.0654,-0.1328,1.0151,0.2441,1.0986,-0.3052,1,500,763,471
126994726,17116,-0.0649,-0.1318,1.0161,0.3052,1.0376,-0.2441,1,488,809,471
126999727,17117,-0.0649,-0.1313,1.0151,0.3052,1.1597,-0.3052,1,495,834,471
127004726,17118,-0.0649,-0.1304,1.0132,0.3052,0.9766,-0.2441,1,491,830,471
127009730,17119,-0.0649,-0.1294,1.0112,0.2441,0.9766,-0.1221,1,501,848,471
127014729,17120,-0.0654,-0.1289,1.0112,0.0610,1.0986,-0.1221,1,483,850,471
127019730,17121,-0.0654,-0.1309,1.0127,0.0610,1.0376,-0.2441,1,471,852,471
127024728,17122,-0.0649,-0.1343,1.0127,-0.0610,1.0986,-0.3052,1,493,848,471
127029728,17123,-0.0649,-0.1343,1.0127,0.1221,1.1597,-0.2441,1,466,875,471
127034725,17124,-0.0654,-0.1318,1.0137,0.1221,0.9155,-0.1831,1,466,880,471
127039726,17125,-0.0654,-0.1294,1.0142,0.0000,1.0376,-0.1831,1,466,882,471
127044731,17126,-0.0659,-0.1304,1.0142,-0.0610,0.9766,-0.1831,1,466,835,471
127049731,17127,-0.0664,-0.1338,1.0146,-0.0610,1.0986,-0.2441,1,466,877,471
127054739,17128,-0.0669,-0.1343,1.0142,-0.0610,0.9766,-0.2441,1,465,884,471
127059725,17129,-0.0674,-0.1323,1.0146,-0.1221,0.8545,-0.3052,1,466,876,471
127064731,17130,-0.0654,-0.1318,1.0161,-0.2441,0.9766,-0.1831,1,465,876,471
127069726,17131,-0.0635,-0.1328,1.0166,-0.2441,1.0986,-0.1221,1,474,876,471
127074726,17132,-0.0645,-0.1323,1.0151,-0.2441,1.2207,-0.3662,1,465,881,471
127079726,17133,-0.0674,-0.1304,1.0132,-0.1831,1.1597,-0.2441,1,492,913,471
127084727,17134,-0.0693,-0.1304,1.0122,-0.4272,1.0986,-0.3052,1,475,867,471
127089727,17135,-0.0688,-0.1318,1.0122,-0.2441,0.9155,-0.3662,1,502,876,471
127094732,17136,-0.0679,-0.1328,1.0122,-0.3662,0.9155,-0.3052,1,482,815,471
127099725,17137,-0.0684,-0.1343,1.0132,-0.4272,0.9155,-0.3052,1,504,835,471
127104726,17138,-0.0679,-0.1353,1.0146,-0.3052,0.9155,-0.2441,1,492,830,471
127109725,17139,-0.0669,-0.1343,1.0151,-0.3662,0.9766,-0.3052,1,472,833,471
127114725,17140,-0.0674,-0.1323,1.0132,-0.3662,0.9766,-0.3052,1,476,846,471
127119730,17141,-0.0693,-0.1313,1.0088,-0.4272,0.9766,-0.1831,1,487,848,471
127124733,17142,-0.0728,-0.1309,1.0059,-0.3662,0.8545,-0.3052,1,493,852,471
127129727,17143,-0.0737,-0.1304,1.0073,-0.1221,0.4883,-0.2441,1,466,870,471
127134730,17144,-0.0713,-0.1313,1.0098,-0.2441,0.5493,-0.3052,1,466,877,471
127139732,17145,-0.0693,-0.1333,1.0107,-0.3052,0.5493,-0.2441,1,466,879,471
127144731,17146,-0.0698,-0.1357,1.0093,-0.2441,0.4272,-0.2441,1,466,885,471
127149730,17147,-0.0723,-0.1377,1.0059,-0.1831,0.2441,-0.3052,1,465,887,471
127154729,17148,-0.0718,-0.1357,1.0063,0.0000,-0.0610,-0.4272,1,466,876,471
127159734,17149,-0.0684,-0.1313,1.0103,-0.1221,-0.1221,-0.3662,1,466,834,471
127164732,17150,-0.0649,-0.1294,1.0142,-0.1221,-0.0610,-0.3662,1,483,875,471
127169732,17151,-0.0645,-0.1299,1.0151,-0.1221,0.0610,-0.3052,1,465,876,471
127174751,17152,-0.0664,-0.1318,1.0132,-0.1831,0.0610,-0.3662,1,484,860,471
127179729,17153,-0.0698,-0.1338,1.0112,-0.2441,0.1221,-0.1831,1,465,834,471
127184732,17154,-0.0703,-0.1353,1.0117,-0.1831,0.0000,-0.1831,1,509,910,471
127189729,17155,-0.0674,-0.1357,1.0137,0.0610,-0.1221,-0.1831,1,468,743,471
127194731,17156,-0.0664,-0.1357,1.0146,0.0000,-0.0610,-0.3052,1,500,755,471
127199731,17157,-0.0688,-0.1357,1.0122,0.0610,-0.1221,-0.3662,1,505,787,471
127204728,17158,-0.0713,-0.1367,1.0093,0.3662,-0.2441,-0.2441,1,489,835,471
127209732,17159,-0.0688,-0.1362,1.0112,0.4883,-0.4272,-0.4883,1,488,837,471
127214728,17160,-0.0649,-0.1343,1.0146,0.5493,-0.3052,-0.3662,1,472,857,471
127219727,17161,-0.0635,-0.1323,1.0181,0.4883,-0.2441,-0.3052,1,486,855,471
127224725,17162,-0.0640,-0.1318,1.0186,0.4272,-0.0610,-0.3662,1,491,847,471
127229729,17163,-0.0674,-0.1318,1.0151,0.3662,0.0000,-0.3052,1,466,879,471
127234733,17164,-0.0693,-0.1333,1.0132,0.3662,-0.2441,-0.2441,1,466,833,471
127239733,17165,-0.0679,-0.1338,1.0142,0.6104,-0.3052,-0.3052,1,466,888,471
127244726,17166,-0.0659,-0.1328,1.0156,0.4272,-0.1221,-0.4272,1,466,869,471
127249729,17167,-0.0669,-0.1343,1.0142,0.3662,-0.1831,-0.3662,1,466,884,471
127254731,17168,-0.0688,-0.1338,1.0122,0.3052,-0.1831,-0.3662,1,466,884,471
127259727,17169,-0.0693,-0.1328,1.0122,0.5493,-0.3052,-0.3052,1,466,883,471
127264729,17170,-0.0684,-0.1333,1.0137,0.4883,-0.2441,-0.3052,1,466,880,471
127269725,17171,-0.0664,-0.1338,1.0146,0.6104,-0.3662,-0.3052,1,465,877,471
127274747,17172,-0.0649,-0.1323,1.0146,0.4883,-0.3052,-0.3662,1,485,866,471
127279730,17173,-0.0635,-0.1323,1.0142,0.4272,-0.1831,-0.3662,1,465,832,471
127284728,17174,-0.0635,-0.1323,1.0142,0.3052,-0.2441,-0.3662,1,476,910,471
127289730,17175,-0.0664,-0.1313,1.0137,0.3052,-0.3052,-0.3662,1,469,876,471
127294732,17176,-0.0688,-0.1318,1.0137,0.3052,-0.3052,-0.2441,1,495,753,471
127299734,17177,-0.0693,-0.1328,1.0146,0.4272,-0.3052,-0.3662,1,477,840,471
127304725,17178,-0.0679,-0.1323,1.0161,0.4272,-0.4272,-0.3662,1,501,838,471
127309734,17179,-0.0649,-0.1313,1.0166,0.3052,-0.2441,-0.3662,1,498,840,471
127314733,17180,-0.0640,-0.1318,1.0156,0.3662,-0.2441,-0.3662,1,483,837,471
127319730,17181,-0.0640,-0.1318,1.0151,0.4272,-0.1831,-0.3052,1,486,858,471
127324726,17182,-0.0635,-0.1323,1.0156,0.3662,-0.1221,-0.3052,1,474,854,471
127329727,17183,-0.0635,-0.1328,1.0171,0.4272,0.0000,-0.3052,1,493,849,471
127334727,17184,-0.0645,-0.1333,1.0166,0.3662,-0.0610,-0.3662,1,466,828,471
127339731,17185,-0.0664,-0.1328,1.0151,0.4883,-0.0610,-0.3662,1,466,885,471
127344729,17186,-0.0664,-0.1318,1.0156,0.4883,-0.0610,-0.2441,1,466,886,471
127349732,17187,-0.0645,-0.1318,1.0171,0.4883,0.0000,-0.2441,1,466,884,471
127354726,17188,-0.0635,-0.1304,1.0171,0.4883,0.0610,-0.3662,1,466,833,471
127359741,17189,-0.0654,-0.1304,1.0161,0.3052,0.1831,-0.3052,1,466,872,471
127364733,17190,-0.0684,-0.1309,1.0142,0.1831,0.1221,-0.3052,1,465,877,471
127369725,17191,-0.0684,-0.1309,1.0142,0.3052,0.0000,-0.3052,1,483,870,471
127374729,17192,-0.0659,-0.1309,1.0166,0.0000,0.0610,-0.3662,1,477,771,471
127379731,17193,-0.0640,-0.1299,1.0181,0.0000,0.0610,-0.2441,1,466,873,471
127384725,17194,-0.0640,-0.1299,1.0181,0.0610,0.1221,-0.3052,1,491,818,471
127389728,17195,-0.0659,-0.1318,1.0166,0.0610,0.1221,-0.2441,1,497,855,471
127394725,17196,-0.0659,-0.1333,1.0156,0.1221,0.1221,-0.2441,1,498,878,471
127399734,17197,-0.0654,-0.1328,1.0151,0.0610,0.2441,-0.3052,1,466,844,471
127404726,17198,-0.0659,-0.1309,1.0137,0.0000,0.1831,-0.3052,1,501,844,471
127409732,17199,-0.0674,-0.1304,1.0117,0.1221,0.0000,-0.2441,1,490,783,471
127414733,17200,-0.0688,-0.1289,1.0098,0.1221,0.0000,-0.2441,1,502,783,471
127419731,17201,-0.0684,-0.1289,1.0112,0.0610,-0.1221,-0.2441,1,485,804,471
127424733,17202,-0.0659,-0.1304,1.0151,0.0000,0.0000,-0.1831,1,475,851,471
127429733,17203,-0.0649,-0.1304,1.0181,-0.1221,0.1221,-0.2441,1,493,760,471
127434727,17204,-0.0645,-0.1304,1.0176,-0.1831,0.1221,-0.1831,1,466,871,471
127439725,17205,-0.0635,-0.1318,1.0156,-0.1831,0.1221,-0.1831,1,466,875,471
127444732,17206,-0.0625,-0.1309,1.0156,-0.2441,0.0610,-0.1221,1,466,883,471
127449730,17207,-0.0620,-0.1294,1.0176,-0.2441,0.1831,-0.1831,1,466,875,471
127454726,17208,-0.0625,-0.1304,1.0186,-0.3662,0.1831,-0.1831,1,466,884,471
127459729,17209,-0.0630,-0.1318,1.0176,-0.4272,0.3052,-0.1221,1,466,881,471
127464750,17210,-0.0649,-0.1318,1.0146,-0.4272,0.3052,-0.1221,1,466,876,471
127469725,17211,-0.0664,-0.1304,1.0127,-0.4272,0.3052,-0.1831,1,466,881,471
127474725,17212,-0.0659,-0.1294,1.0117,-0.4883,0.3662,-0.1831,1,466,877,471
127479732,17213,-0.0664,-0.1318,1.0117,-0.6104,0.4272,-0.1831,1,484,874,471
127484727,17214,-0.0664,-0.1338,1.0127,-0.4883,0.4883,-0.1221,1,465,884,471
127489726,17215,-0.0659,-0.1328,1.0151,-0.4272,0.4883,-0.1831,1,473,902,471
127494725,17216,-0.0649,-0.1318,1.0151,-0.5493,0.4883,-0.3052,1,465,874,471
127499729,17217,-0.0635,-0.1328,1.0142,-0.5493,0.6104,-0.2441,1,495,760,471
127504731,17218,-0.0635,-0.1328,1.0142,-0.6104,0.6714,-0.0610,1,478,843,471
127509728,17219,-0.0645,-0.1323,1.0142,-0.6714,0.6714,-0.1831,1,503,826,471
127514728,17220,-0.0649,-0.1323,1.0137,-0.6714,0.9155,-0.1221,1,495,833,471
127519733,17221,-0.0649,-0.1313,1.0142,-0.7324,0.6714,-0.1221,1,478,871,471
127524732,17222,-0.0659,-0.1294,1.0137,-0.7935,0.8545,-0.0610,1,483,851,471
127529727,17223,-0.0669,-0.1289,1.0127,-0.9155,0.8545,-0.0610,1,470,848,471
127534728,17224,-0.0664,-0.1309,1.0132,-0.9766,0.7935,-0.1221,1,493,851,471
127539730,17225,-0.0649,-0.1328,1.0146,-0.9155,0.6104,0.0000,1,466,872,471
127544725,17226,-0.0645,-0.1328,1.0161,-0.8545,0.7935,-0.0610,1,466,838,471
127549726,17227,-0.0649,-0.1318,1.0151,-0.9155,0.7324,-0.1221,1,466,877,471
127554730,17228,-0.0654,-0.1323,1.0132,-0.8545,0.9155,-0.0610,1,466,886,471
127559734,17229,-0.0654,-0.1323,1.0117,-0.9155,0.9766,-0.1221,1,466,881,471
127564745,17230,-0.0654,-0.1323,1.0117,-0.8545,0.8545,-0.0610,1,466,881,471
127569725,17231,-0.0669,-0.1328,1.0117,-0.7324,0.6714,-0.1221,1,466,881,471
127574728,17232,-0.0679,-0.1323,1.0107,-0.7324,0.8545,-0.1221,1,484,880,471
127579732,17233,-0.0688,-0.1323,1.0103,-0.7935,0.8545,-0.1221,1,474,869,471
127584745,17234,-0.0708,-0.1338,1.0122,-0.9155,0.9155,-0.3052,1,465,873,471
127589730,17235,-0.0708,-0.1338,1.0132,-0.4272,0.6714,0.3052,1,472,905,471
127594732,17236,-0.0688,-0.1318,1.0127,-0.6104,0.9155,-0.1221,1,495,863,471
127599727,17237,-0.0679,-0.1313,1.0127,-0.9766,0.9766,-0.0610,1,500,874,471
127604732,17238,-0.0664,-0.1309,1.0117,-0.6104,0.7324,-0.0610,1,469,837,471
127609725,17239,-0.0664,-0.1328,1.0083,-0.9155,0.8545,-0.1221,1,492,830,471
127614731,17240,-0.0679,-0.1357,1.0063,-0.7935,0.6714,0.0000,1,499,834,471
127619725,17241,-0.0684,-0.1357,1.0073,-0.6714,0.6104,-0.1221,1,502,786,471
127624726,17242,-0.0674,-0.1343,1.0103,-0.7324,0.6714,-0.1831,1,478,844,471
127629729,17243,-0.0669,-0.1343,1.0127,-0.6104,0.6714,-0.0610,1,487,850,471
127634728,17244,-0.0669,-0.1357,1.0127,-0.6714,0.6104,0.0000,1,493,844,471
127639733,17245,-0.0679,-0.1362,1.0117,-0.5493,0.5493,-0.1221,1,466,831,471
127644728,17246,-0.0693,-0.1353,1.0098,-0.6104,0.5493,-0.1221,1,465,883,471
127649730,17247,-0.0698,-0.1333,1.0103,-0.6104,0.3662,-0.1831,1,466,874,471
127654726,17248,-0.0684,-0.1309,1.0122,-0.4883,0.3052,-0.1831,1,466,881,471
127659725,17249,-0.0659,-0.1313,1.0146,-0.6104,0.3662,0.0000,1,466,876,471
127664732,17250,-0.0654,-0.1338,1.0142,-0.6714,0.4272,-0.0610,1,466,838,471
127669729,17251,-0.0664,-0.1357,1.0122,-0.4272,0.4883,-0.1221,1,466,879,471
127674732,17252,-0.0684,-0.1353,1.0117,-0.3662,0.3662,-0.1221,1,484,882,471
127679728,17253,-0.0684,-0.1348,1.0122,-0.4272,0.3052,-0.1221,1,469,869,471
127684740,17254,-0.0659,-0.1348,1.0132,-0.3662,0.3052,-0.1221,1,465,873,471
127689730,17255,-0.0654,-0.1362,1.0142,-0.2441,0.4883,-0.1221,1,476,901,471
127694732,17256,-0.0674,-0.1367,1.0127,-0.3662,0.4272,-0.0610,1,492,870,471
127699728,17257,-0.0693,-0.1362,1.0112,-0.2441,0.3662,-0.2441,1,498,877,471
127704728,17258,-0.0688,-0.1343,1.0112,-0.2441,0.3052,-0.1831,1,467,852,471
127709729,17259,-0.0674,-0.1318,1.0117,-0.3662,0.2441,-0.2441,1,475,836,471
127714726,17260,-0.0664,-0.1313,1.0137,-0.4272,0.2441,-0.3052,1,499,840,471
127719727,17261,-0.0659,-0.1328,1.0146,-0.4883,0.3052,-0.1221,1,509,835,471
127724730,17262,-0.0664,-0.1343,1.0156,-0.3662,0.3052,-0.1831,1,483,849,471
127729727,17263,-0.0664,-0.1348,1.0156,-0.4883,0.1221,-0.2441,1,492,853,471
127734731,17264,-0.0659,-0.1333,1.0137,-0.4883,0.2441,-0.2441,1,493,852,471
127739731,17265,-0.0669,-0.1328,1.0122,-0.5493,0.3052,-0.1831,1,466,885,471
127744730,17266,-0.0684,-0.1343,1.0112,-0.4883,0.3052,-0.1831,1,466,884,471
127749733,17267,-0.0684,-0.1362,1.0112,-0.3662,0.1831,-0.2441,1,466,879,471
127754728,17268,-0.0674,-0.1357,1.0132,-0.2441,0.1831,-0.1221,1,466,888,471
127759732,17269,-0.0654,-0.1343,1.0161,-0.3052,0.2441,-0.1221,1,466,882,471
127764729,17270,-0.0645,-0.1353,1.0161,-0.1831,0.3052,-0.1831,1,466,878,471
127769731,17271,-0.0669,-0.1367,1.0132,-0.2441,0.2441,-0.1831,1,466,881,471
127774729,17272,-0.0684,-0.1377,1.0107,-0.1831,0.2441,-0.1221,1,466,886,471
127779749,17273,-0.0679,-0.1372,1.0098,-0.0610,0.1831,-0.3052,1,484,867,471
127784730,17274,-0.0674,-0.1348,1.0107,0.0000,0.2441,-0.4272,1,465,874,471
127789730,17275,-0.0679,-0.1328,1.0112,0.0000,0.2441,-0.3052,1,499,823,471
127794731,17276,-0.0688,-0.1338,1.0107,0.0000,0.1221,-0.3052,1,482,713,471
127799733,17277,-0.0684,-0.1343,1.0098,0.0000,0.1221,-0.4272,1,493,791,471
127804728,17278,-0.0674,-0.1343,1.0093,-0.0610,0.0000,-0.3052,1,496,780,471
127809731,17279,-0.0679,-0.1348,1.0103,-0.1221,-0.0610,-0.2441,1,482,804,471
127814727,17280,-0.0688,-0.1348,1.0122,0.0610,-0.2441,-0.3052,1,509,826,471
127819731,17281,-0.0679,-0.1338,1.0137,0.0000,-0.2441,-0.3662,1,485,851,471
127824725,17282,-0.0659,-0.1323,1.0156,-0.0610,-0.2441,-0.2441,1,486,807,471
127829733,17283,-0.0645,-0.1313,1.0166,-0.1831,-0.1831,-0.3052,1,492,858,471
127834730,17284,-0.0654,-0.1323,1.0151,-0.0610,-0.1221,-0.3662,1,466,854,471
127839725,17285,-0.0654,-0.1343,1.0137,-0.1831,-0.1221,-0.4272,1,466,882,471
127844730,17286,-0.0649,-0.1357,1.0132,-0.1221,-0.0610,-0.3052,1,466,881,471
127849733,17287,-0.0654,-0.1362,1.0137,-0.0610,0.0000,-0.3052,1,466,876,471
127854729,17288,-0.0659,-0.1357,1.0146,-0.0610,-0.0610,-0.2441,1,466,831,471
127859736,17289,-0.0649,-0.1357,1.0151,-0.0610,0.1221,-0.3662,1,466,883,471
127864734,17290,-0.0640,-0.1357,1.0146,-0.1221,0.1831,-0.3662,1,466,883,471
127869731,17291,-0.0635,-0.1343,1.0137,-0.1221,0.0610,-0.4272,1,483,884,471
127874726,17292,-0.0630,-0.1333,1.0137,0.0000,0.0610,-0.3662,1,475,863,471
127879732,17293,-0.0640,-0.1328,1.0151,-0.1221,0.1221,-0.2441,1,466,890,471
127884726,17294,-0.0645,-0.1318,1.0161,-0.1831,0.3052,-0.2441,1,465,908,471
127889728,17295,-0.0645,-0.1318,1.0166,-0.1831,0.2441,-0.2441,1,480,871,471
127894725,17296,-0.0664,-0.1328,1.0161,-0.2441,0.2441,-0.3052,1,486,885,471
127899728,17297,-0.0674,-0.1343,1.0137,-0.2441,0.3052,-0.3052,1,476,818,471
127904733,17298,-0.0674,-0.1353,1.0112,-0.0610,0.2441,-0.2441,1,504,826,471
127909728,17299,-0.0674,-0.1362,1.0103,0.0000,0.2441,-0.2441,1,495,834,471
127914730,17300,-0.0674,-0.1357,1.0122,-0.1221,0.1221,-0.2441,1,471,806,471
127919733,17301,-0.0664,-0.1348,1.0146,-0.1221,0.0610,-0.2441,1,481,850,471
127924728,17302,-0.0659,-0.1338,1.0166,0.0000,0.1831,-0.2441,1,481,851,471
127929729,17303,-0.0654,-0.1333,1.0156,-0.1221,0.0610,-0.3662,1,492,812,471
127934727,17304,-0.0659,-0.1333,1.0132,-0.0610,0.0610,-0.2441,1,466,884,471
127939728,17305,-0.0654,-0.1338,1.0127,0.0000,0.1831,-0.1831,1,466,882,471
127944726,17306,-0.0649,-0.1348,1.0137,-0.0610,0.1831,-0.1221,1,466,838,471
127949732,17307,-0.0654,-0.1353,1.0142,0.0610,0.1221,-0.2441,1,465,878,471
127954729,17308,-0.0645,-0.1357,1.0146,-0.0610,0.1221,-0.3662,1,466,907,471
127959727,17309,-0.0635,-0.1348,1.0146,0.0000,0.1221,-0.2441,1,466,879,471
127964729,17310,-0.0645,-0.1343,1.0146,0.0610,0.2441,-0.2441,1,483,833,471
127969733,17311,-0.0654,-0.1343,1.0132,-0.0610,0.3052,-0.3052,1,466,881,471
127974739,17312,-0.0654,-0.1343,1.0122,-0.0610,0.2441,-0.2441,1,484,860,471
127979727,17313,-0.0645,-0.1338,1.0122,-0.0610,0.1221,-0.2441,1,466,910,471
127984730,17314,-0.0640,-0.1343,1.0132,-0.0610,0.3052,-0.3052,1,507,932,471
127989725,17315,-0.0645,-0.1357,1.0142,0.0610,0.2441,-0.2441,1,489,865,471
127994730,17316,-0.0669,-0.1353,1.0146,0.0000,0.2441,-0.2441,1,502,791,471
127999731,17317,-0.0674,-0.1338,1.0142,0.0610,0.4272,-0.2441,1,486,790,471
128004730,17318,-0.0679,-0.1338,1.0137,0.0610,0.3052,-0.2441,1,485,832,471
128009730,17319,-0.0679,-0.1353,1.0122,0.0000,0.3052,-0.2441,1,505,827,471
128014729,17320,-0.0679,-0.1357,1.0107,0.1221,0.2441,-0.3052,1,480,803,471
128019729,17321,-0.0679,-0.1357,1.0107,0.1831,0.1831,-0.3662,1,491,848,471
128024727,17322,-0.0679,-0.1353,1.0112,0.2441,0.1221,-0.3662,1,488,856,471
128029731,17323,-0.0679,-0.1348,1.0122,0.3052,0.1831,-0.2441,1,466,852,471
128034727,17324,-0.0684,-0.1338,1.0122,0.2441,0.1221,-0.2441,1,466,880,471
128039730,17325,-0.0688,-0.1333,1.0112,0.3052,0.0000,-0.2441,1,466,882,471
128044725,17326,-0.0679,-0.1333,1.0107,0.3662,0.0000,-0.2441,1,466,839,471
128049731,17327,-0.0654,-0.1343,1.0112,0.4883,0.0610,-0.2441,1,465,840,471
128054738,17328,-0.0645,-0.1348,1.0132,0.3662,0.0000,-0.3052,1,465,883,471
128059729,17329,-0.0649,-0.1328,1.0156,0.2441,0.0610,-0.3052,1,466,829,471
128064733,17330,-0.0654,-0.1304,1.0161,0.1831,0.1221,-0.3052,1,484,881,471
128069734,17331,-0.0659,-0.1309,1.0156,0.2441,0.1831,-0.3662,1,479,865,471
128074731,17332,-0.0664,-0.1333,1.0146,0.2441,0.1221,-0.3662,1,465,883,471
128079727,17333,-0.0669,-0.1338,1.0137,0.2441,0.1831,-0.1221,1,474,911,471
128084731,17334,-0.0669,-0.1333,1.0142,0.1221,0.2441,-0.3052,1,470,875,471
128089726,17335,-0.0659,-0.1328,1.0142,0.1221,0.1221,-0.3662,1,497,863,471
128094726,17336,-0.0649,-0.1333,1.0132,0.1831,0.1221,-0.3052,1,466,840,471
128099728,17337,-0.0640,-0.1328,1.0127,0.1221,0.1221,-0.2441,1,472,831,471
128104729,17338,-0.0640,-0.1318,1.0132,0.1221,0.3052,-0.2441,1,499,829,471
128109726,17339,-0.0659,-0.1318,1.0137,0.0610,0.2441,-0.2441,1,490,866,471
128114732,17340,-0.0664,-0.1328,1.0127,0.1221,0.1221,-0.1831,1,484,856,471
128119730,17341,-0.0659,-0.1333,1.0122,0.1831,0.1831,-0.2441,1,486,850,471
128124726,17342,-0.0649,-0.1323,1.0132,0.0610,0.1831,-0.2441,1,493,862,471
128129729,17343,-0.0640,-0.1309,1.0137,0.1221,0.2441,-0.1831,1,466,884,471
128134733,17344,-0.0645,-0.1309,1.0132,0.1221,0.3052,-0.3052,1,466,878,471
128139726,17345,-0.0659,-0.1328,1.0122,0.1221,0.3052,-0.1831,1,466,865,471
128144729,17346,-0.0664,-0.1343,1.0122,0.0610,0.2441,-0.3052,1,466,880,471
128149732,17347,-0.0659,-0.1328,1.0146,0.0610,0.3052,-0.3662,1,466,879,471
128154727,17348,-0.0659,-0.1313,1.0156,0.1221,0.4272,-0.2441,1,466,881,471
128159727,17349,-0.0654,-0.1313,1.0161,0.0000,0.4883,-0.3052,1,483,885,471
128164729,17350,-0.0654,-0.1313,1.0161,-0.0610,0.4883,-0.2441,1,465,823,471
128169735,17351,-0.0649,-0.1313,1.0166,-0.1831,0.5493,-0.2441,1,484,826,471
128174732,17352,-0.0645,-0.1318,1.0171,-0.1831,0.6714,-0.3052,1,473,888,471
128179734,17353,-0.0640,-0.1318,1.0166,-0.1221,0.6714,-0.3052,1,507,931,471
128184728,17354,-0.0664,-0.1323,1.0156,-0.3052,0.7935,-0.1221,1,492,872,471
128189726,17355,-0.0654,-0.1323,1.0146,-0.2441,0.6714,-0.1221,1,466,783,471
128194725,17356,-0.0649,-0.1328,1.0137,-0.4883,0.6714,-0.2441,1,494,846,471
128199732,17357,-0.0659,-0.1323,1.0122,-0.4272,0.7324,-0.2441,1,493,836,471
128204730,17358,-0.0674,-0.1323,1.0117,-0.4272,0.7935,-0.1221,1,499,843,471
128209726,17359,-0.0674,-0.1328,1.0132,-0.5493,0.9155,-0.1831,1,477,850,471
128214728,17360,-0.0669,-0.1328,1.0132,-0.5493,0.7324,-0.1831,1,469,855,471
128219728,17361,-0.0669,-0.1338,1.0132,-0.5493,0.6714,-0.0610,1,493,857,471
128224727,17362,-0.0669,-0.1353,1.0137,-0.5493,0.6104,0.0000,1,466,875,471
128229728,17363,-0.0674,-0.1343,1.0137,-0.6104,0.7324,-0.1221,1,466,831,471
128234725,17364,-0.0674,-0.1328,1.0146,-0.4272,0.6104,-0.1221,1,465,874,471
128239728,17365,-0.0674,-0.1323,1.0161,-0.4883,0.6104,-0.0610,1,465,880,471
128244733,17366,-0.0669,-0.1313,1.0166,-0.6714,0.6714,-0.1831,1,466,878,471
128249745,17367,-0.0664,-0.1313,1.0142,-0.7935,0.6714,-0.0610,1,466,882,471
128254729,17368,-0.0674,-0.1323,1.0117,-0.6714,0.7324,-0.1221,1,466,879,471
128259733,17369,-0.0684,-0.1333,1.0107,-0.6714,0.8545,-0.2441,1,484,880,471
128264727,17370,-0.0688,-0.1353,1.0107,-0.7324,0.7324,-0.1831,1,475,870,471
128269742,17371,-0.0674,-0.1357,1.0112,-0.4883,0.7324,-0.1221,1,466,836,471
128274731,17372,-0.0664,-0.1343,1.0127,-0.4272,0.6714,-0.1221,1,480,906,471
128279731,17373,-0.0669,-0.1333,1.0137,-0.4883,0.7935,-0.1831,1,503,866,471
128284729,17374,-0.0674,-0.1333,1.0146,-0.4272,0.6714,-0.2441,1,508,876,471
128289731,17375,-0.0669,-0.1333,1.0151,-0.3052,0.6714,-0.1221,1,474,762,471
128294731,17376,-0.0669,-0.1343,1.0137,-0.3052,0.5493,-0.1831,1,501,837,471
128299728,17377,-0.0674,-0.1353,1.0122,-0.2441,0.5493,-0.1221,1,494,831,471
128304730,17378,-0.0674,-0.1357,1.0127,-0.4272,0.6714,-0.2441,1,491,833,471
128309726,17379,-0.0664,-0.1357,1.0142,-0.4272,0.6104,-0.1831,1,482,853,471
128314731,17380,-0.0674,-0.1343,1.0137,-0.1831,0.6104,-0.1221,1,471,854,471
128319731,17381,-0.0693,-0.1333,1.0122,-0.3052,0.6714,-0.1831,1,493,846,471
128324729,17382,-0.0688,-0.1333,1.0112,-0.3052,0.4272,-0.2441,1,466,883,471
128329728,17383,-0.0674,-0.1333,1.0122,-0.1831,0.3052,-0.1831,1,466,884,471
128334726,17384,-0.0664,-0.1333,1.0137,-0.2441,0.4272,-0.1831,1,466,883,471
128339732,17385,-0.0659,-0.1338,1.0132,-0.1831,0.6104,-0.2441,1,466,888,471
128344734,17386,-0.0659,-0.1333,1.0127,-0.3052,0.6104,-0.1221,1,466,880,471
128349740,17387,-0.0664,-0.1343,1.0127,-0.3052,0.6104,-0.1831,1,466,873,471
128354733,17388,-0.0679,-0.1357,1.0122,-0.1831,0.6104,-0.1221,1,466,876,471
128359732,17389,-0.0684,-0.1362,1.0117,-0.1221,0.6104,-0.1221,1,483,881,471
128364730,17390,-0.0679,-0.1357,1.0122,-0.1831,0.4883,-0.0610,1,473,863,471
128369741,17391,-0.0659,-0.1353,1.0142,-0.2441,0.5493,-0.0610,1,465,832,471
128374730,17392,-0.0654,-0.1357,1.0146,-0.0610,0.6714,-0.1831,1,477,909,471
128379729,17393,-0.0664,-0.1357,1.0132,0.0000,0.5493,-0.0610,1,493,873,471
128384726,17394,-0.0674,-0.1353,1.0122,0.0000,0.4883,-0.1221,1,499,742,471
128389734,17395,-0.0669,-0.1372,1.0122,-0.0610,0.5493,-0.2441,1,466,782,471
128394727,17396,-0.0659,-0.1362,1.0127,0.0000,0.6104,-0.0610,1,484,810,471
128399727,17397,-0.0659,-0.1338,1.0151,-0.1221,0.6714,-0.1221,1,490,785,471
128404730,17398,-0.0688,-0.1333,1.0151,-0.1221,0.7324,-0.2441,1,509,829,471
128409732,17399,-0.0708,-0.1353,1.0132,0.0610,0.6714,-0.0610,1,478,857,471
128414725,17400,-0.0713,-0.1357,1.0107,0.0610,0.6104,0.0000,1,487,843,471
128419734,17401,-0.0708,-0.1362,1.0103,0.0610,0.3662,-0.1221,1,493,801,471
128424729,17402,-0.0693,-0.1362,1.0112,0.1221,0.3052,-0.1831,1,466,845,471
128429732,17403,-0.0674,-0.1348,1.0122,0.1221,0.3662,-0.0610,1,465,880,471
128434726,17404,-0.0679,-0.1348,1.0117,0.1831,0.3662,0.0000,1,466,878,471
128439725,17405,-0.0684,-0.1362,1.0103,0.3052,0.3052,-0.1831,1,466,838,471
128444730,17406,-0.0679,-0.1357,1.0112,0.3662,0.4272,-0.1831,1,466,872,471
128449729,17407,-0.0688,-0.1338,1.0132,0.3662,0.3662,-0.1831,1,466,887,471
128454728,17408,-0.0693,-0.1338,1.0146,0.2441,0.3052,-0.1831,1,465,885,471
128459729,17409,-0.0674,-0.1333,1.0146,0.2441,0.3662,-0.1831,1,466,883,471
128464728,17410,-0.0659,-0.1323,1.0142,0.1221,0.4883,-0.1831,1,465,888,471
128469733,17411,-0.0664,-0.1333,1.0132,0.1221,0.3662,-0.2441,1,484,870,471
128474754,17412,-0.0669,-0.1357,1.0132,0.2441,0.2441,-0.2441,1,466,879,471
128479731,17413,-0.0669,-0.1362,1.0142,0.3052,0.3662,-0.3052,1,477,912,471
128484725,17414,-0.0679,-0.1348,1.0156,0.1831,0.4272,-0.1831,1,482,862,471
128489728,17415,-0.0684,-0.1348,1.0142,0.2441,0.3662,-0.3052,1,497,882,471
128494730,17416,-0.0674,-0.1338,1.0117,0.3052,0.3052,-0.2441,1,477,755,471
128499730,17417,-0.0664,-0.1323,1.0117,0.3052,0.2441,-0.1831,1,503,837,471
128504727,17418,-0.0669,-0.1323,1.0137,0.1831,0.3052,-0.2441,1,495,838,471
128509730,17419,-0.0679,-0.1343,1.0142,0.3662,0.3662,-0.2441,1,492,833,471
128514731,17420,-0.0688,-0.1353,1.0127,0.3052,0.4272,-0.2441,1,480,852,471
128519732,17421,-0.0693,-0.1348,1.0112,0.2441,0.3052,-0.1831,1,488,851,471
128524732,17422,-0.0688,-0.1338,1.0112,0.2441,0.3662,-0.1221,1,493,853,471
128529733,17423,-0.0674,-0.1333,1.0122,0.2441,0.3662,-0.1831,1,494,854,471
128534725,17424,-0.0674,-0.1343,1.0132,0.2441,0.3052,-0.2441,1,466,887,471
128539727,17425,-0.0684,-0.1353,1.0127,0.3052,0.3052,-0.3052,1,466,879,471
128544732,17426,-0.0693,-0.1343,1.0127,0.3052,0.3052,-0.2441,1,466,869,471
128549730,17427,-0.0688,-0.1338,1.0122,0.2441,0.1831,-0.1831,1,466,874,471
128554736,17428,-0.0688,-0.1338,1.0107,0.3662,0.3052,-0.3052,1,465,889,471
128559727,17429,-0.0688,-0.1328,1.0103,0.3052,0.1831,-0.3052,1,466,876,471
128564733,17430,-0.0693,-0.1313,1.0117,0.2441,0.1831,-0.2441,1,484,875,471
128569725,17431,-0.0698,-0.1318,1.0127,0.3052,0.1221,-0.3052,1,474,880,471
128574741,17432,-0.0679,-0.1338,1.0132,0.3662,0.1221,-0.3052,1,465,899,471
128579732,17433,-0.0664,-0.1348,1.0137,0.1831,0.0610,-0.3052,1,482,898,471
128584733,17434,-0.0659,-0.1343,1.0142,0.1221,0.1831,-0.1831,1,501,865,471
128589725,17435,-0.0659,-0.1338,1.0142,0.1831,0.2441,-0.3052,1,505,876,471
128594730,17436,-0.0669,-0.1338,1.0137,0.2441,0.1831,-0.3052,1,477,785,471
128599726,17437,-0.0669,-0.1333,1.0132,0.1831,0.0610,-0.2441,1,501,840,471
128604727,17438,-0.0664,-0.1328,1.0132,0.1831,0.1221,-0.2441,1,495,834,471
128609728,17439,-0.0659,-0.1328,1.0137,0.0610,0.2441,-0.3052,1,488,834,471
128614732,17440,-0.0659,-0.1328,1.0151,-0.0610,0.2441,-0.4272,1,477,849,471
128619731,17441,-0.0659,-0.1323,1.0156,0.0000,0.3052,-0.2441,1,484,858,471
128624727,17442,-0.0664,-0.1318,1.0151,-0.1831,0.3052,-0.2441,1,493,807,471
128629730,17443,-0.0669,-0.1318,1.0146,-0.1221,0.3052,-0.1831,1,493,856,471
128634730,17444,-0.0669,-0.1318,1.0137,-0.0610,0.3052,-0.1831,1,466,877,471
128639730,17445,-0.0679,-0.1333,1.0127,-0.2441,0.3662,-0.3052,1,466,876,471
128644728,17446,-0.0674,-0.1338,1.0122,-0.2441,0.3662,-0.3052,1,466,880,471
128649725,17447,-0.0669,-0.1343,1.0137,-0.1221,0.3052,-0.2441,1,466,881,471
128654732,17448,-0.0664,-0.1348,1.0146,-0.3052,0.3662,-0.2441,1,466,875,471
128659729,17449,-0.0674,-0.1348,1.0146,-0.0610,0.3052,-0.2441,1,466,882,471
128664731,17450,-0.0684,-0.1338,1.0132,0.0000,0.4272,-0.3052,1,484,878,471
128669730,17451,-0.0684,-0.1343,1.0117,-0.0610,0.4272,-0.3052,1,468,770,471
128674728,17452,-0.0679,-0.1357,1.0112,-0.1221,0.3662,-0.2441,1,483,820,471
128679728,17453,-0.0674,-0.1348,1.0127,-0.0610,0.3662,-0.2441,1,480,912,471
128684730,17454,-0.0674,-0.1333,1.0156,-0.0610,0.3052,-0.2441,1,507,918,471
128689731,17455,-0.0659,-0.1343,1.0166,-0.1221,0.3052,-0.3662,1,466,867,471
128694726,17456,-0.0649,-0.1338,1.0161,-0.0610,0.2441,-0.2441,1,493,874,471
128699725,17457,-0.0654,-0.1323,1.0146,-0.1221,0.3052,-0.2441,1,481,817,471
128704726,17458,-0.0674,-0.1328,1.0137,-0.1221,0.4272,-0.3052,1,505,834,471
128709730,17459,-0.0693,-0.1333,1.0132,-0.1221,0.4883,-0.2441,1,498,828,471
128714731,17460,-0.0684,-0.1328,1.0127,-0.1831,0.4272,-0.1831,1,487,871,471
128719728,17461,-0.0669,-0.1328,1.0132,-0.1831,0.4272,-0.2441,1,474,857,471
128724733,17462,-0.0674,-0.1343,1.0132,-0.1831,0.4272,-0.3052,1,482,856,471
128729726,17463,-0.0679,-0.1348,1.0117,-0.1831,0.4883,-0.2441,1,493,848,471
128734732,17464,-0.0684,-0.1338,1.0107,-0.2441,0.4883,-0.2441,1,466,882,471
128739731,17465,-0.0688,-0.1333,1.0112,-0.1831,0.4883,-0.3052,1,466,881,471
128744732,17466,-0.0693,-0.1338,1.0132,-0.1831,0.5493,-0.2441,1,466,883,471
128749725,17467,-0.0688,-0.1343,1.0146,-0.1221,0.6104,-0.1831,1,466,887,471
128754733,17468,-0.0674,-0.1338,1.0151,-0.3052,0.5493,-0.3052,1,466,879,471
128759748,17469,-0.0669,-0.1338,1.0142,-0.2441,0.4883,-0.1831,1,466,875,471
128764727,17470,-0.0674,-0.1343,1.0132,-0.1831,0.5493,-0.1221,1,465,880,471
128769728,17471,-0.0684,-0.1338,1.0122,-0.2441,0.6104,-0.0610,1,465,879,471
128774733,17472,-0.0688,-0.1338,1.0103,-0.1831,0.6714,-0.1221,1,484,867,471
128779746,17473,-0.0684,-0.1333,1.0103,-0.1221,0.4272,-0.1221,1,465,873,471
128784732,17474,-0.0679,-0.1338,1.0117,-0.1221,0.4883,-0.2441,1,466,862,471
128789729,17475,-0.0679,-0.1343,1.0132,-0.2441,0.4883,-0.1221,1,508,868,471
128794726,17476,-0.0679,-0.1343,1.0137,-0.1831,0.4272,-0.1831,1,497,865,471
128799725,17477,-0.0674,-0.1338,1.0142,-0.2441,0.4272,-0.1831,1,509,757,471
128804727,17478,-0.0674,-0.1323,1.0146,-0.2441,0.4883,-0.1831,1,494,835,471
128809734,17479,-0.0674,-0.1323,1.0137,-0.1831,0.5493,-0.2441,1,507,838,471
128814727,17480,-0.0688,-0.1328,1.0117,-0.2441,0.6714,-0.1831,1,474,878,471
128819726,17481,-0.0688,-0.1328,1.0117,-0.3052,0.5493,-0.2441,1,474,860,471
128824730,17482,-0.0679,-0.1338,1.0142,-0.2441,0.4883,-0.0610,1,485,856,471
128829726,17483,-0.0669,-0.1357,1.0151,-0.3052,0.4883,-0.1221,1,493,847,471
128834734,17484,-0.0669,-0.1353,1.0132,-0.3052,0.7324,-0.1221,1,466,874,471
128839733,17485,-0.0674,-0.1343,1.0122,-0.3052,0.6714,-0.1831,1,466,874,471
128844725,17486,-0.0684,-0.1333,1.0127,-0.3052,0.6104,-0.2441,1,466,878,471
128849734,17487,-0.0693,-0.1328,1.0127,-0.3052,0.6714,-0.0610,1,465,877,471
128854728,17488,-0.0698,-0.1338,1.0112,-0.3052,0.6714,-0.1221,1,466,876,471
128859728,17489,-0.0684,-0.1357,1.0117,-0.2441,0.6104,-0.1831,1,466,876,471
128864734,17490,-0.0674,-0.1353,1.0142,-0.1831,0.7324,0.0000,1,483,884,471
128869728,17491,-0.0674,-0.1338,1.0156,-0.2441,0.7324,-0.0610,1,467,824,471
128874735,17492,-0.0684,-0.1338,1.0151,-0.2441,0.7324,-0.1221,1,465,879,471
128879733,17493,-0.0708,-0.1348,1.0132,-0.2441,0.8545,-0.1221,1,466,920,471
128884729,17494,-0.0713,-0.1353,1.0112,-0.2441,0.7324,-0.1221,1,498,865,471
128889733,17495,-0.0679,-0.1333,1.0132,-0.1831,0.8545,-0.1831,1,487,868,471
128894730,17496,-0.0669,-0.1323,1.0156,-0.3052,0.9155,-0.1221,1,467,788,471
128899726,17497,-0.0688,-0.1333,1.0146,-0.3052,1.0376,-0.0610,1,499,811,471
128904728,17498,-0.0698,-0.1353,1.0127,-0.1831,0.9155,-0.1221,1,500,831,471
128909726,17499,-0.0693,-0.1343,1.0122,-0.1831,0.7935,-0.0610,1,473,850,471
128914728,17500,-0.0679,-0.1333,1.0132,-0.3052,0.7935,-0.0610,1,487,852,471
128919725,17501,-0.0679,-0.1353,1.0132,-0.4272,0.8545,-0.1831,1,474,846,471
128924725,17502,-0.0703,-0.1362,1.0103,-0.3052,0.9155,-0.1221,1,492,851,471
128929728,17503,-0.0713,-0.1348,1.0083,-0.1831,0.7935,-0.0610,1,465,874,471
128934728,17504,-0.0703,-0.1353,1.0093,-0.1221,0.6714,-0.0610,1,466,877,471
128939727,17505,-0.0698,-0.1372,1.0107,0.0000,0.7324,-0.1221,1,465,871,471
128944727,17506,-0.0703,-0.1377,1.0117,-0.0610,0.7324,-0.1221,1,466,836,471
128949725,17507,-0.0703,-0.1357,1.0122,0.0000,0.6104,-0.1221,1,466,878,471
128954742,17508,-0.0713,-0.1353,1.0127,-0.0610,0.6104,-0.1831,1,466,830,471
128959731,17509,-0.0708,-0.1353,1.0127,0.0000,0.5493,-0.1831,1,466,874,471
128964733,17510,-0.0688,-0.1343,1.0132,0.1221,0.6104,-0.2441,1,483,824,471
128969726,17511,-0.0669,-0.1328,1.0132,0.0610,0.6104,-0.1831,1,480,865,471
128974738,17512,-0.0674,-0.1333,1.0132,0.1221,0.5493,-0.1221,1,465,904,471
128979727,17513,-0.0688,-0.1338,1.0137,0.0610,0.5493,-0.1831,1,474,931,471
128984728,17514,-0.0703,-0.1333,1.0137,0.0000,0.5493,-0.1221,1,493,870,471
128989728,17515,-0.0713,-0.1333,1.0137,0.1221,0.4883,-0.0610,1,497,739,471
128994729,17516,-0.0718,-0.1338,1.0132,0.0000,0.6104,-0.1221,1,482,752,471
128999731,17517,-0.0703,-0.1333,1.0127,0.0610,0.6104,-0.1221,1,487,778,471
129004730,17518,-0.0698,-0.1333,1.0117,0.1221,0.6104,-0.1221,1,504,825,471
129009728,17519,-0.0723,-0.1348,1.0098,0.1831,0.4883,-0.1221,1,480,868,471
129014725,17520,-0.0732,-0.1353,1.0098,0.2441,0.2441,-0.1221,1,490,844,471
129019733,17521,-0.0718,-0.1348,1.0117,0.1221,0.2441,-0.1221,1,481,850,471
129024731,17522,-0.0698,-0.1333,1.0137,0.1221,0.3662,-0.0610,1,492,847,471
129029732,17523,-0.0698,-0.1318,1.0146,0.1221,0.4272,-0.1831,1,466,877,471
129034725,17524,-0.0703,-0.1328,1.0146,0.0610,0.2441,-0.2441,1,465,885,471
129039732,17525,-0.0703,-0.1343,1.0142,0.0610,0.3052,-0.2441,1,466,885,471
129044728,17526,-0.0713,-0.1357,1.0137,0.1221,0.3662,-0.2441,1,466,874,471
129049730,17527,-0.0708,-0.1353,1.0146,0.2441,0.2441,-0.1221,1,466,881,471
129054725,17528,-0.0693,-0.1333,1.0151,0.2441,0.3052,-0.1831,1,466,883,471
129059725,17529,-0.0688,-0.1323,1.0142,0.0000,0.3052,-0.2441,1,466,885,471
129064727,17530,-0.0688,-0.1313,1.0137,0.0610,0.1831,-0.2441,1,483,834,471
129069732,17531,-0.0693,-0.1313,1.0132,0.1221,0.3052,-0.1831,1,465,873,471
129074725,17532,-0.0703,-0.1333,1.0127,0.1221,0.2441,-0.1831,1,484,867,471
129079759,17533,-0.0703,-0.1348,1.0122,0.2441,0.1221,-0.2441,1,477,908,471
129084733,17534,-0.0698,-0.1348,1.0122,0.1221,0.1831,-0.1831,1,471,919,471
129089728,17535,-0.0693,-0.1343,1.0137,0.1831,0.2441,-0.2441,1,480,871,471
129094727,17536,-0.0688,-0.1323,1.0151,0.0610,0.2441,-0.3052,1,510,882,471
129099732,17537,-0.0688,-0.1313,1.0146,0.0000,0.2441,-0.3052,1,472,796,471
129104731,17538,-0.0684,-0.1313,1.0132,0.0000,0.2441,-0.1221,1,494,790,471
129109733,17539,-0.0693,-0.1323,1.0112,0.0610,0.1831,-0.1831,1,495,785,471
129114733,17540,-0.0708,-0.1343,1.0103,0.1221,0.0000,-0.1221,1,488,857,471
129119731,17541,-0.0718,-0.1357,1.0112,0.1831,0.0610,-0.2441,1,475,795,471
129124726,17542,-0.0718,-0.1353,1.0127,0.1831,-0.0610,-0.2441,1,485,856,471
129129726,17543,-0.0703,-0.1348,1.0137,0.1221,0.0000,-0.1221,1,493,850,471
129134727,17544,-0.0688,-0.1348,1.0132,0.1831,0.0610,-0.1831,1,466,797,471
129139726,17545,-0.0693,-0.1348,1.0127,0.1221,0.0610,-0.3052,1,466,880,471
129144730,17546,-0.0688,-0.1348,1.0127,0.1831,0.0610,-0.2441,1,466,872,471
129149726,17547,-0.0679,-0.1343,1.0137,0.2441,0.0610,-0.2441,1,465,883,471
129154727,17548,-0.0679,-0.1328,1.0142,0.1831,0.0610,-0.2441,1,466,880,471
129159726,17549,-0.0674,-0.1323,1.0146,0.1221,0.0000,-0.1221,1,466,882,471
129164730,17550,-0.0674,-0.1318,1.0146,0.0610,0.1831,-0.2441,1,466,831,471
129169728,17551,-0.0684,-0.1318,1.0137,0.0000,0.1831,-0.3052,1,466,884,471
129174729,17552,-0.0684,-0.1323,1.0137,0.0000,0.2441,-0.1831,1,484,774,471
129179731,17553,-0.0679,-0.1323,1.0137,0.1221,0.3052,-0.1831,1,465,890,471
129184730,17554,-0.0679,-0.1318,1.0137,0.0000,0.1831,-0.2441,1,472,931,471
129189725,17555,-0.0684,-0.1323,1.0137,0.0000,0.2441,-0.3052,1,502,834,471
129194732,17556,-0.0684,-0.1343,1.0137,-0.0610,0.3052,-0.1831,1,491,738,471
129199733,17557,-0.0688,-0.1348,1.0146,0.0610,0.2441,-0.0610,1,507,800,471
129204725,17558,-0.0693,-0.1343,1.0151,-0.0610,0.2441,-0.2441,1,469,843,471
129209732,17559,-0.0693,-0.1338,1.0142,0.0000,0.3662,-0.2441,1,498,837,471
129214730,17560,-0.0693,-0.1338,1.0122,-0.1221,0.1831,-0.2441,1,502,810,471
129219734,17561,-0.0684,-0.1343,1.0112,0.0000,0.1831,-0.1831,1,475,854,471
129224731,17562,-0.0684,-0.1348,1.0122,0.0610,0.2441,-0.1831,1,483,809,471
129229731,17563,-0.0679,-0.1343,1.0137,-0.0610,0.1831,-0.2441,1,489,853,471
129234731,17564,-0.0679,-0.1338,1.0146,0.0000,0.1221,-0.1831,1,493,850,471
129239734,17565,-0.0688,-0.1333,1.0137,-0.0610,0.2441,-0.1831,1,466,832,471
129244734,17566,-0.0703,-0.1338,1.0122,-0.0610,0.2441,-0.1221,1,466,884,471
129249729,17567,-0.0698,-0.1343,1.0127,-0.1221,0.1221,-0.1831,1,466,878,471
129254727,17568,-0.0688,-0.1343,1.0146,-0.1221,0.0610,-0.1831,1,466,876,471
129259731,17569,-0.0688,-0.1333,1.0146,0.0000,0.2441,-0.2441,1,466,881,471
129264731,17570,-0.0684,-0.1318,1.0142,0.0000,0.3662,-0.1221,1,466,842,471
129269726,17571,-0.0679,-0.1323,1.0137,-0.1221,0.3662,-0.1831,1,483,831,471
129274729,17572,-0.0674,-0.1328,1.0132,-0.0610,0.3052,-0.1221,1,467,870,471
129279731,17573,-0.0674,-0.1328,1.0122,0.0000,0.3052,-0.1221,1,484,861,471
129284728,17574,-0.0679,-0.1333,1.0122,-0.1221,0.3052,-0.1831,1,476,819,471
129289732,17575,-0.0693,-0.1348,1.0127,-0.1221,0.1831,-0.2441,1,481,931,471
129294731,17576,-0.0708,-0.1353,1.0132,-0.1831,0.1831,-0.2441,1,465,869,471
129299725,17577,-0.0703,-0.1343,1.0146,0.0610,0.2441,-0.1221,1,495,880,471
129304727,17578,-0.0684,-0.1333,1.0146,-0.0610,0.3662,-0.1221,1,482,792,471
129309732,17579,-0.0674,-0.1328,1.0127,-0.1221,0.2441,-0.1831,1,480,833,471
129314731,17580,-0.0698,-0.1328,1.0107,-0.1221,0.2441,-0.1831,1,500,834,471
129319732,17581,-0.0713,-0.1333,1.0098,-0.0610,0.3052,-0.1831,1,474,875,471
129324733,17582,-0.0708,-0.1343,1.0107,-0.1221,0.1221,-0.2441,1,481,845,471
129329730,17583,-0.0693,-0.1353,1.0127,0.0610,0.1221,-0.3662,1,488,848,471
129334731,17584,-0.0684,-0.1343,1.0142,0.1221,0.0610,-0.2441,1,493,847,471
129339727,17585,-0.0679,-0.1328,1.0142,-0.1221,0.1831,-0.2441,1,466,845,471
129344730,17586,-0.0684,-0.1328,1.0142,-0.1221,0.2441,-0.1831,1,466,879,471
129349734,17587,-0.0698,-0.1343,1.0137,0.0000,0.1221,-0.1831,1,466,881,471
129354725,17588,-0.0698,-0.1348,1.0142,0.0610,0.0610,-0.2441,1,466,834,471
129359726,17589,-0.0684,-0.1338,1.0146,-0.0610,0.0610,-0.3052,1,466,878,471
129364749,17590,-0.0674,-0.1328,1.0142,-0.1221,0.1831,-0.2441,1,466,873,471
129369725,17591,-0.0669,-0.1323,1.0146,-0.2441,0.1831,-0.2441,1,466,881,471
129374729,17592,-0.0674,-0.1313,1.0151,-0.2441,0.2441,-0.2441,1,465,888,471
129379730,17593,-0.0679,-0.1313,1.0132,-0.2441,0.3662,-0.1831,1,484,878,471
129384733,17594,-0.0674,-0.1333,1.0117,-0.1831,0.3052,-0.1221,1,466,884,471
129389732,17595,-0.0669,-0.1362,1.0122,-0.1831,0.1831,-0.2441,1,474,932,471
129394725,17596,-0.0659,-0.1348,1.0146,-0.1221,0.3662,-0.2441,1,504,876,471
129399727,17597,-0.0659,-0.1323,1.0156,-0.1831,0.4272,-0.1221,1,496,881,471
129404732,17598,-0.0669,-0.1323,1.0142,-0.3052,0.4883,-0.1221,1,478,762,471
129409725,17599,-0.0688,-0.1328,1.0117,-0.2441,0.3662,-0.3052,1,477,836,471
129414730,17600,-0.0703,-0.1328,1.0103,0.0000,0.1221,-0.2441,1,506,838,471
129419725,17601,-0.0703,-0.1333,1.0107,-0.1831,0.3052,-0.1831,1,509,810,471
129424733,17602,-0.0693,-0.1338,1.0127,-0.1831,0.3052,-0.2441,1,489,852,471
129429726,17603,-0.0688,-0.1338,1.0127,-0.1221,0.1221,-0.1831,1,491,853,471
129434729,17604,-0.0693,-0.1338,1.0127,-0.1221,0.1831,-0.2441,1,492,848,471
129439732,17605,-0.0698,-0.1338,1.0127,-0.1221,0.1831,-0.2441,1,493,852,471
129444727,17606,-0.0698,-0.1338,1.0132,-0.1221,0.4272,-0.1831,1,466,881,471
129449733,17607,-0.0693,-0.1333,1.0127,-0.0610,0.3662,-0.3052,1,466,881,471
129454726,17608,-0.0703,-0.1333,1.0103,-0.0610,0.2441,-0.2441,1,465,880,471
129459725,17609,-0.0718,-0.1348,1.0093,0.0000,0.1221,-0.2441,1,466,882,471
129464743,17610,-0.0708,-0.1353,1.0117,0.1221,0.0610,-0.1831,1,466,827,471
129469726,17611,-0.0679,-0.1338,1.0146,0.1221,0.0000,-0.2441,1,466,878,471
129474731,17612,-0.0664,-0.1323,1.0151,0.1221,0.0610,-0.2441,1,466,821,471
129479727,17613,-0.0674,-0.1323,1.0142,0.0610,0.2441,-0.3052,1,479,872,471
129484728,17614,-0.0684,-0.1333,1.0137,0.0610,0.1831,-0.1831,1,465,874,471
129489733,17615,-0.0688,-0.1338,1.0137,0.0000,0.1831,-0.2441,1,474,919,471
129494730,17616,-0.0698,-0.1338,1.0137,0.0000,0.2441,-0.2441,1,498,834,471
129499725,17617,-0.0703,-0.1338,1.0137,-0.0610,0.2441,-0.2441,1,485,833,471
129504726,17618,-0.0688,-0.1333,1.0132,0.0610,0.3052,-0.2441,1,474,785,471
129509732,17619,-0.0679,-0.1328,1.0127,0.0610,0.3662,-0.1221,1,476,841,471
129514730,17620,-0.0679,-0.1333,1.0132,0.0610,0.3662,-0.1221,1,489,829,471
129519730,17621,-0.0688,-0.1348,1.0127,-0.0610,0.3052,-0.2441,1,492,829,471
129524731,17622,-0.0703,-0.1353,1.0112,-0.0610,0.2441,-0.1831,1,481,869,471
129529725,17623,-0.0708,-0.1343,1.0112,0.0610,0.3052,-0.2441,1,491,880,471
129534726,17624,-0.0708,-0.1328,1.0112,0.0610,0.1831,-0.3052,1,481,848,471
129539727,17625,-0.0698,-0.1328,1.0107,0.1221,0.3052,-0.1831,1,492,851,471
129544727,17626,-0.0688,-0.1338,1.0112,0.1831,0.1221,-0.1831,1,466,876,471
129549726,17627,-0.0693,-0.1348,1.0107,0.1221,0.0610,-0.2441,1,466,882,471
129554730,17628,-0.0698,-0.1343,1.0117,0.1221,0.1221,-0.1831,1,466,878,471
129559731,17629,-0.0693,-0.1328,1.0137,0.0610,-0.0610,-0.2441,1,466,878,471
129564731,17630,-0.0684,-0.1323,1.0146,0.1221,0.0610,-0.3052,1,466,881,471
129569751,17631,-0.0688,-0.1333,1.0146,-0.0610,0.0610,-0.2441,1,466,875,471
129574727,17632,-0.0698,-0.1328,1.0146,0.0000,0.1221,-0.1831,1,466,884,471
129579728,17633,-0.0693,-0.1323,1.0151,-0.0610,0.1221,-0.3052,1,465,826,471
129584725,17634,-0.0679,-0.1323,1.0151,0.0000,0.2441,-0.2441,1,484,865,471
129589736,17635,-0.0684,-0.1323,1.0137,0.0000,0.1831,-0.1831,1,465,828,471
129594729,17636,-0.0693,-0.1323,1.0132,0.0610,0.2441,-0.2441,1,472,827,471
129599729,17637,-0.0679,-0.1333,1.0137,-0.1221,0.1831,-0.2441,1,506,872,471
129604732,17638,-0.0674,-0.1338,1.0132,-0.0610,0.1831,-0.2441,1,490,879,471
129609731,17639,-0.0693,-0.1343,1.0122,-0.1831,0.2441,-0.3662,1,493,877,471
129614729,17640,-0.0713,-0.1348,1.0117,-0.1831,0.3052,-0.3052,1,474,863,471
129619731,17641,-0.0713,-0.1338,1.0112,0.0000,0.3662,-0.3052,1,492,828,471
129624731,17642,-0.0693,-0.1333,1.0117,0.0610,0.3052,-0.3052,1,499,805,471
129629729,17643,-0.0679,-0.1328,1.0127,0.0000,0.1831,-0.3662,1,490,868,471
129634726,17644,-0.0669,-0.1318,1.0142,0.0610,0.2441,-0.3052,1,481,809,471
129639728,17645,-0.0664,-0.1313,1.0142,0.0610,0.3052,-0.3052,1,486,847,471
129644732,17646,-0.0679,-0.1318,1.0137,-0.0610,0.3662,-0.3052,1,493,844,471
129649731,17647,-0.0698,-0.1328,1.0132,-0.0610,0.4272,-0.3052,1,466,875,471
129654733,17648,-0.0708,-0.1343,1.0122,-0.0610,0.2441,-0.3662,1,466,878,471
129659733,17649,-0.0703,-0.1343,1.0117,0.0610,0.1831,-0.3052,1,466,882,471
129664729,17650,-0.0693,-0.1338,1.0127,0.1831,0.1831,-0.2441,1,466,876,471
129669731,17651,-0.0693,-0.1338,1.0127,0.1221,0.0000,-0.2441,1,466,885,471
129674725,17652,-0.0698,-0.1338,1.0117,0.1831,0.0000,-0.3052,1,466,833,471
129679727,17653,-0.0698,-0.1338,1.0117,0.1831,0.0610,-0.3662,1,483,834,471
129684732,17654,-0.0693,-0.1333,1.0122,0.1221,0.0610,-0.3662,1,465,872,471
129689730,17655,-0.0698,-0.1328,1.0122,0.1831,0.0000,-0.3052,1,484,871,471
129694754,17656,-0.0703,-0.1338,1.0127,0.1831,-0.0610,-0.1831,1,467,826,471
129699727,17657,-0.0693,-0.1333,1.0137,0.1831,0.0000,-0.2441,1,470,918,471
129704726,17658,-0.0688,-0.1318,1.0146,0.2441,0.0610,-0.3662,1,480,838,471
129709725,17659,-0.0688,-0.1299,1.0146,0.1221,0.0610,-0.2441,1,467,838,471
129714727,17660,-0.0684,-0.1304,1.0156,0.0610,0.0000,-0.3052,1,495,786,471
129719729,17661,-0.0679,-0.1318,1.0151,0.0610,0.0610,-0.1831,1,496,779,471
129724729,17662,-0.0679,-0.1328,1.0146,0.0000,0.1221,-0.3052,1,492,833,471
129729730,17663,-0.0679,-0.1333,1.0142,0.0610,0.1831,-0.3662,1,486,801,471
129734734,17664,-0.0684,-0.1328,1.0127,0.1221,0.0610,-0.3052,1,491,852,471
129739733,17665,-0.0693,-0.1328,1.0117,0.0610,0.0000,-0.3662,1,491,843,471
129744727,17666,-0.0698,-0.1338,1.0122,0.1221,0.1221,-0.4272,1,478,809,471
129749725,17667,-0.0688,-0.1338,1.0127,0.0610,0.1831,-0.3662,1,494,848,471
129754733,17668,-0.0669,-0.1318,1.0142,0.0610,0.1831,-0.3052,1,466,881,471
129759730,17669,-0.0669,-0.1309,1.0151,0.1831,0.1831,-0.2441,1,466,876,471
129764729,17670,-0.0688,-0.1318,1.0146,0.2441,0.1831,-0.2441,1,466,885,471
129769728,17671,-0.0698,-0.1328,1.0132,0.1831,0.1221,-0.2441,1,465,891,471
129774726,17672,-0.0698,-0.1338,1.0117,0.0610,0.1221,-0.2441,1,466,884,471
129779730,17673,-0.0703,-0.1333,1.0122,0.2441,0.1221,-0.2441,1,465,879,471
129784727,17674,-0.0703,-0.1318,1.0137,0.2441,0.1221,-0.2441,1,465,883,471
129789731,17675,-0.0703,-0.1318,1.0151,0.3052,0.0610,-0.2441,1,484,870,471
129794743,17676,-0.0703,-0.1318,1.0146,0.1831,0.1831,-0.1831,1,466,905,471
129799733,17677,-0.0703,-0.1323,1.0132,0.1831,0.0610,-0.2441,1,473,927,471
129804725,17678,-0.0698,-0.1323,1.0127,0.1831,0.0000,-0.3052,1,492,870,471
129809729,17679,-0.0698,-0.1318,1.0127,0.0610,0.2441,-0.2441,1,480,713,471
129814728,17680,-0.0688,-0.1318,1.0127,0.0000,0.0610,-0.2441,1,505,811,471
129819732,17681,-0.0679,-0.1323,1.0122,0.0610,0.1221,-0.2441,1,489,788,471
129824725,17682,-0.0674,-0.1323,1.0132,0.2441,0.0610,-0.2441,1,505,832,471
129829726,17683,-0.0669,-0.1328,1.0142,0.1221,0.2441,-0.3052,1,483,874,471
129834734,17684,-0.0679,-0.1343,1.0137,0.1221,0.3052,-0.3052,1,492,866,471
129839732,17685,-0.0693,-0.1338,1.0127,0.1221,0.0610,-0.3052,1,474,839,471
129844734,17686,-0.0693,-0.1333,1.0117,0.1221,0.0610,-0.3052,1,474,844,471
129849725,17687,-0.0684,-0.1338,1.0112,0.1221,0.1831,-0.3052,1,493,848,471
129854734,17688,-0.0679,-0.1328,1.0122,0.2441,0.1831,-0.2441,1,466,875,471
129859726,17689,-0.0674,-0.1309,1.0137,0.1831,0.2441,-0.1831,1,466,888,471
129864732,17690,-0.0674,-0.1313,1.0142,0.0610,0.1831,-0.2441,1,466,881,471
129869732,17691,-0.0679,-0.1323,1.0142,0.1221,0.1221,-0.3052,1,466,882,471
129874746,17692,-0.0679,-0.1333,1.0137,0.1831,0.0610,-0.1831,1,466,871,471
129879731,17693,-0.0679,-0.1333,1.0132,0.1221,0.1831,-0.1831,1,466,881,471
129884725,17694,-0.0669,-0.1318,1.0127,0.1831,0.1831,-0.3052,1,483,880,471
129889729,17695,-0.0664,-0.1313,1.0132,0.1221,0.1221,-0.2441,1,478,869,471
129894733,17696,-0.0664,-0.1318,1.0137,0.1221,0.1831,-0.1831,1,465,875,471
129899728,17697,-0.0669,-0.1313,1.0137,0.1831,0.0610,-0.2441,1,483,909,471
129904733,17698,-0.0679,-0.1313,1.0132,0.1221,0.0610,-0.1831,1,495,870,471
129909725,17699,-0.0684,-0.1323,1.0127,0.0000,0.1831,-0.3052,1,474,865,471
129914727,17700,-0.0679,-0.1328,1.0132,0.0000,0.1221,-0.1221,1,489,710,471
129919725,17701,-0.0688,-0.1328,1.0127,0.0000,0.2441,-0.1831,1,473,780,471
129924730,17702,-0.0693,-0.1328,1.0122,-0.1221,0.2441,-0.3052,1,492,793,471
129929732,17703,-0.0684,-0.1318,1.0132,0.0610,0.1221,-0.3662,1,481,833,471
129934730,17704,-0.0674,-0.1309,1.0142,0.1221,0.1831,-0.1221,1,488,848,471
129939730,17705,-0.0679,-0.1304,1.0137,0.0610,0.2441,-0.1831,1,482,843,471
129944726,17706,-0.0684,-0.1309,1.0137,0.0000,0.1831,-0.2441,1,481,849,471
129949732,17707,-0.0684,-0.1323,1.0137,-0.1221,0.1831,-0.2441,1,493,804,471
129954726,17708,-0.0684,-0.1323,1.0132,-0.0610,0.3052,-0.1221,1,466,880,471
129959731,17709,-0.0693,-0.1309,1.0127,0.0000,0.1831,-0.2441,1,466,873,471
129964725,17710,-0.0693,-0.1304,1.0127,-0.0610,0.2441,-0.3052,1,466,836,471
129969725,17711,-0.0684,-0.1309,1.0122,-0.0610,0.1831,-0.3052,1,466,875,471
129974731,17712,-0.0684,-0.1323,1.0132,-0.1221,0.1831,-0.2441,1,466,874,471
129979725,17713,-0.0693,-0.1348,1.0146,-0.0610,0.3052,-0.4272,1,466,880,471
129984728,17714,-0.0688,-0.1333,1.0132,0.0610,0.3662,-0.2441,1,483,880,471
129989732,17715,-0.0684,-0.1323,1.0127,0.0610,0.3052,-0.1221,1,465,873,471
129994726,17716,-0.0688,-0.1328,1.0117,0.0000,0.3662,-0.2441,1,484,862,471
129999755,17717,-0.0684,-0.1333,1.0112,0.0610,0.2441,-0.1221,1,476,830,471
130004726,17718,-0.0679,-0.1333,1.0122,-0.0610,0.2441,-0.1831,1,474,919,471
130009731,17719,-0.0679,-0.1333,1.0132,-0.0610,0.3052,-0.1831,1,482,874,471
130014727,17720,-0.0674,-0.1328,1.0127,0.0000,0.4272,-0.2441,1,466,873,471
130019729,17721,-0.0674,-0.1313,1.0117,-0.1221,0.3662,-0.2441,1,496,770,471
130024729,17722,-0.0674,-0.1313,1.0117,-0.1831,0.2441,-0.1831,1,494,845,471
130029729,17723,-0.0684,-0.1323,1.0127,-0.2441,0.3052,-0.2441,1,507,842,471
130034730,17724,-0.0698,-0.1323,1.0132,-0.1221,0.3662,-0.1831,1,481,851,471
130039734,17725,-0.0698,-0.1318,1.0137,-0.1221,0.3662,-0.0610,1,489,854,471
130044728,17726,-0.0688,-0.1313,1.0137,-0.1831,0.3052,-0.0610,1,488,850,471
130049727,17727,-0.0684,-0.1318,1.0132,-0.1831,0.4272,-0.1831,1,477,851,471
130054725,17728,-0.0684,-0.1328,1.0122,-0.1831,0.4272,-0.1831,1,493,856,471
130059729,17729,-0.0688,-0.1333,1.0117,-0.1221,0.3662,-0.1831,1,466,886,471
130064733,17730,-0.0693,-0.1323,1.0122,-0.1831,0.3662,-0.1831,1,466,886,471
130069725,17731,-0.0684,-0.1313,1.0132,-0.1831,0.5493,-0.1831,1,466,891,471
130074729,17732,-0.0674,-0.1318,1.0127,-0.1831,0.3662,-0.2441,1,465,887,471
130079746,17733,-0.0669,-0.1323,1.0112,-0.1221,0.3662,-0.2441,1,466,885,471
130084729,17734,-0.0674,-0.1328,1.0107,-0.1221,0.3662,-0.1831,1,466,884,471
130089727,17735,-0.0688,-0.1328,1.0117,-0.0610,0.3052,-0.1831,1,465,881,471
130094729,17736,-0.0693,-0.1318,1.0117,-0.0610,0.3662,-0.2441,1,484,871,471
130099730,17737,-0.0708,-0.1313,1.0112,-0.0610,0.3662,-0.1221,1,465,837,471
130104731,17738,-0.0708,-0.1309,1.0117,-0.0610,0.2441,-0.1831,1,469,920,471
130109725,17739,-0.0679,-0.1304,1.0127,-0.1831,0.3052,-0.2441,1,495,868,471
130114725,17740,-0.0669,-0.1313,1.0137,-0.2441,0.3052,-0.1831,1,506,873,471
130119730,17741,-0.0674,-0.1343,1.0137,-0.1831,0.2441,-0.1831,1,490,876,471
130124733,17742,-0.0684,-0.1348,1.0142,-0.1831,0.4272,-0.1831,1,465,858,471
130129731,17743,-0.0693,-0.1343,1.0146,-0.3052,0.3662,-0.2441,1,485,835,471
130134725,17744,-0.0698,-0.1333,1.0132,-0.1831,0.3052,-0.2441,1,509,836,471
130139727,17745,-0.0693,-0.1333,1.0122,-0.1831,0.2441,-0.2441,1,488,854,471
130144729,17746,-0.0684,-0.1348,1.0132,-0.1221,0.2441,-0.2441,1,486,889,471
130149729,17747,-0.0679,-0.1343,1.0137,-0.2441,0.3052,-0.1221,1,473,850,471
130154732,17748,-0.0674,-0.1328,1.0132,-0.1831,0.3662,-0.1221,1,493,845,471
130159729,17749,-0.0669,-0.1313,1.0137,-0.2441,0.4272,-0.2441,1,466,879,471
130164731,17750,-0.0674,-0.1309,1.0146,-0.1221,0.3662,-0.3052,1,466,885,471
130169728,17751,-0.0674,-0.1304,1.0142,-0.1221,0.4272,-0.1831,1,466,875,471
130174727,17752,-0.0674,-0.1304,1.0137,-0.2441,0.5493,-0.2441,1,466,876,471
130179730,17753,-0.0684,-0.1323,1.0137,-0.2441,0.4883,-0.1831,1,465,882,471
130184731,17754,-0.0693,-0.1343,1.0132,-0.1221,0.4883,-0.1831,1,466,883,471
130189731,17755,-0.0693,-0.1338,1.0127,-0.2441,0.3662,-0.1831,1,484,878,471
130194732,17756,-0.0693,-0.1328,1.0127,-0.3662,0.4272,-0.1221,1,466,874,471
130199726,17757,-0.0684,-0.1328,1.0127,-0.2441,0.6714,-0.1831,1,484,872,471
130204730,17758,-0.0679,-0.1343,1.0127,-0.2441,0.6104,-0.3052,1,483,909,471
130209731,17759,-0.0693,-0.1353,1.0127,-0.2441,0.6104,-0.2441,1,483,863,471
130214732,17760,-0.0698,-0.1343,1.0127,-0.1831,0.4883,-0.1831,1,496,877,471
130219726,17761,-0.0693,-0.1323,1.0122,-0.2441,0.4272,-0.2441,1,480,879,471
130224732,17762,-0.0708,-0.1318,1.0122,-0.1221,0.5493,-0.1221,1,469,815,471
130229732,17763,-0.0708,-0.1323,1.0132,-0.1221,0.6714,-0.1831,1,489,832,471
130234732,17764,-0.0698,-0.1323,1.0137,-0.1831,0.4883,-0.1831,1,505,831,471
130239728,17765,-0.0688,-0.1328,1.0137,-0.1831,0.6104,-0.1831,1,477,858,471
130244728,17766,-0.0693,-0.1338,1.0137,-0.0610,0.5493,0.0000,1,485,854,471
130249734,17767,-0.0693,-0.1333,1.0132,-0.1831,0.6714,-0.1221,1,473,805,471
130254726,17768,-0.0693,-0.1328,1.0122,-0.1221,0.6104,-0.1831,1,493,851,471
130259729,17769,-0.0688,-0.1333,1.0117,-0.1221,0.4883,-0.2441,1,466,879,471
130264725,17770,-0.0693,-0.1348,1.0122,0.0610,0.3052,-0.1221,1,466,884,471
130269733,17771,-0.0708,-0.1348,1.0127,0.1221,0.3052,-0.1221,1,466,874,471
130274730,17772,-0.0718,-0.1333,1.0142,0.0000,0.2441,-0.2441,1,465,871,471
130279731,17773,-0.0713,-0.1328,1.0142,-0.0610,0.4272,-0.2441,1,466,837,471
130284731,17774,-0.0698,-0.1328,1.0142,-0.0610,0.4272,-0.2441,1,466,882,471
130289727,17775,-0.0693,-0.1333,1.0142,0.0000,0.3052,-0.3662,1,484,883,471
130294731,17776,-0.0688,-0.1323,1.0132,0.0000,0.4883,-0.2441,1,465,824,471
130299727,17777,-0.0684,-0.1313,1.0117,-0.0610,0.4272,-0.2441,1,484,835,471
130304728,17778,-0.0684,-0.1313,1.0112,-0.1221,0.4883,-0.3052,1,465,924,471
130309734,17779,-0.0679,-0.1313,1.0127,-0.1831,0.4883,-0.3052,1,465,865,471
130314729,17780,-0.0684,-0.1309,1.0137,-0.2441,0.3662,-0.1831,1,494,874,471
130319729,17781,-0.0698,-0.1313,1.0122,-0.3052,0.4272,-0.3052,1,484,877,471
130324725,17782,-0.0713,-0.1333,1.0117,-0.1831,0.4272,-0.1831,1,469,812,471
130329732,17783,-0.0718,-0.1343,1.0117,-0.1221,0.2441,-0.1831,1,497,849,471
130334725,17784,-0.0708,-0.1343,1.0112,-0.1221,0.1831,-0.3052,1,504,834,471
130339734,17785,-0.0684,-0.1353,1.0122,-0.1221,0.3052,-0.3052,1,483,847,471
130344731,17786,-0.0669,-0.1348,1.0137,-0.0610,0.4272,-0.1831,1,484,842,471
130349732,17787,-0.0674,-0.1328,1.0142,-0.0610,0.3052,-0.2441,1,490,850,471
130354731,17788,-0.0688,-0.1323,1.0146,0.0000,0.1831,-0.1831,1,493,848,471
130359728,17789,-0.0688,-0.1338,1.0142,-0.1221,0.2441,-0.2441,1,466,813,471
130364732,17790,-0.0684,-0.1343,1.0142,-0.0610,0.3052,-0.2441,1,466,881,471
130369726,17791,-0.0698,-0.1333,1.0137,-0.0610,0.2441,-0.3052,1,465,877,471
130374729,17792,-0.0708,-0.1333,1.0127,-0.1221,0.1831,-0.3662,1,466,881,471
130379727,17793,-0.0703,-0.1343,1.0122,-0.1221,0.1831,-0.3052,1,466,881,471
130384729,17794,-0.0688,-0.1338,1.0132,-0.1831,0.1221,-0.3662,1,466,876,471
130389730,17795,-0.0688,-0.1323,1.0151,-0.1221,0.2441,-0.2441,1,483,880,471
130394733,17796,-0.0693,-0.1318,1.0166,-0.1221,0.2441,-0.2441,1,466,885,471
130399726,17797,-0.0688,-0.1313,1.0146,-0.1831,0.1831,-0.1831,1,484,875,471
130404735,17798,-0.0684,-0.1323,1.0137,-0.0610,0.2441,-0.1831,1,467,888,471
130409731,17799,-0.0679,-0.1328,1.0142,-0.1221,0.1831,-0.3052,1,465,871,471
130414727,17800,-0.0669,-0.1323,1.0151,-0.1221,0.3662,-0.3052,1,493,864,471
130419732,17801,-0.0669,-0.1323,1.0156,-0.1221,0.4272,-0.3052,1,481,875,471
130424731,17802,-0.0674,-0.1328,1.0146,-0.2441,0.3052,-0.3052,1,505,874,471
130429728,17803,-0.0684,-0.1338,1.0132,-0.1221,0.3052,-0.3052,1,487,841,471
130434732,17804,-0.0698,-0.1333,1.0117,-0.1221,0.3662,-0.2441,1,504,821,471
130439727,17805,-0.0708,-0.1328,1.0117,-0.1831,0.3052,-0.3662,1,474,857,471
130444729,17806,-0.0703,-0.1333,1.0122,-0.1221,0.3052,-0.2441,1,488,853,471
130449727,17807,-0.0698,-0.1333,1.0122,-0.0610,0.3662,-0.3052,1,489,849,471
130454730,17808,-0.0688,-0.1333,1.0122,-0.1221,0.3052,-0.1831,1,476,852,471
130459733,17809,-0.0693,-0.1338,1.0122,-0.1221,0.2441,-0.3052,1,493,854,471
130464726,17810,-0.0703,-0.1343,1.0117,-0.0610,0.2441,-0.2441,1,466,878,471
130469728,17811,-0.0693,-0.1343,1.0112,-0.0610,0.2441,-0.2441,1,466,883,471
130474727,17812,-0.0679,-0.1333,1.0127,-0.0610,0.1221,-0.2441,1,466,886,471
130479729,17813,-0.0684,-0.1318,1.0137,0.0000,0.1831,-0.1831,1,466,909,471
130484726,17814,-0.0693,-0.1313,1.0146,-0.0610,0.2441,-0.3052,1,466,838,471
130489734,17815,-0.0698,-0.1323,1.0156,-0.0610,0.1831,-0.3662,1,483,882,471
130494733,17816,-0.0703,-0.1338,1.0156,-0.0610,0.2441,-0.2441,1,465,886,471
130499732,17817,-0.0703,-0.1343,1.0146,-0.0610,0.1831,-0.1221,1,484,872,471
130504739,17818,-0.0703,-0.1328,1.0127,-0.0610,0.3052,-0.3052,1,465,905,471
130509726,17819,-0.0708,-0.1323,1.0117,-0.0610,0.3052,-0.3052,1,482,861,471
130514729,17820,-0.0703,-0.1318,1.0122,-0.1831,0.3052,-0.2441,1,501,863,471
130519733,17821,-0.0693,-0.1318,1.0127,-0.1831,0.1221,-0.2441,1,480,879,471
130524732,17822,-0.0688,-0.1318,1.0132,-0.0610,0.2441,-0.2441,1,508,880,471
130529733,17823,-0.0693,-0.1323,1.0132,-0.0610,0.3052,-0.2441,1,474,847,471
130534725,17824,-0.0693,-0.1328,1.0132,-0.1221,0.3052,-0.2441,1,501,831,471
130539729,17825,-0.0688,-0.1333,1.0132,-0.1221,0.1221,-0.1831,1,482,849,471
130544729,17826,-0.0684,-0.1343,1.0132,-0.0610,0.2441,-0.1831,1,488,871,471
130549732,17827,-0.0684,-0.1343,1.0127,-0.1221,0.3662,-0.3052,1,492,850,471
130554729,17828,-0.0693,-0.1343,1.0122,-0.0610,0.2441,-0.3052,1,472,845,471
130559729,17829,-0.0693,-0.1343,1.0117,0.0000,0.3052,-0.2441,1,493,850,471
130564733,17830,-0.0693,-0.1333,1.0117,0.1221,0.1221,-0.1831,1,466,834,471
130569727,17831,-0.0688,-0.1328,1.0127,0.0610,0.1831,-0.1831,1,466,881,471
130574728,17832,-0.0684,-0.1328,1.0132,0.0610,0.2441,-0.2441,1,466,884,471
130579728,17833,-0.0684,-0.1328,1.0137,0.0000,0.2441,-0.3052,1,466,883,471
130584729,17834,-0.0679,-0.1328,1.0142,0.0000,0.1831,-0.1831,1,466,831,471
130589729,17835,-0.0679,-0.1328,1.0142,0.0610,0.1221,-0.1831,1,483,837,471
130594725,17836,-0.0688,-0.1333,1.0132,0.0610,0.3052,-0.2441,1,465,866,471
130599734,17837,-0.0693,-0.1343,1.0117,0.0610,0.2441,-0.1831,1,484,868,471
130604739,17838,-0.0703,-0.1338,1.0117,-0.0610,0.2441,-0.2441,1,465,911,471
130609732,17839,-0.0703,-0.1328,1.0132,-0.1221,0.2441,-0.2441,1,465,872,471
130614731,17840,-0.0688,-0.1318,1.0151,0.0000,0.1831,-0.3052,1,501,869,471
130619732,17841,-0.0664,-0.1309,1.0151,0.0610,0.3662,-0.1831,1,465,743,471
130624725,17842,-0.0664,-0.1313,1.0142,0.0610,0.2441,-0.2441,1,493,803,471
130629731,17843,-0.0679,-0.1323,1.0142,0.0000,0.1221,-0.3052,1,484,847,471
130634727,17844,-0.0693,-0.1328,1.0142,-0.0610,0.3052,-0.1831,1,509,781,471
130639731,17845,-0.0698,-0.1333,1.0142,-0.0610,0.3052,-0.2441,1,485,850,471
130644733,17846,-0.0688,-0.1338,1.0127,0.0000,0.2441,-0.1831,1,492,871,471
130649733,17847,-0.0688,-0.1338,1.0112,0.0000,0.3052,-0.1831,1,491,809,471
130654728,17848,-0.0703,-0.1333,1.0117,0.0610,0.4272,-0.1831,1,474,806,471
130659725,17849,-0.0708,-0.1323,1.0137,0.0610,0.3662,-0.1221,1,493,854,471
130664732,17850,-0.0708,-0.1318,1.0142,-0.0610,0.3052,-0.2441,1,466,877,471
130669726,17851,-0.0703,-0.1323,1.0146,-0.1221,0.1831,-0.3052,1,466,877,471
130674727,17852,-0.0703,-0.1333,1.0137,-0.1221,0.3052,-0.2441,1,466,878,471
130679732,17853,-0.0698,-0.1333,1.0132,-0.0610,0.3052,-0.3052,1,466,876,471
130684729,17854,-0.0684,-0.1333,1.0127,0.0000,0.1831,-0.2441,1,466,875,471
130689730,17855,-0.0674,-0.1333,1.0117,0.0000,0.3052,-0.1221,1,483,837,471
130694730,17856,-0.0674,-0.1338,1.0122,-0.0610,0.4272,-0.2441,1,465,764,471
130699728,17857,-0.0669,-0.1338,1.0137,-0.1221,0.3052,-0.2441,1,484,872,471
130704730,17858,-0.0674,-0.1318,1.0137,-0.1831,0.4272,-0.2441,1,465,901,471
130709730,17859,-0.0693,-0.1309,1.0132,-0.1831,0.3052,-0.1831,1,469,873,471
130714725,17860,-0.0708,-0.1313,1.0137,-0.0610,0.3052,-0.1831,1,495,866,471
130719734,17861,-0.0703,-0.1323,1.0137,-0.0610,0.4272,-0.3052,1,465,874,471
130724730,17862,-0.0684,-0.1328,1.0137,-0.0610,0.3662,-0.1831,1,505,873,471
130729729,17863,-0.0674,-0.1338,1.0142,0.0000,0.4272,-0.1831,1,468,845,471
130734732,17864,-0.0679,-0.1343,1.0156,0.0000,0.3052,-0.2441,1,496,786,471
130739726,17865,-0.0684,-0.1333,1.0151,-0.0610,0.3662,-0.1831,1,485,822,471
130744729,17866,-0.0693,-0.1328,1.0137,-0.1831,0.3052,-0.1221,1,480,855,471
130749731,17867,-0.0693,-0.1323,1.0127,-0.1221,0.3662,-0.1831,1,479,851,471
130754732,17868,-0.0693,-0.1323,1.0132,-0.1831,0.4272,-0.1221,1,488,855,471
130759726,17869,-0.0693,-0.1323,1.0146,-0.1831,0.4883,-0.2441,1,492,854,471
130764726,17870,-0.0688,-0.1323,1.0156,-0.1831,0.4883,-0.1831,1,466,888,471
130769729,17871,-0.0684,-0.1318,1.0156,-0.3052,0.3662,-0.1221,1,466,888,471
130774731,17872,-0.0679,-0.1323,1.0156,-0.3662,0.4883,-0.2441,1,466,878,471
130779729,17873,-0.0684,-0.1338,1.0156,-0.3052,0.4272,-0.2441,1,466,886,471
130784732,17874,-0.0688,-0.1338,1.0156,-0.2441,0.4883,-0.2441,1,466,880,471
130789730,17875,-0.0693,-0.1328,1.0146,-0.1831,0.5493,-0.1831,1,483,885,471
130794732,17876,-0.0698,-0.1323,1.0142,-0.3052,0.6104,-0.1221,1,465,890,471
130799725,17877,-0.0703,-0.1323,1.0156,-0.3662,0.6104,-0.2441,1,483,807,471
130804746,17878,-0.0679,-0.1318,1.0181,-0.3662,0.5493,-0.1831,1,482,909,471
130809727,17879,-0.0669,-0.1323,1.0166,-0.3052,0.9766,-0.2441,1,470,871,471
130814725,17880,-0.0698,-0.1333,1.0112,-0.4883,0.8545,-0.2441,1,498,877,471
130819726,17881,-0.0718,-0.1353,1.0098,-0.3052,0.6714,-0.1831,1,465,866,471
130824725,17882,-0.0703,-0.1353,1.0122,-0.2441,0.7324,-0.1221,1,496,779,471
130829727,17883,-0.0684,-0.1333,1.0142,-0.3052,0.8545,-0.1831,1,490,833,471
130834733,17884,-0.0684,-0.1313,1.0151,-0.3662,0.7324,-0.0610,1,485,831,471
130839732,17885,-0.0698,-0.1309,1.0151,-0.2441,0.9155,-0.1831,1,474,875,471
130844731,17886,-0.0698,-0.1323,1.0142,-0.4883,0.9766,-0.1831,1,490,883,471
130849729,17887,-0.0679,-0.1328,1.0137,-0.6104,0.9766,-0.1221,1,481,852,471
130854727,17888,-0.0664,-0.1318,1.0146,-0.4883,1.0376,0.0000,1,493,843,471
130859732,17889,-0.0654,-0.1318,1.0161,-0.4883,1.0986,-0.0610,1,465,836,471
130864733,17890,-0.0659,-0.1323,1.0171,-0.7324,1.3428,-0.0610,1,466,883,471
130869726,17891,-0.0669,-0.1328,1.0186,-0.6104,1.2817,-0.0610,1,466,880,471
130874726,17892,-0.0664,-0.1318,1.0205,-0.6714,1.4648,0.0000,1,466,878,471
130879733,17893,-0.0664,-0.1309,1.0220,-0.8545,1.7090,0.0000,1,466,838,471
130884728,17894,-0.0659,-0.1313,1.0215,-0.9766,2.0142,0.0610,1,483,828,471
130889727,17895,-0.0649,-0.1323,1.0200,-1.0376,2.2583,0.0000,1,466,867,471
130894733,17896,-0.0654,-0.1323,1.0181,-1.1597,2.5024,0.1221,1,484,837,471
130899746,17897,-0.0679,-0.1313,1.0181,-1.3428,2.6855,0.1831,1,480,906,471
130904728,17898,-0.0698,-0.1338,1.0156,-1.4038,2.8687,0.2441,1,479,873,471
130909729,17899,-0.0723,-0.1348,1.0132,-1.3428,2.9907,0.2441,1,505,876,471
130914729,17900,-0.0732,-0.1348,1.0137,-1.2207,2.8687,0.1831,1,490,878,471
130919730,17901,-0.0713,-0.1333,1.0166,-1.4038,2.8687,0.1831,1,474,762,471
130924727,17902,-0.0703,-0.1338,1.0181,-1.4038,3.2349,0.1831,1,498,862,471
130929729,17903,-0.0718,-0.1353,1.0146,-1.2207,3.1128,0.2441,1,483,850,471
130934726,17904,-0.0747,-0.1362,1.0103,-1.2207,2.7466,0.2441,1,473,877,471
130939731,17905,-0.0762,-0.1362,1.0073,-1.2817,2.6245,0.1831,1,491,856,471
130944733,17906,-0.0762,-0.1353,1.0059,-1.2207,2.6245,0.1831,1,474,861,471
130949726,17907,-0.0757,-0.1382,1.0054,-0.9155,2.4414,0.0610,1,493,853,471
130954734,17908,-0.0762,-0.1416,1.0054,-0.7935,2.2583,0.0000,1,466,878,471
130959732,17909,-0.0786,-0.1411,1.0054,-0.5493,2.2583,0.0610,1,466,835,471
130964728,17910,-0.0791,-0.1377,1.0059,-0.4883,1.9531,0.0000,1,466,884,471
130969732,17911,-0.0781,-0.1353,1.0068,-0.4883,1.8311,0.0000,1,466,834,471
130974731,17912,-0.0776,-0.1362,1.0068,-0.4272,1.5869,0.0610,1,466,830,471
130979727,17913,-0.0781,-0.1382,1.0034,-0.1831,1.3428,0.0000,1,483,884,471
130984725,17914,-0.0835,-0.1392,0.9966,-0.1831,1.1597,0.0610,1,465,779,471
130989730,17915,-0.0884,-0.1392,0.9946,-0.0610,0.5493,0.0000,1,484,865,471
130994731,17916,-0.0835,-0.1387,1.0010,0.3052,-0.1221,-0.0610,1,477,821,471
130999728,17917,-0.0752,-0.1357,1.0107,0.3662,0.0000,-0.1221,1,465,853,471
131004726,17918,-0.0703,-0.1328,1.0166,0.3662,0.0000,-0.1831,1,498,830,471
131009732,17919,-0.0698,-0.1323,1.0176,0.1831,0.0610,-0.0610,1,489,745,471
131014734,17920,-0.0732,-0.1338,1.0137,0.1221,0.1831,-0.0610,1,470,786,471
131019734,17921,-0.0776,-0.1362,1.0093,0.1221,0.0610,-0.0610,1,497,852,471
131024732,17922,-0.0781,-0.1367,1.0088,0.2441,-0.1831,-0.1831,1,507,827,471
131029729,17923,-0.0747,-0.1353,1.0112,0.3662,-0.1831,-0.1221,1,487,857,471
131034727,17924,-0.0723,-0.1333,1.0137,0.2441,-0.1831,-0.1221,1,481,854,471
131039732,17925,-0.0737,-0.1323,1.0137,0.1221,0.0610,-0.1831,1,473,851,471
131044731,17926,-0.0757,-0.1313,1.0117,0.1831,-0.1221,-0.2441,1,493,851,471
131049731,17927,-0.0747,-0.1357,1.0112,0.1221,-0.0610,-0.2441,1,466,882,471
131054731,17928,-0.0747,-0.1411,1.0088,0.3662,0.1831,-0.2441,1,465,884,471
131059729,17929,-0.0781,-0.1411,1.0059,0.4883,-0.1221,-0.1221,1,466,885,471
131064728,17930,-0.0781,-0.1353,1.0088,0.7324,-0.3662,-0.1221,1,466,873,471
131069726,17931,-0.0747,-0.1313,1.0122,0.6104,-0.1221,-0.2441,1,466,878,471
131074733,17932,-0.0752,-0.1338,1.0093,0.6104,-0.1221,-0.1831,1,483,880,471
131079732,17933,-0.0806,-0.1387,1.0034,0.7935,-0.3662,-0.1831,1,465,860,471
131084731,17934,-0.0820,-0.1392,1.0034,0.9766,-0.7324,-0.2441,1,484,820,471
131089731,17935,-0.0767,-0.1362,1.0098,0.9766,-0.8545,-0.3662,1,483,907,471
131094728,17936,-0.0703,-0.1357,1.0166,0.9766,-0.7324,-0.3662,1,474,865,471
131099728,17937,-0.0688,-0.1348,1.0195,1.0986,-0.6104,-0.2441,1,509,872,471
131104733,17938,-0.0708,-0.1313,1.0195,0.9155,-0.4883,-0.2441,1,495,880,471
131109727,17939,-0.0732,-0.1304,1.0176,0.7935,-0.4883,-0.1831,1,477,800,471
131114733,17940,-0.0742,-0.1333,1.0156,0.6714,-0.4883,-0.3052,1,507,811,471
131119727,17941,-0.0728,-0.1353,1.0156,0.7935,-0.3662,-0.2441,1,479,851,471
131124729,17942,-0.0723,-0.1343,1.0171,0.7935,-0.3052,-0.1221,1,489,853,471
131129725,17943,-0.0732,-0.1318,1.0181,0.6104,-0.1221,-0.1831,1,479,840,471
131134731,17944,-0.0728,-0.1304,1.0186,0.4883,-0.1831,-0.1831,1,472,847,471
131139730,17945,-0.0713,-0.1313,1.0171,0.4272,-0.1221,-0.2441,1,493,849,471
131144731,17946,-0.0708,-0.1328,1.0132,0.4272,0.0610,-0.1831,1,466,878,471
131149729,17947,-0.0728,-0.1338,1.0098,0.4272,0.0610,-0.1831,1,466,882,471
131154727,17948,-0.0742,-0.1343,1.0107,0.4272,-0.1831,-0.3052,1,466,876,471
131159732,17949,-0.0742,-0.1333,1.0132,0.5493,-0.2441,-0.2441,1,466,881,471
131164725,17950,-0.0728,-0.1328,1.0151,0.4272,-0.1831,-0.1831,1,466,889,471
131169729,17951,-0.0718,-0.1323,1.0156,0.3662,-0.1221,-0.2441,1,483,888,471
131174733,17952,-0.0732,-0.1323,1.0137,0.3662,-0.1221,-0.3662,1,466,871,471
131179728,17953,-0.0762,-0.1328,1.0112,0.3662,-0.0610,-0.4272,1,484,872,471
131184742,17954,-0.0771,-0.1333,1.0112,0.3662,-0.3052,-0.2441,1,476,911,471
131189730,17955,-0.0752,-0.1333,1.0122,0.5493,-0.3052,-0.2441,1,472,874,471
131194730,17956,-0.0708,-0.1333,1.0142,0.6104,-0.3052,-0.3052,1,482,871,471
131199729,17957,-0.0693,-0.1338,1.0151,0.6714,-0.1221,-0.3662,1,473,867,471
131204732,17958,-0.0728,-0.1348,1.0127,0.5493,-0.1831,-0.2441,1,507,790,471
131209730,17959,-0.0752,-0.1343,1.0107,0.4272,-0.4883,-0.2441,1,486,846,471
131214726,17960,-0.0737,-0.1323,1.0132,0.3052,-0.6104,-0.3662,1,471,833,471
131219732,17961,-0.0698,-0.1318,1.0176,0.1831,-0.4272,-0.3662,1,488,849,471
131224727,17962,-0.0693,-0.1323,1.0181,0.2441,-0.0610,-0.3052,1,485,858,471
131229728,17963,-0.0728,-0.1318,1.0146,0.1831,-0.0610,-0.3662,1,478,849,471
131234725,17964,-0.0757,-0.1328,1.0112,0.2441,-0.3052,-0.2441,1,482,854,471
131239731,17965,-0.0752,-0.1323,1.0112,0.3662,-0.3662,-0.3052,1,466,855,471
131244729,17966,-0.0742,-0.1313,1.0107,0.1221,-0.3662,-0.3052,1,466,881,471
131249731,17967,-0.0757,-0.1318,1.0078,0.0610,-0.5493,-0.3052,1,466,879,471
131254725,17968,-0.0757,-0.1338,1.0059,0.1831,-0.7324,-0.3662,1,466,876,471
131259734,17969,-0.0767,-0.1338,1.0044,0.3052,-0.6714,-0.3662,1,466,880,471
131264730,17970,-0.0806,-0.1318,1.0015,0.4272,-0.9155,-0.4272,1,466,873,471
131269730,17971,-0.0840,-0.1343,0.9971,0.3662,-1.3428,-0.5493,1,483,879,471
131274727,17972,-0.0850,-0.1387,0.9941,0.7324,-1.8921,-0.5493,1,469,869,471
131279727,17973,-0.0815,-0.1392,0.9990,1.0986,-2.3804,-0.6714,1,465,831,471
131284743,17974,-0.0732,-0.1362,1.0103,1.2207,-2.5635,-0.8545,1,467,919,471
131289731,17975,-0.0669,-0.1323,1.0176,1.1597,-2.2583,-0.7935,1,479,871,471
131294732,17976,-0.0684,-0.1309,1.0166,1.0986,-2.3804,-0.7935,1,473,872,471
131299728,17977,-0.0747,-0.1313,1.0107,1.2817,-2.5024,-0.7935,1,482,875,471
131304730,17978,-0.0757,-0.1299,1.0093,1.0986,-2.9907,-0.9155,1,497,797,471
131309731,17979,-0.0767,-0.1284,1.0098,0.7935,-2.9297,-0.9155,1,497,843,471
131314731,17980,-0.0737,-0.1313,1.0073,1.0376,-3.6011,-0.7935,1,475,834,471
131319725,17981,-0.0742,-0.1392,1.0005,1.2207,-2.7466,-0.8545,1,486,850,471
131324727,17982,-0.0850,-0.1426,0.9922,1.7090,-3.5400,-0.9155,1,473,848,471
131329733,17983,-0.0830,-0.1406,0.9971,1.9531,-4.5166,-0.8545,1,484,848,471
131334733,17984,-0.0693,-0.1362,1.0132,2.0142,-4.2725,-0.8545,1,487,852,471
131339726,17985,-0.0605,-0.1313,1.0239,2.0752,-3.9673,-0.9766,1,466,853,471
131344729,17986,-0.0615,-0.1265,1.0244,1.8921,-3.7842,-0.8545,1,466,883,471
131349734,17987,-0.0654,-0.1240,1.0215,1.6479,-3.8452,-0.8545,1,466,883,471
131354725,17988,-0.0645,-0.1265,1.0220,1.4038,-3.9673,-0.7935,1,466,888,471
131359728,17989,-0.0625,-0.1284,1.0225,1.4038,-3.3569,-0.7324,1,466,881,471
131364729,17990,-0.0659,-0.1294,1.0181,1.3428,-3.2349,-0.6714,1,466,888,471
131369729,17991,-0.0684,-0.1323,1.0151,1.2817,-3.6621,-0.7324,1,466,878,471
131374733,17992,-0.0669,-0.1328,1.0171,1.3428,-3.5400,-0.8545,1,484,881,471
131379733,17993,-0.0635,-0.1289,1.0205,1.1597,-3.4180,-0.8545,1,465,906,471
131384727,17994,-0.0591,-0.1260,1.0225,1.1597,-3.2959,-0.5493,1,466,870,471
131389731,17995,-0.0576,-0.1260,1.0181,0.8545,-2.8076,-0.4883,1,500,869,471
131394730,17996,-0.0645,-0.1279,1.0078,0.6714,-2.6855,-0.5493,1,506,869,471
131399727,17997,-0.0713,-0.1313,1.0024,0.8545,-3.1738,-0.4272,1,494,866,471
131404730,17998,-0.0693,-0.1333,1.0078,0.9766,-3.4790,-0.4883,1,479,818,471
131409730,17999,-0.0620,-0.1323,1.0151,0.9766,-3.4180,-0.4883,1,491,836,471
131414725,18000,-0.0571,-0.1284,1.0210,0.9155,-2.9907,-0.3662,1,485,853,471
131419725,18001,-0.0566,-0.1265,1.0244,0.7935,-2.9907,-0.3052,1,480,858,471
131424725,18002,-0.0586,-0.1279,1.0234,0.7935,-2.6245,-0.3662,1,490,852,471
131429732,18003,-0.0601,-0.1289,1.0205,0.7324,-2.5024,-0.4883,1,472,861,471
131434732,18004,-0.0615,-0.1294,1.0176,0.7935,-2.4414,-0.3662,1,493,851,471
131439725,18005,-0.0635,-0.1309,1.0142,0.9155,-2.4414,-0.2441,1,466,884,471
131444728,18006,-0.0645,-0.1309,1.0142,0.7935,-2.4414,-0.2441,1,466,883,471
131449732,18007,-0.0615,-0.1299,1.0190,0.7324,-2.5024,-0.2441,1,466,881,471
131454739,18008,-0.0566,-0.1309,1.0215,0.9155,-2.2583,-0.1831,1,466,886,471
131459729,18009,-0.0562,-0.1294,1.0190,1.0376,-1.9531,-0.0610,1,466,886,471
131464725,18010,-0.0596,-0.1279,1.0151,0.8545,-1.8311,-0.1221,1,483,878,471
131469730,18011,-0.0645,-0.1284,1.0122,0.9155,-1.9531,-0.0610,1,484,867,471
131474733,18012,-0.0635,-0.1284,1.0146,0.9155,-2.1973,-0.1221,1,465,884,471
131479746,18013,-0.0581,-0.1260,1.0215,0.7935,-1.8921,-0.0610,1,474,921,471
131484727,18014,-0.0542,-0.1240,1.0259,0.6104,-1.5869,0.0610,1,469,864,471
131489732,18015,-0.0547,-0.1250,1.0244,0.3662,-1.4038,0.0000,1,473,873,471
131494731,18016,-0.0566,-0.1260,1.0215,0.4272,-1.4038,0.0610,1,479,741,471
131499725,18017,-0.0586,-0.1260,1.0205,0.2441,-1.1597,0.1221,1,510,785,471
131504730,18018,-0.0596,-0.1265,1.0205,0.2441,-1.0376,0.0610,1,496,830,471
131509726,18019,-0.0576,-0.1260,1.0215,0.1831,-0.7324,0.0610,1,485,847,471
131514733,18020,-0.0552,-0.1260,1.0200,0.1221,-0.3662,0.1221,1,484,875,471
131519730,18021,-0.0571,-0.1274,1.0142,0.1831,-0.1221,0.1831,1,488,844,471
131524729,18022,-0.0610,-0.1299,1.0112,0.4272,-0.1221,0.0000,1,478,854,471
131529725,18023,-0.0605,-0.1304,1.0132,0.5493,-0.1831,0.0610,1,493,805,471
131534733,18024,-0.0576,-0.1279,1.0166,0.4272,-0.1221,0.0000,1,466,876,471
131539731,18025,-0.0562,-0.1270,1.0171,0.4883,0.0610,0.0000,1,466,839,471
131544725,18026,-0.0571,-0.1274,1.0156,0.4883,0.1221,0.1221,1,466,826,471
131549734,18027,-0.0615,-0.1284,1.0117,0.4272,0.1831,0.0610,1,465,878,471
131554732,18028,-0.0654,-0.1304,1.0093,0.4883,0.0610,0.0000,1,466,885,471
131559726,18029,-0.0640,-0.1304,1.0122,0.5493,-0.1831,-0.0610,1,466,827,471
131564726,18030,-0.0591,-0.1270,1.0181,0.5493,-0.2441,-0.0610,1,465,879,471
131569726,18031,-0.0562,-0.1265,1.0215,0.4272,0.1221,0.0000,1,484,865,471
131574732,18032,-0.0586,-0.1274,1.0200,0.4883,0.2441,0.0000,1,466,819,471
131579725,18033,-0.0610,-0.1260,1.0176,0.3662,0.1221,0.0610,1,468,830,471
131584729,18034,-0.0605,-0.1250,1.0181,0.0610,0.2441,-0.0610,1,475,864,471
131589729,18035,-0.0581,-0.1260,1.0186,0.1221,0.3052,0.1221,1,465,869,471
131594733,18036,-0.0562,-0.1270,1.0190,0.1221,0.3662,0.0610,1,495,850,471
131599732,18037,-0.0562,-0.1255,1.0190,0.1221,0.4883,0.0610,1,472,808,471
131604732,18038,-0.0591,-0.1250,1.0181,0.0610,0.4883,0.0610,1,498,824,471
131609725,18039,-0.0620,-0.1260,1.0161,0.1221,0.6104,0.0610,1,491,837,471
131614727,18040,-0.0625,-0.1265,1.0142,0.1221,0.6104,0.0610,1,490,872,471
131619727,18041,-0.0610,-0.1274,1.0132,0.0610,0.6104,0.0000,1,480,840,471
131624727,18042,-0.0586,-0.1274,1.0137,0.0610,0.5493,0.0610,1,486,802,471
131629725,18043,-0.0571,-0.1270,1.0142,0.1831,0.7324,0.0610,1,493,848,471
131634728,18044,-0.0581,-0.1270,1.0146,0.1831,0.9766,0.1221,1,466,880,471
131639733,18045,-0.0586,-0.1270,1.0156,0.0000,0.9766,0.0610,1,466,879,471
131644726,18046,-0.0576,-0.1255,1.0161,-0.0610,1.0376,0.0610,1,466,830,471
131649725,18047,-0.0557,-0.1245,1.0190,-0.0610,1.1597,0.1221,1,465,878,471
131654725,18048,-0.0557,-0.1250,1.0205,-0.1221,1.2817,0.1221,1,465,877,471
131659732,18049,-0.0571,-0.1255,1.0205,-0.1831,1.4038,0.0000,1,483,874,471
131664725,18050,-0.0576,-0.1255,1.0210,-0.2441,1.3428,0.1221,1,466,772,471
131669729,18051,-0.0571,-0.1260,1.0210,-0.3052,1.4648,0.1831,1,484,811,471
131674731,18052,-0.0562,-0.1260,1.0215,-0.3052,1.5869,0.1831,1,474,909,471
131679728,18053,-0.0547,-0.1235,1.0239,-0.6104,1.8921,0.1831,1,477,868,471
131684729,18054,-0.0537,-0.1235,1.0264,-0.8545,2.1362,0.1221,1,482,867,471
131689727,18055,-0.0522,-0.1245,1.0264,-0.8545,2.6245,0.2441,1,472,880,471
131694728,18056,-0.0527,-0.1245,1.0278,-1.0376,2.8687,0.3052,1,502,884,471
131699727,18057,-0.0547,-0.1265,1.0283,-1.1597,3.1128,0.4272,1,479,796,471
131704725,18058,-0.0537,-0.1279,1.0273,-1.2207,3.4180,0.5493,1,502,845,471
131709732,18059,-0.0532,-0.1274,1.0244,-1.4648,3.9062,0.6714,1,475,861,471
131714733,18060,-0.0581,-0.1270,1.0176,-1.5869,4.2114,0.6714,1,478,861,471
131719730,18061,-0.0659,-0.1294,1.0093,-1.5259,4.0894,0.6714,1,486,857,471
131724726,18062,-0.0713,-0.1328,1.0054,-1.3428,3.7231,0.6104,1,474,848,471
131729726,18063,-0.0698,-0.1338,1.0073,-1.0986,3.4790,0.6104,1,492,852,471
131734728,18064,-0.0635,-0.1323,1.0142,-1.1597,3.4180,0.5493,1,466,879,471
131739728,18065,-0.0586,-0.1304,1.0200,-1.1597,3.6621,0.5493,1,466,883,471
131744732,18066,-0.0596,-0.1289,1.0210,-1.0376,3.9673,0.4883,1,466,882,471
131749734,18067,-0.0620,-0.1284,1.0181,-1.1597,3.9062,0.4272,1,466,880,471
131754728,18068,-0.0630,-0.1289,1.0166,-1.2207,3.9673,0.5493,1,466,883,471
131759728,18069,-0.0635,-0.1289,1.0161,-1.0986,4.0283,0.4883,1,483,888,471
131764729,18070,-0.0635,-0.1289,1.0161,-1.0986,4.2114,0.5493,1,466,884,471
131769733,18071,-0.0640,-0.1299,1.0142,-1.0986,4.3335,0.7324,1,484,878,471
131774727,18072,-0.0659,-0.1313,1.0117,-1.0986,4.3335,0.6104,1,465,880,471
131779754,18073,-0.0669,-0.1323,1.0112,-0.8545,4.2725,0.5493,1,470,874,471
131784729,18074,-0.0674,-0.1323,1.0117,-0.7935,4.4556,0.5493,1,472,873,471
131789734,18075,-0.0684,-0.1323,1.0112,-0.7324,4.4556,0.6104,1,465,837,471
131794733,18076,-0.0688,-0.1343,1.0098,-0.3662,4.3335,0.5493,1,509,879,471
131799727,18077,-0.0698,-0.1353,1.0093,-0.1831,4.2725,0.4272,1,497,761,471
131804730,18078,-0.0718,-0.1333,1.0098,-0.0610,4.3335,0.4272,1,494,845,471
131809734,18079,-0.0732,-0.1304,1.0083,0.0610,4.2114,0.4883,1,485,850,471
131814733,18080,-0.0747,-0.1294,1.0078,0.0610,4.0894,0.3662,1,471,871,471
131819725,18081,-0.0742,-0.1313,1.0088,0.1831,3.8452,0.3052,1,483,850,471
131824731,18082,-0.0728,-0.1328,1.0093,0.5493,3.8452,0.3662,1,476,854,471
131829732,18083,-0.0737,-0.1299,1.0093,0.6104,3.8452,0.3052,1,489,856,471
131834728,18084,-0.0747,-0.1289,1.0098,0.5493,3.5400,0.3662,1,466,847,471
131839730,18085,-0.0718,-0.1304,1.0117,0.5493,3.3569,0.3052,1,466,885,471
131844726,18086,-0.0693,-0.1265,1.0142,0.6714,3.3569,0.2441,1,466,880,471
131849733,18087,-0.0698,-0.1216,1.0137,0.4883,3.6011,0.2441,1,466,886,471
131854728,18088,-0.0708,-0.1245,1.0112,0.1831,3.5400,0.3052,1,466,877,471
131859731,18089,-0.0718,-0.1318,1.0098,0.3052,3.6011,0.2441,1,484,881,471
131864732,18090,-0.0723,-0.1343,1.0103,0.4883,3.4180,0.4272,1,465,863,471
131869727,18091,-0.0718,-0.1284,1.0137,0.1831,3.4790,0.3662,1,484,866,471
131874726,18092,-0.0645,-0.1240,1.0259,-0.2441,3.7231,0.3052,1,467,913,471
131879755,18093,-0.0645,-0.1328,1.0234,-0.4272,4.0283,0.3662,1,475,870,471
131884728,18094,-0.0708,-0.1387,1.0146,0.0000,4.1504,0.4272,1,473,876,471
131889725,18095,-0.0752,-0.1362,1.0093,0.1831,3.8452,0.3662,1,466,711,471
131894732,18096,-0.0757,-0.1299,1.0068,0.2441,3.9673,0.4272,1,497,865,471
131899727,18097,-0.0752,-0.1250,1.0054,0.0610,4.0283,0.4272,1,495,788,471
131904729,18098,-0.0757,-0.1284,1.0054,0.0610,3.9062,0.2441,1,509,827,471
131909727,18099,-0.0786,-0.1353,1.0039,0.4272,3.9062,0.3052,1,478,851,471
131914725,18100,-0.0820,-0.1367,1.0024,0.7935,3.4790,0.3052,1,491,850,471
131919732,18101,-0.0811,-0.1338,1.0039,0.9766,3.3569,0.1221,1,482,849,471
131924725,18102,-0.0767,-0.1309,1.0088,1.3428,3.3569,0.2441,1,483,846,471
131929733,18103,-0.0728,-0.1304,1.0146,1.4038,3.4180,0.0000,1,494,850,471
131934726,18104,-0.0703,-0.1299,1.0166,1.4038,3.3569,0.3052,1,493,806,471
131939733,18105,-0.0698,-0.1279,1.0151,1.5869,3.5400,0.2441,1,465,881,471
131944730,18106,-0.0713,-0.1216,1.0151,1.4648,3.7231,0.3052,1,466,890,471
131949732,18107,-0.0742,-0.1187,1.0142,0.9766,3.9673,0.4272,1,466,884,471
131954742,18108,-0.0776,-0.1245,1.0098,0.7935,4.0283,0.2441,1,466,879,471
131959731,18109,-0.0791,-0.1299,1.0088,0.9155,3.8452,0.3662,1,466,884,471
131964730,18110,-0.0771,-0.1270,1.0117,0.9766,3.9062,0.3662,1,484,885,471
131969729,18111,-0.0747,-0.1211,1.0161,0.6714,4.0283,0.5493,1,481,873,471
131974728,18112,-0.0718,-0.1206,1.0171,0.4883,4.1504,0.6104,1,465,880,471
131979730,18113,-0.0698,-0.1235,1.0156,0.3052,4.6387,0.5493,1,471,858,471
131984731,18114,-0.0684,-0.1230,1.0186,0.1221,4.5166,0.7324,1,472,872,471
131989732,18115,-0.0684,-0.1196,1.0176,-0.1831,4.8218,0.8545,1,497,877,471
131994732,18116,-0.0835,-0.1226,0.9980,-0.4272,5.6152,0.9155,1,477,879,471
131999731,18117,-0.0991,-0.1304,0.9834,0.1221,4.4556,0.9155,1,485,863,471
132004725,18118,-0.0967,-0.1318,0.9922,0.3052,4.0283,0.9766,1,483,801,471
132009725,18119,-0.0898,-0.1304,1.0010,0.3052,4.3945,0.7324,1,509,826,471
132014733,18120,-0.0850,-0.1333,1.0015,0.5493,3.9062,0.8545,1,481,848,471
132019729,18121,-0.0806,-0.1338,1.0024,1.0376,4.0283,0.8545,1,484,873,471
132024727,18122,-0.0840,-0.1270,0.9995,1.2817,4.2114,1.0986,1,478,846,471
132029733,18123,-0.0908,-0.1250,0.9937,1.2207,4.0894,0.9155,1,487,858,471
132034728,18124,-0.0884,-0.1304,0.9961,1.4038,3.8452,0.8545,1,493,847,471
132039730,18125,-0.0776,-0.1284,1.0098,1.6479,4.0283,0.8545,1,466,875,471
132044728,18126,-0.0688,-0.1162,1.0264,1.4038,4.6997,0.7324,1,466,883,471
132049730,18127,-0.0659,-0.1094,1.0303,0.8545,5.3101,0.7935,1,466,888,471
132054728,18128,-0.0674,-0.1187,1.0190,0.6104,6.2866,0.7324,1,466,869,471
132059734,18129,-0.0718,-0.1289,1.0098,1.0986,7.2021,0.7935,1,466,881,471
132064727,18130,-0.0757,-0.1274,1.0088,1.2817,8.0566,0.7935,1,483,882,471
132069732,18131,-0.0781,-0.1196,1.0146,1.0986,8.5449,0.7935,1,468,871,471
132074726,18132,-0.0791,-0.1128,1.0229,0.6714,9.0942,0.8545,1,484,877,471
132079727,18133,-0.0801,-0.1108,1.0273,0.2441,9.7046,0.7324,1,482,909,471
132084727,18134,-0.0801,-0.1147,1.0278,-0.0610,10.0708,0.9155,1,467,866,471
132089733,18135,-0.0825,-0.1201,1.0254,-0.4272,10.2539,1.0986,1,470,880,471
132094732,18136,-0.0898,-0.1221,1.0161,-0.7324,10.3149,1.2207,1,476,900,471
132099729,18137,-0.1030,-0.1211,1.0049,-0.7935,9.7656,0.9766,1,506,899,471
132104728,18138,-0.1113,-0.1221,1.0024,-1.1597,8.7280,0.8545,1,482,800,471
132109733,18139,-0.1069,-0.1230,1.0098,-1.1597,8.0566,0.9155,1,505,846,471
132114729,18140,-0.0996,-0.1211,1.0190,-1.4648,7.9956,0.8545,1,491,854,471
132119731,18141,-0.0972,-0.1221,1.0205,-1.8311,7.5684,0.4883,1,488,876,471
132124731,18142,-0.0996,-0.1294,1.0142,-1.7090,7.0801,0.2441,1,477,844,471
132129727,18143,-0.1035,-0.1377,1.0063,-1.1597,6.4697,0.0000,1,482,847,471
132134734,18144,-0.1045,-0.1357,1.0044,-0.7324,5.9814,-0.1221,1,493,811,471
132139726,18145,-0.1030,-0.1245,1.0063,-0.7324,6.0425,-0.3052,1,466,879,471
132144727,18146,-0.1040,-0.1221,1.0049,-0.9155,5.9204,-0.4272,1,466,880,471
132149728,18147,-0.1064,-0.1294,1.0039,-0.7935,5.4321,-0.3662,1,466,879,471
132154734,18148,-0.1104,-0.1328,1.0039,-0.4272,5.3101,-0.4883,1,466,887,471
132159730,18149,-0.1157,-0.1323,1.0005,-0.2441,5.0659,-0.6104,1,466,880,471
132164729,18150,-0.1196,-0.1357,0.9956,0.0000,4.3945,-0.6714,1,484,882,471
132169733,18151,-0.1187,-0.1426,0.9927,0.5493,3.7231,-0.7324,1,467,788,471
132174725,18152,-0.1177,-0.1450,0.9917,1.2207,3.4180,-0.9155,1,484,875,471
132179729,18153,-0.1191,-0.1421,0.9912,1.8311,2.6855,-0.8545,1,482,911,471
132184732,18154,-0.1172,-0.1440,0.9907,2.4414,2.0752,-0.9766,1,465,873,471
132189728,18155,-0.1118,-0.1489,0.9917,3.4180,1.6479,-0.9766,1,467,878,471
132194726,18156,-0.1099,-0.1484,0.9937,4.3945,1.5869,-0.9766,1,481,839,471
132199732,18157,-0.1094,-0.1450,0.9941,5.0049,1.1597,-0.9155,1,510,865,471
132204732,18158,-0.1064,-0.1450,0.9966,5.6152,1.0376,-0.7935,1,508,786,471
132209731,18159,-0.1055,-0.1445,0.9985,6.5918,1.0376,-0.7935,1,494,845,471
132214730,18160,-0.1084,-0.1406,0.9980,7.2632,0.7935,-0.8545,1,486,854,471
132219729,18161,-0.1089,-0.1353,0.9980,7.5684,0.1831,-0.8545,1,478,870,471
132224731,18162,-0.1060,-0.1323,1.0015,7.9346,0.1221,-1.0986,1,487,851,471
132229726,18163,-0.1035,-0.1323,1.0049,8.4229,0.2441,-1.0376,1,491,850,471
132234727,18164,-0.1055,-0.1289,1.0054,8.8501,0.0610,-1.0376,1,489,854,471
132239730,18165,-0.1089,-0.1235,1.0044,9.0332,-0.3662,-1.0986,1,466,843,471
132244728,18166,-0.1069,-0.1221,1.0024,9.2163,-0.7324,-1.1597,1,466,882,471
132249731,18167,-0.0991,-0.1250,1.0024,9.3994,-0.6714,-1.0376,1,466,884,471
132254731,18168,-0.0942,-0.1255,1.0049,9.8267,-0.3662,-0.7935,1,466,881,471
132259725,18169,-0.0962,-0.1250,1.0044,10.1318,-0.3052,-0.8545,1,466,881,471
132264731,18170,-0.1021,-0.1226,0.9995,10.3760,-0.1221,-0.8545,1,466,889,471
132269725,18171,-0.1084,-0.1187,0.9946,10.6812,-0.4272,-0.7324,1,465,891,471
132274730,18172,-0.1084,-0.1201,0.9946,10.8032,-0.7935,-0.6104,1,485,888,471
132279731,18173,-0.1055,-0.1230,0.9985,11.2305,-1.0986,-0.6104,1,465,893,471
132284735,18174,-0.1079,-0.1191,1.0000,11.9629,-1.4038,-0.6714,1,482,923,471
132289726,18175,-0.1118,-0.1143,0.9990,12.0850,-2.0752,-0.9155,1,467,885,471
132294733,18176,-0.1099,-0.1138,1.0005,12.2681,-2.8687,-1.0376,1,508,898,471
132299726,18177,-0.1069,-0.1147,1.0039,12.6953,-3.3569,-1.2207,1,486,887,471
132304726,18178,-0.1074,-0.1113,1.0068,13.1836,-3.6621,-1.4648,1,498,890,471
132309730,18179,-0.1064,-0.1045,1.0093,13.1836,-4.2725,-1.6479,1,502,787,471
132314730,18180,-0.1016,-0.1025,1.0117,13.4277,-4.7607,-1.8311,1,490,869,471
132319728,18181,-0.0967,-0.1016,1.0137,13.6719,-5.0049,-1.8921,1,483,873,471
132324732,18182,-0.0957,-0.0962,1.0166,13.7329,-5.4321,-2.1362,1,473,860,471
132329730,18183,-0.0986,-0.0903,1.0200,13.3667,-5.6763,-2.6245,1,480,880,471
132334731,18184,-0.1001,-0.0894,1.0215,13.1836,-6.3477,-2.8687,1,481,873,471
132339730,18185,-0.0967,-0.0903,1.0225,13.0615,-6.8970,-3.2349,1,493,864,471
132344729,18186,-0.0942,-0.0869,1.0234,12.8174,-7.0190,-3.3569,1,466,896,471
132349727,18187,-0.0938,-0.0786,1.0239,12.2681,-7.2021,-3.7231,1,466,905,471
132354731,18188,-0.0913,-0.0747,1.0234,11.4746,-7.2632,-4.0283,1,466,930,471
132359727,18189,-0.0874,-0.0806,1.0190,10.9863,-7.1411,-4.2114,1,466,908,471
132364733,18190,-0.0898,-0.0908,1.0098,11.1694,-7.0801,-4.3945,1,483,904,471
132369732,18191,-0.0972,-0.0942,0.9985,11.2915,-7.2021,-4.7607,1,466,896,471
132374728,18192,-0.1006,-0.0923,0.9932,11.1694,-7.3242,-5.1880,1,484,892,471
132379726,18193,-0.0942,-0.0889,1.0005,11.2915,-7.4463,-5.2490,1,467,899,471
132384736,18194,-0.0835,-0.0820,1.0112,10.9253,-6.5918,-5.4321,1,476,953,471
132389728,18195,-0.0820,-0.0708,1.0151,10.4980,-5.8594,-5.6152,1,471,888,471
132394727,18196,-0.0898,-0.0630,1.0098,9.7656,-5.7373,-5.9204,1,506,898,471
132399727,18197,-0.0991,-0.0620,1.0029,9.0942,-6.1646,-5.9814,1,491,865,471
132404727,18198,-0.1055,-0.0640,0.9990,8.4229,-6.4697,-6.3477,1,497,796,471
132409729,18199,-0.1079,-0.0698,0.9951,7.8125,-7.2632,-6.8359,1,494,816,471
132414728,18200,-0.1143,-0.0718,0.9941,7.4463,-7.8735,-7.2632,1,483,859,471
132419732,18201,-0.1235,-0.0688,0.9961,6.9580,-9.5215,-7.5073,1,476,858,471
132424727,18202,-0.1338,-0.0732,0.9912,6.5308,-11.1084,-7.8125,1,483,857,471
132429725,18203,-0.1558,-0.0820,0.9800,6.4087,-13.3057,-7.9956,1,478,873,471
132434733,18204,-0.1772,-0.0874,0.9731,6.2866,-17.0288,-8.1177,1,493,869,471
132439726,18205,-0.1812,-0.0811,0.9780,6.2256,-20.8740,-8.3008,1,493,874,471
132444730,18206,-0.1714,-0.0664,0.9873,5.9814,-24.4751,-8.7891,1,466,891,471
132449728,18207,-0.1519,-0.0645,0.9937,5.3711,-27.8931,-9.4604,1,466,902,471
132454730,18208,-0.1348,-0.0718,0.9995,5.3101,-30.8228,-10.0708,1,466,897,471
132459731,18209,-0.1226,-0.0742,1.0083,5.1880,-33.5083,-10.5591,1,465,908,471
132464727,18210,-0.1079,-0.0723,1.0239,4.8828,-35.9497,-11.1084,1,466,912,471
132469728,18211,-0.0874,-0.0698,1.0405,4.6387,-38.2080,-11.6577,1,465,916,471
132474731,18212,-0.0742,-0.0684,1.0469,4.5776,-39.4897,-12.2681,1,484,914,471
132479728,18213,-0.0776,-0.0674,1.0415,4.1504,-40.8936,-12.6343,1,465,903,471
132484736,18214,-0.0781,-0.0688,1.0366,3.8452,-42.5415,-12.4512,1,469,941,471
132489729,18215,-0.0796,-0.0703,1.0347,3.4790,-43.5181,-12.3901,1,467,915,471
132494732,18216,-0.0854,-0.0698,1.0347,3.1128,-45.5933,-11.9629,1,504,902,471
132499729,18217,-0.0884,-0.0688,1.0356,2.5024,-47.4853,-11.3525,1,487,917,471
132504734,18218,-0.0850,-0.0674,1.0356,2.0752,-49.8047,-11.0474,1,496,905,471
132509728,18219,-0.0742,-0.0669,1.0371,1.6479,-51.9409,-10.6201,1,489,788,471
132514727,18220,-0.0596,-0.0659,1.0459,0.6104,-53.6499,-10.0708,1,488,900,471
132519726,18221,-0.0469,-0.0674,1.0552,-0.1831,-54.9316,-9.3994,1,478,879,471
132524730,18222,-0.0444,-0.0659,1.0566,-0.7324,-56.5796,-8.9111,1,490,892,471
132529726,18223,-0.0513,-0.0674,1.0557,-1.5259,-57.9224,-8.3618,1,475,880,471
132534732,18224,-0.0576,-0.0747,1.0542,-2.0142,-59.8144,-7.2632,1,493,870,471
132539728,18225,-0.0547,-0.0771,1.0537,-2.7466,-61.7676,-6.1035,1,493,875,471
132544732,18226,-0.0503,-0.0684,1.0586,-3.6621,-62.9883,-4.6387,1,466,902,471
132549727,18227,-0.0703,-0.0566,1.0630,-5.4321,-66.1011,-3.4790,1,466,899,471
132554728,18228,-0.1025,-0.0493,1.0645,-8.3008,-73.6084,-5.2490,1,466,896,471
132559726,18229,-0.1089,-0.0508,1.0684,-11.1084,-81.4819,-7.6904,1,466,892,471
132564733,18230,-0.1196,-0.0591,1.0659,-11.9629,-85.0220,-9.7046,1,484,913,471
132569729,18231,-0.1895,-0.0610,1.0527,-12.0850,-91.4307,-12.5122,1,466,916,471
132574730,18232,-0.3091,-0.0796,1.0503,-11.4136,-105.0415,-15.3809,1,484,938,471
132579728,18233,-0.4302,-0.1035,1.0581,-11.3525,-126.2817,-16.4795,1,467,918,471
132584743,18234,-0.5220,-0.0840,1.0801,-12.2681,-154.2969,-15.3198,1,477,939,471
132589733,18235,-0.6094,-0.0410,1.1304,-13.6719,-187.8052,-14.5874,1,469,917,471
132594727,18236,-0.7202,-0.0117,1.1919,-15.3809,-230.4077,-14.5264,1,507,928,471
132599725,18237,-0.7959,0.0015,1.2627,-18.5547,-277.3438,-16.6016,1,497,925,471
132604731,18238,-0.8467,0.0244,1.3467,-20.7520,-321.4111,-16.7847,1,478,929,471
132609726,18239,-0.9453,0.0488,1.4927,-27.0386,-365.8447,-15.6250,1,491,843,471
132614726,18240,-1.0581,-0.0049,1.7246,-40.1611,-421.7529,-18.7378,1,490,839,471
132619726,18241,-1.0146,-0.1294,1.9043,-41.6260,-489.3188,-22.3389,1,480,904,471
132624726,18242,-0.8936,-0.1626,1.9741,-33.0200,-532.8369,-23.0713,1,490,917,471
132629726,18243,-0.9917,-0.0889,1.9980,-40.1611,-567.0166,-29.6631,1,481,925,471
132634726,18244,-1.2153,-0.0835,1.9482,-57.9224,-623.2910,-39.4287,1,493,903,471
132639728,18245,-1.2300,-0.1587,1.7217,-67.0166,-680.8471,-48.7061,1,494,909,471
132644725,18246,-1.0249,-0.2354,1.3179,-63.8428,-699.7070,-53.7109,1,466,937,471
132649727,18247,-0.8647,-0.4121,0.9082,-56.2744,-702.6977,-65.8569,1,466,945,471
132654728,18248,-0.8828,-0.6929,0.6509,-34.3018,-730.4687,-79.7729,1,466,945,471
132659730,18249,-0.8638,-0.5210,0.7954,3.6621,-781.7382,-84.8389,1,466,928,471
132664726,18250,-0.1396,0.2031,1.3003,15.5029,-788.2690,-68.6646,1,483,932,471
132669732,18251,1.7705,0.5093,2.7461,-4.9438,-700.8056,-58.7158,1,465,937,471
132674733,18252,3.5762,-0.0688,5.1509,-34.4849,-519.8364,-74.7681,1,484,926,471
132679726,18253,3.3125,-0.8262,6.4985,2.2583,-302.0630,-82.5806,1,467,869,471
132684734,18254,0.9966,-1.0547,5.7710,29.3579,-135.1318,-90.3320,1,480,948,471
132689726,18255,-1.4502,-0.8174,4.1309,20.2026,-70.9229,-89.4165,1,477,927,471
132694730,18256,-2.3364,-0.5298,2.9736,17.2729,-64.7583,-83.6182,1,492,921,471
132699725,18257,-1.8950,-0.4346,2.5034,22.0337,-36.7432,-81.1768,1,495,927,471
132704730,18258,-1.3438,-0.4497,2.2148,40.3442,-5.2490,-81.1157,1,479,912,471
132709730,18259,-1.2495,-0.4072,1.8389,52.9785,9.5215,-83.6792,1,491,944,471
132714733,18260,-1.4092,-0.3032,1.5083,54.8096,11.8408,-87.8296,1,485,877,471
132719731,18261,-1.4854,-0.2100,1.3774,53.2837,13.0005,-92.9565,1,491,907,471
132724726,18262,-1.3896,-0.1758,1.4268,49.1943,21.0571,-99.4263,1,483,910,471
132729733,18263,-1.2217,-0.2051,1.5444,43.8232,36.9263,-104.9805,1,480,915,471
132734732,18264,-1.0811,-0.2607,1.6396,38.2080,58.1055,-109.6802,1,493,905,471
132739733,18265,-0.9976,-0.3120,1.6782,32.7759,82.7026,-113.4033,1,493,900,471
132744730,18266,-0.9453,-0.3535,1.6660,28.4424,108.3374,-115.7226,1,466,940,471
132749725,18267,-0.8936,-0.3862,1.6152,25.5737,134.2773,-116.6382,1,466,955,471
132754727,18268,-0.8364,-0.4136,1.5347,24.3530,158.7524,-116.1499,1,466,951,471
132759729,18269,-0.7900,-0.4341,1.4365,24.7803,180.5420,-114.7461,1,466,947,471
132764729,18270,-0.7646,-0.4438,1.3413,25.8789,198.1811,-112.4878,1,483,942,471
132769726,18271,-0.7407,-0.4468,1.2593,26.5503,211.8530,-109.6802,1,471,959,471
132774726,18272,-0.7197,-0.4351,1.1421,26.8555,223.5107,-106.2012,1,466,931,471
132779729,18273,-0.5967,-0.4775,1.1265,30.2734,236.9385,-104.9805,1,472,883,471
132784753,18274,-0.4590,-0.5811,1.1719,28.8086,246.5210,-88.9893,1,477,975,471
132789733,18275,-0.3892,-0.6841,1.0142,25.1465,272.2168,-81.9092,1,483,926,471
132794731,18276,-0.3701,-0.7031,0.9331,28.5034,277.4658,-69.3970,1,467,924,471
132799733,18277,-0.3423,-0.6934,0.8491,22.5830,284.2407,-62.0728,1,498,888,471
132804731,18278,-0.3242,-0.6680,0.7881,18.0664,286.8652,-51.0864,1,487,916,471
132809725,18279,-0.2993,-0.6255,0.7461,9.0332,287.7808,-43.3960,1,478,827,471
132814728,18280,-0.2715,-0.5811,0.7344,-2.6855,288.1470,-36.5601,1,476,887,471
132819729,18281,-0.2314,-0.5444,0.7495,-12.6343,286.8042,-28.6865,1,485,879,471
132824725,18282,-0.1709,-0.5112,0.7749,-26.4893,287.6587,-24.1089,1,475,937,471
132829728,18283,-0.1206,-0.4868,0.8062,-41.1377,290.2832,-18.7988,1,486,907,471
132834729,18284,-0.1021,-0.4727,0.8394,-54.7485,292.3584,-13.3057,1,466,902,471
132839733,18285,-0.1035,-0.4663,0.8755,-67.6270,293.3350,-8.3008,1,466,931,471
132844729,18286,-0.1167,-0.4590,0.9248,-80.4443,294.4336,-2.8076,1,466,911,471
132849732,18287,-0.1343,-0.4453,0.9995,-91.7969,294.2505,3.1738,1,466,921,471
132854725,18288,-0.1343,-0.4268,1.1025,-102.6001,294.0063,9.0942,1,466,922,471
132859725,18289,-0.1055,-0.4116,1.2222,-112.3657,295.8984,15.7471,1,465,917,471
132864726,18290,-0.0635,-0.4019,1.3408,-119.8120,300.1099,23.0713,1,465,945,471
132869731,18291,-0.0239,-0.3892,1.4507,-125.1831,305.3589,30.6396,1,484,929,471
132874732,18292,0.0088,-0.3667,1.5459,-129.1504,311.8286,38.6963,1,465,924,471
132879732,18293,0.0317,-0.3296,1.6162,-131.5918,318.7866,46.8750,1,466,948,471
132884731,18294,0.0444,-0.2827,1.6538,-133.0566,324.8901,54.5654,1,471,926,471
132889731,18295,0.0493,-0.2266,1.6641,-133.1177,329.5288,61.6455,1,503,938,471
132894730,18296,0.0454,-0.1641,1.6675,-131.7139,332.2143,67.6270,1,469,939,471
132899734,18297,0.0444,-0.1021,1.6875,-130.3711,332.3974,72.3877,1,500,931,471
132904732,18298,0.0659,-0.0527,1.7280,-128.8452,331.8481,76.4771,1,509,910,471
132909728,18299,0.0986,-0.0220,1.7690,-126.5869,332.2143,79.9561,1,476,872,471
132914727,18300,0.1226,-0.0010,1.8037,-123.7183,332.1533,82.7637,1,492,914,471
132919727,18301,0.1396,0.0151,1.8462,-120.9717,331.6040,85.0830,1,483,910,471
132924728,18302,0.1553,0.0205,1.9004,-118.2251,332.0312,87.2803,1,471,916,471
132929731,18303,0.1592,0.0166,1.9526,-114.0747,333.1299,89.1113,1,493,909,471
132934725,18304,0.1523,0.0146,1.9961,-109.3750,333.9233,90.5151,1,466,948,471
132939726,18305,0.1455,0.0156,2.0415,-104.7363,333.8623,91.0034,1,465,950,471
132944731,18306,0.1494,0.0166,2.0981,-99.4263,333.3740,90.8813,1,466,951,471
132949727,18307,0.1597,0.0205,2.1670,-94.7876,333.8623,88.8061,1,466,950,471
132954725,18308,0.1680,0.0225,2.2495,-90.9424,335.1440,85.5713,1,466,942,471
132959733,18309,0.1924,0.0200,2.3374,-86.4868,337.4633,83.0078,1,483,942,471
132964727,18310,0.2329,0.0146,2.4160,-84.6558,342.2851,77.3926,1,467,946,471
132969731,18311,0.2637,-0.0049,2.4780,-82.9468,348.1445,70.6177,1,465,931,471
132974734,18312,0.2891,-0.0391,2.5137,-82.0312,353.9428,65.8569,1,469,882,471
132979752,18313,0.3247,-0.0815,2.5259,-83.1909,359.0698,59.5093,1,474,962,471
132984730,18314,0.3740,-0.1230,2.5127,-82.4585,362.6098,54.0771,1,467,931,471
132989730,18315,0.4399,-0.1558,2.4688,-83.4351,365.6006,49.6216,1,495,942,471
132994725,18316,0.5122,-0.1758,2.4102,-85.8765,367.2485,45.1050,1,505,968,471
132999731,18317,0.5913,-0.1763,2.3540,-89.1724,366.4550,42.6636,1,492,854,471
133004725,18318,0.6729,-0.1650,2.3066,-96.6186,364.5630,39.1846,1,483,873,471
133009726,18319,0.7646,-0.1548,2.2700,-104.0649,359.1919,37.2314,1,491,921,471
133014732,18320,0.8838,-0.1479,2.2334,-113.2812,353.5766,36.0718,1,481,915,471
133019731,18321,1.0044,-0.1436,2.1855,-122.8638,347.7173,36.4990,1,488,920,471
133024732,18322,1.1055,-0.1582,2.1348,-133.7891,338.6230,38.9404,1,478,915,471
133029725,18323,1.2144,-0.1963,2.0845,-138.5498,326.7212,41.1987,1,493,908,471
133034734,18324,1.3418,-0.2451,2.0303,-140.8691,315.2466,47.3022,1,466,945,471
133039728,18325,1.4707,-0.3125,1.9829,-140.7471,303.1006,56.3354,1,466,936,471
133044725,18326,1.5981,-0.3799,1.9282,-132.3242,289.1846,65.4907,1,466,932,471
133049725,18327,1.7402,-0.3833,1.8516,-117.7368,274.1089,75.8057,1,466,937,471
133054727,18328,1.9062,-0.2788,1.7598,-105.5908,260.1929,83.1299,1,484,937,471
133059731,18329,2.0835,-0.0874,1.6543,-94.7876,245.3003,86.0596,1,465,969,471
133064732,18330,2.2729,0.1382,1.5249,-85.5713,229.2480,82.3975,1,484,936,471
133069731,18331,2.4824,0.3540,1.3574,-78.9185,212.8296,72.6318,1,477,939,471
133074728,18332,2.6895,0.5371,1.1436,-74.4629,195.7397,58.1665,1,465,967,471
133079731,18333,2.8569,0.6821,0.8970,-72.2046,175.4150,39.7339,1,477,934,471
133084730,18334,2.9834,0.7856,0.6611,-71.8384,149.8413,20.0195,1,502,923,471
133089729,18335,3.0918,0.8257,0.4829,-72.6929,120.3613,0.7935,1,490,881,471
133094733,18336,3.1738,0.7764,0.3789,-72.0825,89.5386,-15.4419,1,482,825,471
133099730,18337,3.1992,0.6338,0.3398,-65.9790,56.9458,-26.2451,1,478,842,471
133104726,18338,3.1724,0.4185,0.3550,-53.1616,22.5830,-30.1514,1,492,864,471
133109730,18339,3.1221,0.1777,0.4219,-33.2642,-11.1694,-27.8320,1,491,910,471
133114729,18340,3.0562,-0.0200,0.5322,-9.0942,-42.7856,-20.2026,1,490,907,471
133119730,18341,2.9717,-0.1313,0.6772,13.1226,-71.8384,-10.3149,1,482,891,471
133124729,18342,2.8770,-0.1880,0.8589,29.6020,-98.4497,-0.6104,1,493,911,471
133129733,18343,2.8262,0.0210,0.8262,42.9077,-134.8267,1.2207,1,466,915,471
133134727,18344,1.4907,0.8862,0.0122,52.0019,-224.6704,-28.2593,1,466,915,471
133139728,18345,-1.2183,0.8853,-0.4731,-48.5229,-305.9692,-61.8286,1,466,941,471
133144750,18346,-2.3281,-0.2944,0.4873,-81.0547,-349.9756,-55.4810,1,466,946,471
133149731,18347,-1.7422,-1.3120,1.5967,-81.3599,-259.5215,-42.2363,1,466,948,471
133154727,18348,-1.6670,-2.1885,1.4580,-28.6865,-201.9653,-47.0581,1,484,942,471
133159727,18349,-1.7974,-2.4878,-0.1265,85.2661,-280.9448,-39.6118,1,484,952,471
133164730,18350,-1.4355,-1.5469,-1.8452,170.7764,-378.8452,-31.1890,1,465,928,471
133169728,18351,-0.5669,0.1074,-2.1641,169.3115,-499.5117,-10.9253,1,476,944,471
133174726,18352,0.6069,0.9092,-0.7300,82.3364,-538.0859,-41.3818,1,466,987,471
133179726,18353,1.3174,0.3667,1.6235,26.5503,-522.5220,-27.8320,1,495,929,471
133184726,18354,1.2539,-0.4131,3.5474,21.1182,-481.8115,2.8687,1,503,935,471
133189726,18355,0.7598,-0.4395,4.2993,37.9028,-441.9555,11.4136,1,490,907,471
133194726,18356,0.4346,0.1870,4.0479,52.7954,-416.3208,5.7983,1,482,924,471
133199725,18357,0.5005,0.8486,3.4858,47.7905,-381.7138,-9.3994,1,473,877,471
133204730,18358,0.7192,1.1450,3.1143,39.5508,-341.8579,-22.8271,1,487,912,471
133209725,18359,0.7915,0.9658,2.9985,23.7427,-298.0957,-37.0483,1,472,911,471
133214732,18360,0.6841,0.4028,2.9663,9.2163,-259.8267,-43.1519,1,480,909,471
133219732,18361,0.5449,-0.2671,2.8086,4.1504,-224.7314,-41.6870,1,481,892,471
133224726,18362,0.4199,-0.7451,2.4468,3.5400,-193.4814,-35.1562,1,493,898,471
133229733,18363,0.1934,-1.0034,2.0332,0.9155,-170.2881,-23.0103,1,466,960,471
133234726,18364,-0.1045,-1.1909,1.8706,8.0566,-159.1187,-2.0752,1,466,919,471
133239727,18365,-0.0674,-1.1782,1.9492,32.7148,-163.2690,16.6626,1,465,901,471
133244725,18366,0.2354,-0.9458,1.9678,42.5415,-138.7329,22.3999,1,466,937,471
133249726,18367,0.2949,-0.7319,1.8682,48.4009,-109.6191,25.8179,1,466,946,471
133254726,18368,0.1865,-0.5742,1.7729,61.5234,-102.6001,28.2593,1,465,941,471
133259733,18369,0.1514,-0.4634,1.7202,68.2983,-88.7451,27.3437,1,485,944,471
133264728,18370,0.1421,-0.3906,1.6582,72.8760,-70.5566,27.2217,1,465,927,471
133269728,18371,0.0928,-0.3125,1.5532,76.4160,-57.4341,26.4282,1,471,952,471
133274730,18372,0.0259,-0.2393,1.4277,77.0874,-48.2788,24.8413,1,479,919,471
133279730,18373,-0.0356,-0.1963,1.3149,76.3550,-40.2222,23.2544,1,507,926,471
133284727,18374,-0.0981,-0.1782,1.2300,74.0356,-34.5459,21.8506,1,474,886,471
133289728,18375,-0.1450,-0.1553,1.1763,72.0825,-32.4707,20.9961,1,507,905,471
133294731,18376,-0.1616,-0.1021,1.1621,68.6035,-30.7007,20.0806,1,498,800,471
133299726,18377,-0.1567,-0.0210,1.1890,62.8052,-28.1372,18.5547,1,491,900,471
133304734,18378,-0.1396,0.0645,1.2397,55.3589,-24.7192,16.1133,1,487,900,471
133309725,18379,-0.1221,0.1245,1.2729,46.8140,-20.3857,13.2446,1,492,907,471
133314726,18380,-0.1328,0.1440,1.2510,37.7197,-15.6250,10.1318,1,483,937,471
133319727,18381,-0.1758,0.1177,1.1743,29.4800,-13.8550,7.3242,1,488,908,471
133324729,18382,-0.2183,0.0513,1.0835,23.0103,-14.5264,5.0659,1,466,897,471
133329731,18383,-0.2363,-0.0308,1.0215,18.4326,-16.0522,3.4790,1,466,912,471
133334726,18384,-0.2349,-0.0918,0.9941,15.6250,-17.7002,2.5024,1,466,907,471
133339736,18385,-0.2363,-0.1167,0.9829,13.9160,-20.0806,1.4648,1,466,908,471
133344730,18386,-0.2402,-0.1221,0.9761,12.8784,-23.5596,0.3052,1,466,919,471
133349732,18387,-0.2358,-0.1328,0.9692,12.3901,-27.2827,-1.0986,1,484,913,471
133354725,18388,-0.2236,-0.1650,0.9663,12.8174,-30.0903,-2.3193,1,475,929,471
133359732,18389,-0.2026,-0.2104,0.9712,14.5264,-33.1421,-2.9907,1,466,866,471
133364727,18390,-0.1753,-0.2417,0.9795,16.7847,-34.6680,-3.2349,1,471,911,471
133369726,18391,-0.1509,-0.2407,0.9941,18.8599,-35.1562,-3.2349,1,482,894,471
133374731,18392,-0.1260,-0.2139,1.0161,19.9585,-34.7290,-3.2959,1,465,930,471
133379733,18393,-0.1157,-0.1816,1.0298,20.5688,-32.7759,-3.5400,1,474,862,471
133384732,18394,-0.1270,-0.1567,1.0254,20.8130,-31.9824,-3.9673,1,479,898,471
133389726,18395,-0.1396,-0.1460,1.0166,20.3247,-32.5928,-4.5166,1,482,835,471
133394731,18396,-0.1401,-0.1470,1.0151,20.0806,-32.8369,-4.7607,1,487,844,471
133399725,18397,-0.1372,-0.1489,1.0171,20.0195,-32.8979,-5.0659,1,475,884,471
133404728,18398,-0.1338,-0.1406,1.0190,19.9585,-33.3862,-5.3711,1,490,882,471
133409725,18399,-0.1245,-0.1279,1.0210,19.3481,-33.3862,-5.7983,1,482,902,471
133414731,18400,-0.1157,-0.1274,1.0220,18.6157,-32.8979,-6.1035,1,488,889,471
133419729,18401,-0.1060,-0.1455,1.0220,18.7378,-32.4097,-6.2866,1,493,888,471
133424731,18402,-0.0913,-0.1709,1.0229,19.8364,-31.1279,-6.3477,1,466,908,471
133429725,18403,-0.0781,-0.1870,1.0205,21.6675,-29.2358,-6.3477,1,466,917,471
133434731,18404,-0.0811,-0.1855,1.0122,23.6816,-26.9165,-6.4087,1,466,923,471
133439727,18405,-0.0933,-0.1641,1.0137,25.2075,-25.9399,-6.7749,1,466,921,471
133444725,18406,-0.0928,-0.1401,1.0269,25.4517,-25.0854,-7.0801,1,483,920,471
133449726,18407,-0.0801,-0.1255,1.0396,25.5127,-23.3154,-7.2632,1,465,910,471
133454727,18408,-0.0654,-0.1323,1.0415,25.5737,-21.3013,-7.3242,1,484,904,471
133459725,18409,-0.0630,-0.1597,1.0229,27.1606,-18.4326,-7.1411,1,472,916,471
133464727,18410,-0.0869,-0.1855,0.9888,30.3955,-16.6016,-7.2021,1,479,944,471
133469733,18411,-0.1245,-0.1855,0.9629,32.8369,-17.3340,-7.7515,1,480,900,471
133474726,18412,-0.1504,-0.1816,0.9507,34.9731,-20.0806,-8.6670,1,476,903,471
133479730,18413,-0.1577,-0.1714,0.9614,38.1470,-22.2778,-9.8267,1,472,907,471
133484734,18414,-0.1255,-0.1265,1.0088,39.1235,-25.7568,-10.6812,1,494,903,471
133489732,18415,-0.0679,-0.0845,1.0640,37.5366,-24.3530,-10.9253,1,482,866,471
133494730,18416,-0.0361,-0.0562,1.0938,36.1328,-22.1558,-10.9253,1,483,822,471
133499726,18417,-0.0337,-0.0444,1.0972,33.8135,-20.6909,-10.5591,1,492,892,471
133504729,18418,-0.0361,-0.0488,1.0903,31.0059,-19.2261,-10.2539,1,485,894,471
133509728,18419,-0.0430,-0.0674,1.0703,28.9307,-17.0898,-9.7046,1,475,896,471
133514732,18420,-0.0645,-0.0771,1.0415,27.9541,-16.4185,-8.9111,1,477,877,471
133519728,18421,-0.0825,-0.0669,1.0273,26.7944,-16.8457,-8.9111,1,492,884,471
133524730,18422,-0.0801,-0.0581,1.0322,25.2686,-16.7847,-9.3384,1,466,918,471
133529731,18423,-0.0698,-0.0562,1.0415,24.1089,-16.2354,-9.2163,1,466,907,471
133534728,18424,-0.0654,-0.0542,1.0430,22.8882,-15.6860,-9.0942,1,466,913,471
133539748,18425,-0.0645,-0.0581,1.0415,21.3013,-15.3198,-9.0332,1,466,919,471
133544726,18426,-0.0625,-0.0610,1.0410,20.2026,-14.9536,-8.6060,1,466,921,471
133549726,18427,-0.0615,-0.0557,1.0405,19.1040,-14.5264,-8.5449,1,465,916,471
133554731,18428,-0.0605,-0.0498,1.0376,17.6392,-14.4043,-8.8501,1,484,913,471
133559733,18429,-0.0571,-0.0449,1.0337,16.3574,-14.5264,-8.7280,1,465,848,471
133564732,18430,-0.0596,-0.0410,1.0293,14.7705,-14.0991,-8.5449,1,471,914,471
133569747,18431,-0.0693,-0.0396,1.0229,13.0005,-14.4043,-8.2397,1,475,976,471
133574728,18432,-0.0757,-0.0405,1.0171,11.5967,-15.3809,-8.1787,1,465,905,471
133579729,18433,-0.0801,-0.0391,1.0127,10.3149,-16.2354,-8.5449,1,493,902,471
133584726,18434,-0.0845,-0.0396,1.0078,9.1553,-17.6392,-8.6670,1,472,884,471
133589734,18435,-0.0776,-0.0547,0.9956,8.1787,-19.1040,-8.6670,1,501,764,471
133594731,18436,-0.1084,-0.0664,0.9858,8.0566,-20.6909,-8.1787,1,497,809,471
133599727,18437,-0.1445,-0.0591,0.9839,7.5073,-25.2075,-5.7983,1,472,874,471
133604727,18438,-0.1250,-0.0557,0.9937,5.1270,-27.4048,-7.6294,1,488,875,471
133609733,18439,-0.1016,-0.0645,1.0063,5.9204,-29.6020,-6.8970,1,480,888,471
133614732,18440,-0.0957,-0.0742,1.0093,5.7983,-31.7993,-7.7515,1,485,867,471
133619734,18441,-0.1050,-0.0747,1.0083,6.3477,-34.6069,-8.4839,1,484,875,471
133624730,18442,-0.1128,-0.0649,1.0063,6.7139,-37.9028,-9.3994,1,493,866,471
133629727,18443,-0.1177,-0.0605,1.0068,6.4697,-41.5039,-11.4136,1,466,898,471
133634732,18444,-0.1235,-0.0586,1.0112,6.8359,-46.1426,-12.3901,1,466,922,471
133639737,18445,-0.1050,-0.0503,1.0273,6.2866,-51.0864,-13.0615,1,466,927,471
133644732,18446,-0.0620,-0.0415,1.0464,5.0659,-53.6499,-13.7329,1,466,919,471
133649726,18447,-0.0337,-0.0342,1.0532,4.5166,-54.8096,-12.7563,1,483,922,471
133654728,18448,-0.0215,-0.0288,1.0532,2.5024,-56.2134,-12.7563,1,476,921,471
133659733,18449,-0.0073,-0.0249,1.0552,0.6714,-56.7627,-11.5967,1,465,912,471
133664725,18450,0.0146,-0.0234,1.0591,-0.8545,-56.5796,-10.4980,1,483,904,471
133669738,18451,0.0273,-0.0220,1.0630,-2.8076,-55.0537,-10.0098,1,475,902,471
133674728,18452,0.0200,-0.0176,1.0630,-4.6387,-54.9316,-8.9722,1,471,895,471
133679730,18453,0.0112,-0.0239,1.0605,-6.6528,-55.0537,-8.2397,1,508,888,471
133684725,18454,0.0059,-0.0376,1.0615,-7.8735,-54.5044,-7.0190,1,492,906,471
133689729,18455,0.0068,-0.0439,1.0635,-8.9722,-54.8096,-5.7373,1,501,874,471
133694728,18456,0.0024,-0.0342,1.0659,-10.7422,-54.3213,-4.8218,1,482,804,471
133699729,18457,-0.0503,-0.0220,1.0752,-13.9770,-58.2275,-5.2490,1,489,895,471
133704730,18458,-0.0977,-0.0254,1.0825,-18.6768,-69.4580,-8.9111,1,486,891,471
133709725,18459,-0.1313,-0.0361,1.0840,-21.6675,-75.3174,-12.2681,1,476,900,471
133714733,18460,-0.1997,-0.0542,1.0801,-23.3154,-86.3647,-16.7847,1,492,925,471
133719727,18461,-0.3062,-0.0771,1.0708,-23.9868,-103.0884,-22.1558,1,484,902,471
133724730,18462,-0.4106,-0.0845,1.0674,-25.0244,-132.1411,-24.7192,1,466,910,471
133729731,18463,-0.6060,-0.0674,1.0806,-27.8320,-161.6211,-26.8555,1,466,937,471
133734731,18464,-0.9561,-0.0254,1.1304,-28.8696,-203.5522,-32.6538,1,466,934,471
133739725,18465,-1.3428,0.0518,1.2261,-30.2734,-261.0474,-39.4897,1,466,938,471
133744728,18466,-1.6445,0.3105,1.5459,-65.3687,-409.7900,-39.3677,1,483,929,471
133749733,18467,-1.7954,0.3955,1.8389,-98.9380,-491.7602,-48.7061,1,465,932,471
133754730,18468,-1.9092,0.3716,2.1660,-129.1504,-589.7217,-59.8755,1,484,945,471
133759734,18469,-1.7046,0.3096,2.3740,-143.7378,-678.7109,-68.0542,1,465,923,471
133764726,18470,-1.5005,0.2314,2.3638,-162.7807,-742.0654,-79.5898,1,472,958,471
